loggingTime,loggingSample,identifierForVendor,locationTimestamp_since1970,locationLatitude,locationLongitude,locationAltitude,locationSpeed,locationCourse,locationVerticalAccuracy,locationHorizontalAccuracy,locationFloor,accelerometerTimestamp_sinceReboot,accelerometerAccelerationX,accelerometerAccelerationY,accelerometerAccelerationZ,motionTimestamp_sinceReboot,motionYaw,motionRoll,motionPitch,motionRotationRateX,motionRotationRateY,motionRotationRateZ,motionUserAccelerationX,motionUserAccelerationY,motionUserAccelerationZ,motionAttitudeReferenceFrame,motionQuaternionX,motionQuaternionY,motionQuaternionZ,motionQuaternionW,motionGravityX,motionGravityY,motionGravityZ,motionMagneticFieldX,motionMagneticFieldY,motionMagneticFieldZ,motionMagneticFieldCalibrationAccuracy,activityTimestamp_sinceReboot,activity,activityActivityConfidence,activityActivityStartDate,pedometerStartDate,pedometerNumberofSteps,pedometerAverageActivePace,pedometerCurrentPace,pedometerCurrentCadence,pedometerDistance,pedometerFloorAscended,pedometerFloorDescended,pedometerEndDate,altimeterTimestamp_sinceReboot,altimeterReset,altimeterRelativeAltitude,altimeterPressure
1580908696.472234,1,0,1580907286.99823,41.20781296037784,29.0754925099451,275.2123,0.1345286,-1,23.46983528137207,200,-9999,12412.22938829167,0.9532470703125,0.1271209716796875,-0.207122802734375,12412.21934829167,1.705326931791054,1.361694123494906,-0.1239720657826101,-0.004812216386198997,0.05110916495323181,0.001902841962873936,-0.02189898490905762,0.001621514558792114,-0.00885474681854248,2,0.5047606889823589,-0.3771237552563693,-0.558358808521669,-0.5396572147508859,0.970710277557373,0.1236547529697418,-0.2059886455535889,31.41607666015625,5.857614517211914,9.204833984375,2,12410.85419066667,4,2,1580908695.095357,1580903939.50652,2888,0.4940922,0,0,3442.589,14,15,1580908691.639452,12409.044248,0,17.15921,97.00393
1580908696.473604,2,0,1580907286.99823,41.20781296037784,29.0754925099451,275.2123,0.1345286,-1,23.46983528137207,200,-9999,12412.23942929167,0.9659423828125,0.128570556640625,-0.2015380859375,12412.22938829167,1.705378828687686,1.362121793110289,-0.1239695012633652,-0.004518234636634588,0.04356981441378593,0.001708244904875755,-0.02133148908615112,0.002936258912086487,-0.004831314086914062,2,0.5048893037223726,-0.3772267739025184,-0.5582653694121164,-0.5395613389693694,0.9707983732223511,0.1236522123217583,-0.2055734992027283,31.56475067138672,5.84886360168457,9.1900634765625,2,12410.85419066667,4,2,1580908695.095357,1580903939.50652,2888,0.4940922,0,0,3442.589,14,15,1580908691.639452,12409.044248,0,17.15921,97.00393
1580908696.474996,3,0,1580907286.99823,41.20781296037784,29.0754925099451,275.2123,0.1345286,-1,23.46983528137207,200,-9999,12412.24946929167,0.9530181884765625,0.1261444091796875,-0.2016143798828125,12412.23942929167,1.705377353392736,1.362090980471995,-0.1240317534856136,-0.001256128773093224,-0.007882725447416306,-0.01336151827126741,-0.01051437854766846,0.003942385315895081,0.0002477169036865234,2,0.5048953917417481,-0.3771998581654331,-0.558258750795763,-0.5395813026942257,0.9707845449447632,0.1237139850854874,-0.2056018263101578,31.56475067138672,5.84886360168457,9.1900634765625,2,12410.85419066667,4,2,1580908695.095357,1580903939.50652,2888,0.4940922,0,0,3442.589,14,15,1580908691.639452,12409.044248,0,17.15921,97.00393
1580908696.475985,4,0,1580907286.99823,41.20781296037784,29.0754925099451,275.2123,0.1345286,-1,23.46983528137207,200,-9999,12412.25954029167,0.944580078125,0.123077392578125,-0.21478271484375,12412.24946929167,1.705347646320005,1.362047868924735,-0.1240314290492184,0.001453344710171223,-0.001290082931518555,-0.006143850274384022,-0.0179213285446167,0.002645730972290039,0.002990663051605225,2,0.5048776534055905,-0.3771958462123065,-0.5582617205542107,-0.539597724049099,0.9707757830619812,0.1237136647105217,-0.2056436985731125,31.36647796630859,5.773416519165039,9.252105712890625,2,12410.85419066667,4,2,1580908695.095357,1580903939.50652,2888,0.4940922,0,0,3442.589,14,15,1580908691.639452,12409.044248,0,17.15921,97.00393
1580908696.477128,5,0,1580907286.99823,41.20781296037784,29.0754925099451,275.2123,0.1345286,-1,23.46983528137207,200,-9999,12412.26958029167,0.9570159912109375,0.12493896484375,-0.2071380615234375,12412.25954029167,1.705345370194474,1.362118019850487,-0.1239970055898647,-0.0008106082677841187,0.006730558350682259,0.001248019747436047,-0.03159666061401367,-0.001272037625312805,-0.01274764537811279,2,0.5048885040813268,-0.3772258616053844,-0.5582511679321791,-0.5395776031275497,0.9707944393157959,0.1236795037984848,-0.2055764943361282,31.36647796630859,5.773416519165039,9.252105712890625,2,12410.85419066667,4,2,1580908695.095357,1580903939.50652,2888,0.4940922,0,0,3442.589,14,15,1580908691.639452,12409.044248,0,17.15921,97.00393
1580908696.481248,6,0,1580907286.99823,41.20781296037784,29.0754925099451,275.2123,0.1345286,-1,23.46983528137207,200,-9999,12412.27962029167,0.954986572265625,0.1269073486328125,-0.20745849609375,12412.26958029167,1.705357147493263,1.362217572168845,-0.1239575206486097,8.692219853401184e-05,0.01187571324408054,0.003603178076446056,-0.01714146137237549,0.0006746351718902588,-0.004603922367095947,2,0.5049090349968551,-0.3772617672755423,-0.5582380745697773,-0.5395467773663584,0.9708196520805359,0.1236403211951256,-0.2054808437824249,31.50457000732422,5.897769927978516,8.99346923828125,2,12410.85419066667,4,2,1580908695.095357,1580903939.50652,2888,0.4940922,0,0,3442.589,14,15,1580908691.639452,12409.044248,0,17.15921,97.00393
1580908696.501605,7,0,1580907286.99823,41.20781296037784,29.0754925099451,275.2123,0.1345286,-1,23.46983528137207,200,-9999,12412.28966129167,0.96075439453125,0.126739501953125,-0.20465087890625,12412.27962029167,1.70537943107713,1.362256583816601,-0.1238823435017887,-0.0008654249832034111,0.002640135586261749,0.008504725061357021,-0.0200730562210083,0.002717912197113037,-0.005296051502227783,2,0.504906048898721,-0.3772895828686861,-0.5582511485369106,-0.539516615714893,0.9708367586135864,0.1235657185316086,-0.2054449021816254,31.50457000732422,5.897769927978516,8.99346923828125,2,12410.85419066667,4,2,1580908695.095357,1580903939.50652,2888,0.4940922,0,0,3442.589,14,15,1580908691.639452,12409.044248,0,17.15921,97.00393
1580908696.502698,8,0,1580907286.99823,41.20781296037784,29.0754925099451,275.2123,0.1345286,-1,23.46983528137207,200,-9999,12412.29970129167,0.9542388916015625,0.126129150390625,-0.2075042724609375,12412.28966129167,1.70542338345682,1.362192159564995,-0.1237939169478676,-0.002496990840882063,-0.006182704120874405,0.009511700831353664,-0.01373803615570068,0.002836480736732483,-0.002164006233215332,2,0.504875108605788,-0.3772880495365629,-0.5582991384576157,-0.5394969438322392,0.9708341956138611,0.1234779730439186,-0.2055097073316574,31.62151336669922,5.968786239624023,9.22509765625,2,12410.85419066667,4,2,1580908695.095357,1580903939.50652,2888,0.4940922,0,0,3442.589,14,15,1580908691.639452,12409.044248,0,17.15921,97.00393
1580908696.511531,9,0,1580907286.99823,41.20781296037784,29.0754925099451,275.2123,0.1345286,-1,23.46983528137207,200,-9999,12412.30974129167,0.949127197265625,0.1239166259765625,-0.2094879150390625,12412.29970129167,1.705465190374376,1.362118900588593,-0.1236725617124778,-0.001021599397063255,-0.007302562706172466,0.01295356918126345,-0.01903235912322998,0.002408027648925781,-0.004363059997558594,2,0.5048333713837937,-0.3772947176371212,-0.5583561858096093,-0.5394722819080803,0.9708337783813477,0.1233575418591499,-0.205583930015564,31.62151336669922,5.968786239624023,9.22509765625,2,12410.85419066667,4,2,1580908695.095357,1580903939.50652,2888,0.4940922,0,0,3442.589,14,15,1580908691.639452,12409.044248,0,17.15921,97.00393
1580908696.521464,10,0,1580907286.99823,41.20781296037784,29.0754925099451,275.2123,0.1345286,-1,23.46983528137207,200,-9999,12412.31978129167,0.94354248046875,0.1208343505859375,-0.2135009765625,12412.30974129167,1.705528239693589,1.362115192051566,-0.1235334387358706,-0.002711343113332987,-0.001605654135346413,0.01360639464110136,-0.02512145042419434,0.0005476921796798706,-0.006934702396392822,2,0.5048107957267165,-0.3773201901437584,-0.5584053823661443,-0.5394246080710121,0.9708496928215027,0.1232194826006889,-0.2055910676717758,31.52471923828125,5.869033813476562,9.0535888671875,2,12410.85419066667,4,2,1580908695.095357,1580903939.50652,2888,0.4940922,0,0,3442.589,14,15,1580908691.639452,12409.044248,0,17.15921,97.00393
1580908696.531551,11,0,1580907286.99823,41.20781296037784,29.0754925099451,275.2123,0.1345286,-1,23.46983528137207,200,-9999,12412.32982229167,0.941558837890625,0.125,-0.2160186767578125,12412.31978129167,1.705624602102743,1.362287585001279,-0.1234185582145742,-0.00813140906393528,0.01454455591738224,0.009342406876385212,-0.03067922592163086,-0.002572730183601379,-0.009922504425048828,2,0.5048494739055355,-0.3773773839651965,-0.5584136954665384,-0.5393398454037994,0.9708990454673767,0.1231054738163948,-0.2054266333580017,31.52471923828125,5.869033813476562,9.0535888671875,2,12410.85419066667,4,2,1580908695.095357,1580903939.50652,2888,0.4940922,0,0,3442.589,14,15,1580908691.639452,12409.044248,0,17.15921,97.00393
1580908696.54169,12,0,1580907286.99823,41.20781296037784,29.0754925099451,275.2123,0.1345286,-1,23.46983528137207,200,-9999,12412.33986229167,0.9520416259765625,0.12664794921875,-0.2056732177734375,12412.32982229167,1.705704019794988,1.362658419814679,-0.1232883545786782,-0.006085221655666828,0.03834259510040283,0.01231005974113941,-0.03318232297897339,0.001188576221466064,-0.01462936401367188,2,0.504936699819175,-0.3774970004031638,-0.5583707555983242,-0.5392189079206875,0.9709908366203308,0.1229762583971024,-0.2050698846578598,31.62578582763672,5.959934234619141,9.10662841796875,2,12410.85419066667,4,2,1580908695.095357,1580903939.50652,2888,0.4940922,0,0,3442.589,14,15,1580908691.639452,12409.044248,0,17.15921,97.00393
1580908696.563435,13,0,1580907286.99823,41.20781296037784,29.0754925099451,275.2123,0.1345286,-1,23.46983528137207,200,-9999,12412.34993329167,0.9595489501953125,0.1251678466796875,-0.2066650390625,12412.33986229167,1.70575074477106,1.362983562741513,-0.1231412012345212,-0.001024416647851467,0.03388472646474838,0.01504299603402615,-0.02414226531982422,0.003318741917610168,-0.004337728023529053,2,0.5050009227179522,-0.3776176901688308,-0.5583343353930427,-0.5391119529842403,0.9710751175880432,0.1228302195668221,-0.2047578990459442,31.62578582763672,5.959934234619141,9.10662841796875,2,12410.85419066667,4,2,1580908695.095357,1580903939.50652,2888,0.4940922,0,0,3442.589,14,15,1580908691.639452,12409.044248,0,17.15921,97.00393
1580908696.564689,14,0,1580907286.99823,41.20781296037784,29.0754925099451,275.2123,0.1345286,-1,23.46983528137207,200,-9999,12412.35997329167,0.95391845703125,0.122711181640625,-0.2095489501953125,12412.34993329167,1.705786047630232,1.363274922733303,-0.1230380646830321,-0.001348523423075676,0.02781431935727596,0.01122482120990753,-0.01524233818054199,0.00210927426815033,-0.004802048206329346,2,0.5050641036623166,-0.3777187554295378,-0.5582935015883155,-0.5390243696409187,0.9711472392082214,0.1227278634905815,-0.2044775933027267,31.50796508789062,5.856546401977539,9.084320068359375,2,12410.85419066667,4,2,1580908695.095357,1580903939.50652,2888,0.4940922,0,0,3442.589,14,15,1580908691.639452,12409.044248,0,17.15921,97.00393
1580908696.571948,15,0,1580907286.99823,41.20781296037784,29.0754925099451,275.2123,0.1345286,-1,23.46983528137207,200,-9999,12412.37001329167,0.95489501953125,0.12384033203125,-0.2083587646484375,12412.35997329167,1.705803487886126,1.363605816007659,-0.1229848508713082,-7.525179535150528e-05,0.03418423980474472,0.005550308153033257,-0.0205351710319519,-0.0001418143510818481,-0.008144557476043701,2,0.5051469759755282,-0.3778197297132233,-0.5582265928243078,-0.5389452199732965,0.9712212085723877,0.1226750537753105,-0.2041575759649277,31.50796508789062,5.856546401977539,9.084320068359375,2,12410.85419066667,4,2,1580908695.095357,1580903939.50652,2888,0.4940922,0,0,3442.589,14,15,1580908691.639452,12409.044248,0,17.15921,97.00393
1580908696.581792,16,0,1580907286.99823,41.20781296037784,29.0754925099451,275.2123,0.1345286,-1,23.46983528137207,200,-9999,12412.38005429167,0.95379638671875,0.1251068115234375,-0.2067718505859375,12412.37001329167,1.705826320985409,1.363959741248872,-0.1229563960172095,-0.001595070119947195,0.03601348400115967,0.004273178987205029,-0.01997029781341553,0.0004510581493377686,-0.007802486419677734,2,0.5052432840733092,-0.3779179478923985,-0.5581496801189364,-0.5388655287175259,0.9712966680526733,0.1226468160748482,-0.2038144916296005,31.58570861816406,5.893180847167969,9.288482666015625,2,12410.85419066667,4,2,1580908695.095357,1580903939.50652,2888,0.4940922,0,0,3442.589,14,15,1580908691.639452,12409.044248,0,17.15921,97.00393
1580908696.592013,17,0,1580907286.99823,41.20781296037784,29.0754925099451,275.2123,0.1345286,-1,23.46983528137207,200,-9999,12412.39009429167,0.9514617919921875,0.1243896484375,-0.2094573974609375,12412.38005429167,1.705839692468488,1.364309861687832,-0.1229611301290164,-0.00169919990003109,0.03509921580553055,0.001101354137063026,-0.02081948518753052,0.002124831080436707,-0.006190836429595947,2,0.5053446474716647,-0.3780074586568655,-0.5580637647982518,-0.5387966880084122,0.9713674187660217,0.1226515173912048,-0.203474298119545,31.58570861816406,5.893180847167969,9.288482666015625,2,12410.85419066667,4,2,1580908695.095357,1580903939.50652,2888,0.4940922,0,0,3442.589,14,15,1580908691.639452,12409.044248,0,17.15921,97.00393
1580908696.601852,18,0,1580907286.99823,41.20781296037784,29.0754925099451,275.2123,0.1345286,-1,23.46983528137207,200,-9999,12412.40013429167,0.9505157470703125,0.122589111328125,-0.208831787109375,12412.39009429167,1.705849176712287,1.364693142955158,-0.1229719970866221,-0.001138214021921158,0.03866773098707199,-0.0009762761183083057,-0.02359706163406372,0.001488432288169861,-0.009250044822692871,2,0.5054559397887399,-0.3781050449674366,-0.5579670784704464,-0.5387241402706671,0.9714441895484924,0.1226622983813286,-0.2031017392873764,31.46003723144531,5.877542495727539,9.401336669921875,2,12410.85419066667,4,2,1580908695.095357,1580903939.50652,2888,0.4940922,0,0,3442.589,14,15,1580908691.639452,12409.988446,0,17.16187,97.00392
1580908696.627715,19,0,1580907286.99823,41.20781296037784,29.0754925099451,275.2123,0.1345286,-1,23.46983528137207,200,-9999,12412.41017429167,0.9486541748046875,0.12255859375,-0.207427978515625,12412.40013429167,1.705877671573487,1.365160226582443,-0.1229565414653879,-0.002902291715145111,0.04680501669645309,0.001515643671154976,-0.02416706085205078,-0.0003882795572280884,-0.009155750274658203,2,0.5055878871014887,-0.3782283732344883,-0.5578602001126993,-0.5386245255853473,0.9715408682823181,0.1226469576358795,-0.2026483714580536,31.46003723144531,5.877542495727539,9.401336669921875,2,12410.85419066667,4,2,1580908695.095357,1580903939.50652,2888,0.4940922,0,0,3442.589,14,15,1580908691.639452,12409.988446,0,17.16187,97.00392
1580908696.628927,20,0,1580907286.99823,41.20781296037784,29.0754925099451,275.2123,0.1345286,-1,23.46983528137207,200,-9999,12412.42021529167,0.953582763671875,0.1261444091796875,-0.2040252685546875,12412.41017429167,1.705916806362443,1.365697298826031,-0.1229115423002572,-0.003445229958742857,0.05627685040235519,0.005217262543737888,-0.02681457996368408,-0.0006181001663208008,-0.008762896060943604,2,0.5057342971137944,-0.3783767809690974,-0.5577450517411857,-0.5385019938401998,0.9716548919677734,0.1226022988557816,-0.2021276652812958,31.57337951660156,5.824434280395508,9.40838623046875,2,12410.85419066667,4,2,1580908695.095357,1580903939.50652,2888,0.4940922,0,0,3442.589,14,15,1580908691.639452,12409.988446,0,17.16187,97.00392
1580908696.632048,21,0,1580907286.99823,41.20781296037784,29.0754925099451,275.2123,0.1345286,-1,23.46983528137207,200,-9999,12412.43025529167,0.952911376953125,0.127197265625,-0.2039642333984375,12412.42021529167,1.705975889336446,1.366248434460005,-0.1228099171549957,-0.00406761048361659,0.05493488162755966,0.01093293912708759,-0.02175056934356689,0.002733200788497925,-0.005483388900756836,2,0.5058748081061633,-0.3785411040007523,-0.5576444009121549,-0.5383585885558544,0.9717782139778137,0.122501440346241,-0.2015946209430695,31.57337951660156,5.824434280395508,9.40838623046875,2,12410.85419066667,4,2,1580908695.095357,1580903939.50652,2888,0.4940922,0,0,3442.589,14,15,1580908691.639452,12409.988446,0,17.16187,97.00392
1580908696.642017,22,0,1580907286.99823,41.20781296037784,29.0754925099451,275.2123,0.1345286,-1,23.46983528137207,200,-9999,12412.44032629167,0.959503173828125,0.1301727294921875,-0.19708251953125,12412.43025529167,1.706020904031436,1.36675425535337,-0.1226064010066376,0.0001007141545414925,0.05159319192171097,0.02199655584990978,-0.0229606032371521,0.004309281706809998,-0.00616985559463501,2,0.505975483801505,-0.3787278047036073,-0.5575744185618664,-0.5382052526289147,0.9719045758247375,0.1222994551062584,-0.2011081129312515,31.56893920898438,5.748050689697266,9.40606689453125,2,12410.85419066667,4,2,1580908695.095357,1580903939.50652,2888,0.4940922,0,0,3442.589,14,15,1580908691.639452,12409.988446,0,17.16187,97.00392
1580908696.652498,23,0,1580907286.99823,41.20781296037784,29.0754925099451,275.2123,0.1345286,-1,23.46983528137207,200,-9999,12412.45036629167,0.956390380859375,0.1283111572265625,-0.198211669921875,12412.44032629167,1.706026522298121,1.367054524113907,-0.1223175277717263,0.004324753768742085,0.02951505407691002,0.02774818427860737,-0.01654022932052612,0.007404670119285583,0.000395655632019043,2,0.5059909362035698,-0.3788950549516046,-0.557565007067961,-0.5380827544082072,0.97199946641922,0.1220127418637276,-0.2008234262466431,31.46034240722656,5.743097305297852,9.28741455078125,2,12410.85419066667,4,2,1580908695.095357,1580903939.50652,2888,0.4940922,0,0,3442.589,14,15,1580908691.639452,12409.988446,0,17.16187,97.00392
1580908696.662122,24,0,1580907286.99823,41.20781296037784,29.0754925099451,275.2123,0.1345286,-1,23.46983528137207,200,-9999,12412.46040629167,0.94287109375,0.123565673828125,-0.2067413330078125,12412.45036629167,1.706003141824674,1.367276665352399,-0.1219247494133894,0.009967305697500706,0.02098059840500355,0.03807316720485687,-0.0183258056640625,0.006697282195091248,-7.081031799316406e-05,2,0.5059541655268266,-0.3790801975833737,-0.5575909599732218,-0.5379600681713211,0.9720909595489502,0.1216228902339935,-0.200617179274559,31.46034240722656,5.743097305297852,9.28741455078125,2,12410.85419066667,4,2,1580908695.095357,1580903939.50652,2888,0.4940922,0,0,3442.589,14,15,1580908691.639452,12409.988446,0,17.16187,97.00392
1580908696.687964,25,0,1580907286.99823,41.20781296037784,29.0754925099451,275.2123,0.1345286,-1,23.46983528137207,200,-9999,12412.47044729167,0.941864013671875,0.1197509765625,-0.2108306884765625,12412.46040629167,1.705984850923693,1.367664799654159,-0.1214554077924375,0.01235962379723787,0.04079025238752365,0.04603229090571404,-0.03175026178359985,0.002419456839561462,-0.008403122425079346,2,0.5059463061475719,-0.3793318795336684,-0.5575934566002063,-0.5377872736883642,0.9722244143486023,0.1211570203304291,-0.2002513259649277,31.56941223144531,5.676328659057617,9.280517578125,2,12410.85419066667,4,2,1580908695.095357,1580903939.50652,2888,0.4940922,0,0,3442.589,14,15,1580908691.639452,12409.988446,0,17.16187,97.00392
1580908696.689257,26,0,1580907286.99823,41.20781296037784,29.0754925099451,275.2123,0.1345286,-1,23.46983528137207,200,-9999,12412.48048729167,0.95001220703125,0.120391845703125,-0.2061767578125,12412.47044729167,1.706027083249896,1.368210198369167,-0.1209429716843409,0.005629283376038074,0.05557452887296677,0.05238606035709381,-0.03483504056930542,-0.001174613833427429,-0.01450759172439575,2,0.5059833759713493,-0.379623586629116,-0.5575821900487866,-0.5375582201365192,0.9723941683769226,0.1206483468413353,-0.1997335106134415,31.56941223144531,5.676328659057617,9.280517578125,2,12410.85419066667,4,2,1580908695.095357,1580903939.50652,2888,0.4940922,0,0,3442.589,14,15,1580908691.639452,12409.988446,0,17.16187,97.00392
1580908696.692288,27,0,1580907286.99823,41.20781296037784,29.0754925099451,275.2123,0.1345286,-1,23.46983528137207,200,-9999,12412.49052729167,0.96441650390625,0.11865234375,-0.20355224609375,12412.48048729167,1.706073118417775,1.368836762096114,-0.1204650664605688,0.006220238283276558,0.06504659354686737,0.05006511509418488,-0.02689945697784424,-0.0001338869333267212,-0.01025515794754028,2,0.5060520705109112,-0.3799255451195306,-0.5575436360443553,-0.5373202558776177,0.9725756049156189,0.120173916220665,-0.1991357654333115,31.47592163085938,5.690370559692383,9.575958251953125,2,12410.85419066667,4,2,1580908695.095357,1580903939.50652,2888,0.4940922,0,0,3442.589,14,15,1580908691.639452,12409.988446,0,17.16187,97.00392
1580908696.702188,28,0,1580907286.99823,41.20781296037784,29.0754925099451,275.2123,0.1345286,-1,23.46983528137207,200,-9999,12412.50056729167,0.976531982421875,0.121490478515625,-0.193695068359375,12412.49052729167,1.706092560110855,1.369356735279795,-0.1201003552276127,0.005468428134918213,0.05445972830057144,0.03246375173330307,-0.0137559175491333,-0.001403167843818665,-0.008617877960205078,2,0.506113192768113,-0.3801710768341222,-0.5574993743409674,-0.5371348968438936,0.9727218747138977,0.1198118403553963,-0.1986387819051743,31.47592163085938,5.690370559692383,9.575958251953125,2,12410.85419066667,4,2,1580908695.095357,1580903939.50652,2888,0.4940922,0,0,3442.589,14,15,1580908691.639452,12409.988446,0,17.16187,97.00392
1580908696.712778,29,0,1580907286.99823,41.20781296037784,29.0754925099451,275.2123,0.1345286,-1,23.46983528137207,200,-9999,12412.51060829167,0.9850311279296875,0.1204681396484375,-0.19195556640625,12412.50056729167,1.706041375446316,1.36950043625878,-0.1199640132212447,0.007365663535892963,0.01468515209853649,0.004721870645880699,-0.001685082912445068,0.001509770750999451,0.001453280448913574,2,0.5061108139608844,-0.3802640137904379,-0.5574799369499468,-0.5370914640574713,0.9727663397789001,0.1196764782071114,-0.198502242565155,31.5771484375,5.663980484008789,9.44818115234375,2,12410.85419066667,4,2,1580908695.095357,1580903939.50652,2888,0.4940922,0,0,3442.589,14,15,1580908691.639452,12409.988446,0,17.16187,97.00392
1580908696.722279,30,0,1580907286.99823,41.20781296037784,29.0754925099451,275.2123,0.1345286,-1,23.46983528137207,200,-9999,12412.52064829167,0.9691314697265625,0.12237548828125,-0.1947479248046875,12412.51060829167,1.705941274857744,1.3692518738033,-0.1200121926736755,0.007355543784797192,-0.02428754791617393,-0.006346493028104305,0.009493768215179443,2.746284008026123e-05,0.003663182258605957,2,0.5060340406330904,-0.3802079733085131,-0.5575051268793479,-0.5371774005473831,0.9727113842964172,0.1197243109345436,-0.1987428963184357,31.5771484375,5.663980484008789,9.44818115234375,2,12410.85419066667,4,2,1580908695.095357,1580903939.50652,2888,0.4940922,0,0,3442.589,14,15,1580908691.639452,12409.988446,0,17.16187,97.00392
1580908696.751863,31,0,1580907286.99823,41.20781296037784,29.0754925099451,275.2123,0.1345286,-1,23.46983528137207,200,-9999,12412.530706125,0.9536590576171875,0.12286376953125,-0.1995086669921875,12412.52064829167,1.705781926096958,1.368792744660591,-0.1201367446649108,0.0138957342132926,-0.04403861612081528,-0.01379695162177086,-0.005597531795501709,0.002070099115371704,0.00215524435043335,2,0.505905683578695,-0.3800871039044644,-0.5575504145333317,-0.5373367307211869,0.9726053476333618,0.1198479682207108,-0.1991864591836929,31.37085723876953,5.658548355102539,9.55914306640625,2,12410.85419066667,4,2,1580908695.095357,1580903939.50652,2888,0.4940922,0,0,3442.589,14,15,1580908691.639452,12409.988446,0,17.16187,97.00392
1580908696.753824,32,0,1580907286.99823,41.20781296037784,29.0754925099451,275.2123,0.1345286,-1,23.46983528137207,200,-9999,12412.540746125,0.932159423828125,0.12152099609375,-0.2083740234375,12412.530706125,1.705639793860088,1.368312345253352,-0.120261954173941,0.01062883529812098,-0.04702135547995567,-0.01435941178351641,-0.02034860849380493,0.002494648098945618,-0.002276897430419922,2,0.5057748302950557,-0.3799559136591349,-0.5576055222533769,-0.5374954152679425,0.9724947810173035,0.1199722737073898,-0.1996506452560425,31.37085723876953,5.658548355102539,9.55914306640625,2,12412.533605125,2,0,1580908696.774771,1580903939.50652,2888,0.4940922,0,0,3442.589,14,15,1580908691.639452,12409.988446,0,17.16187,97.00392
1580908696.755179,33,0,1580907286.99823,41.20781296037784,29.0754925099451,275.2123,0.1345286,-1,23.46983528137207,200,-9999,12412.550786125,0.921600341796875,0.1203155517578125,-0.2151031494140625,12412.540746125,1.705518776016901,1.368108136485535,-0.1203011595503743,0.0109614497050643,-0.01942151784896851,-0.006096034776419401,-0.04207742214202881,0.001067012548446655,-0.01033341884613037,2,0.5057043051756646,-0.3799197349666573,-0.5576158314043245,-0.5375767101980947,0.9724494814872742,0.1200111955404282,-0.1998482942581177,31.55065155029297,5.461965560913086,9.552734375,2,12412.533605125,2,0,1580908696.774771,1580903939.50652,2888,0.4940922,0,0,3442.589,14,15,1580908691.639452,12409.988446,0,17.16187,97.00392
1580908696.762551,34,0,1580907286.99823,41.20781296037784,29.0754925099451,275.2123,0.1345286,-1,23.46983528137207,200,-9999,12412.560827125,0.938018798828125,0.1162261962890625,-0.210357666015625,12412.550786125,1.705450577233707,1.368343441640911,-0.1202518852812526,0.006282897666096687,0.02749693766236305,0.003511830233037472,-0.05462735891342163,0.0001548081636428833,-0.01826775074005127,2,0.5057451297718298,-0.3800151805992793,-0.5575490734193346,-0.5375400266071022,0.9725021719932556,0.1199622750282288,-0.1996206492185593,31.55065155029297,5.461965560913086,9.552734375,2,12412.533605125,2,0,1580908696.774771,1580903939.50652,2888,0.4940922,0,0,3442.589,14,15,1580908691.639452,12409.988446,0,17.16187,97.00392
1580908696.772702,35,0,1580907286.99823,41.20781296037784,29.0754925099451,275.2123,0.1345286,-1,23.46983528137207,200,-9999,12412.570867125,0.9566497802734375,0.1208343505859375,-0.200286865234375,12412.560827125,1.705423227027196,1.368786490816821,-0.1201748658853089,0.003428255207836628,0.04644639417529106,0.007153702899813652,-0.04029017686843872,-0.004147708415985107,-0.01506650447845459,2,0.5058448803188409,-0.380164607407261,-0.5574470795194081,-0.537446493229032,0.9725997447967529,0.1198858171701431,-0.1991916596889496,31.39902496337891,5.628599166870117,9.368804931640625,2,12412.533605125,2,0,1580908696.774771,1580903939.50652,2888,0.4940922,0,0,3442.589,14,15,1580908691.639452,12409.988446,0,17.16187,97.00392
1580908696.782588,36,0,1580907286.99823,41.20781296037784,29.0754925099451,275.2123,0.1345286,-1,23.46983528137207,200,-9999,12412.580907125,0.96807861328125,0.1224365234375,-0.19683837890625,12412.570867125,1.705384914618564,1.369164205100135,-0.1201277651143501,0.004756106995046139,0.03916025161743164,0.003622883930802345,-0.02137410640716553,3.43620777130127e-05,-0.005119383335113525,2,0.5059315961295983,-0.3802900596267782,-0.5573518003572338,-0.5373747711765553,0.9726803302764893,0.1198390498757362,-0.1988253742456436,31.39902496337891,5.628599166870117,9.368804931640625,2,12412.533605125,2,0,1580908696.774771,1580903939.50652,2888,0.4940922,0,0,3442.589,14,15,1580908691.639452,12409.988446,0,17.16187,97.00392
1580908696.807276,37,0,1580907286.99823,41.20781296037784,29.0754925099451,275.2123,0.1345286,-1,23.46983528137207,200,-9999,12412.590948125,0.9712066650390625,0.12200927734375,-0.1949005126953125,12412.580907125,1.705316675242134,1.369359175458925,-0.1201387054617046,0.007127119228243828,0.02039455249905586,-0.001710894517600536,-0.009006381034851074,0.002174898982048035,-0.001114010810852051,2,0.5059755918250547,-0.3803563723780875,-0.5572816607258337,-0.5373590985769919,0.9727177619934082,0.1198499128222466,-0.198635458946228,31.45592498779297,5.658288955688477,9.563018798828125,2,12412.533605125,2,0,1580908696.774771,1580903939.50652,2888,0.4940922,0,0,3442.589,14,15,1580908691.639452,12409.988446,0,17.16187,97.00392
1580908696.808566,38,0,1580907286.99823,41.20781296037784,29.0754925099451,275.2123,0.1345286,-1,23.46983528137207,200,-9999,12412.600988125,0.9655914306640625,0.1218414306640625,-0.1955108642578125,12412.590948125,1.705228071456401,1.369305922342661,-0.1202271636929786,0.005752839148044586,-0.005856441333889961,-0.01006760727614164,-0.005369067192077637,0.001522168517112732,0.0005837082862854004,2,0.5059651591690633,-0.380337605674733,-0.5572513839690898,-0.5374135340098608,0.9726967215538025,0.1199377328157425,-0.1986851245164871,31.45592498779297,5.658288955688477,9.563018798828125,2,12412.533605125,2,0,1580908696.774771,1580903939.50652,2888,0.4940922,0,0,3442.589,14,15,1580908691.639452,12409.988446,0,17.16187,97.00392
1580908696.813288,39,0,1580907286.99823,41.20781296037784,29.0754925099451,275.2123,0.1345286,-1,23.46983528137207,200,-9999,12412.611028125,0.953948974609375,0.1192169189453125,-0.2044219970703125,12412.600988125,1.705114602806123,1.369097709828461,-0.1203800338561794,0.007892689667642117,-0.02150171250104904,-0.01717158779501915,-0.009383678436279297,0.001400396227836609,0.0009969472885131836,2,0.5059222434304426,-0.3802639680298306,-0.5572391727406372,-0.537518822830938,0.9726374745368958,0.1200895011425018,-0.1988839954137802,31.35582733154297,5.763978958129883,9.422760009765625,2,12412.533605125,2,0,1580908696.774771,1580903939.50652,2888,0.4940922,0,0,3442.589,14,15,1580908691.639452,12409.988446,0,17.16187,97.00392
1580908696.822974,40,0,1580907286.99823,41.20781296037784,29.0754925099451,275.2123,0.1345286,-1,23.46983528137207,200,-9999,12412.621099125,0.949462890625,0.1197967529296875,-0.20391845703125,12412.611028125,1.705005790102218,1.368946273118208,-0.1205614859179322,0.007777920924127102,-0.01216297410428524,-0.01971449702978134,-0.02156966924667358,-0.001343920826911926,-0.007679224014282227,2,0.5059029310432999,-0.380195693287637,-0.5572073692686563,-0.5376182733944654,0.9725859761238098,0.1202696338295937,-0.1990269124507904,31.35582733154297,5.763978958129883,9.422760009765625,2,12412.533605125,2,0,1580908696.774771,1580903939.50652,2888,0.4940922,0,0,3442.589,14,15,1580908691.639452,12409.988446,0,17.16187,97.00392
1580908696.832815,41,0,1580907286.99823,41.20781296037784,29.0754925099451,275.2123,0.1345286,-1,23.46983528137207,200,-9999,12412.631139125,0.9318084716796875,0.1239013671875,-0.2032470703125,12412.621099125,1.70494551837889,1.368862862494854,-0.1206947483126459,0.003243889659643173,-0.007230534218251705,-0.01488165743649006,-0.02596235275268555,-0.001293614506721497,-0.008058905601501465,2,0.5059002285257098,-0.3801480545455641,-0.5571822581080846,-0.537680557040362,0.9725536704063416,0.1204019337892532,-0.199104830622673,31.38807678222656,5.549415588378906,9.425323486328125,2,12412.533605125,2,0,1580908696.774771,1580903939.50652,2888,0.4940922,0,0,3442.589,14,15,1580908691.639452,12409.988446,0,17.16187,97.00392
1580908696.843027,42,0,1580907286.99823,41.20781296037784,29.0754925099451,275.2123,0.1345286,-1,23.46983528137207,200,-9999,12412.641179125,0.924713134765625,0.124114990234375,-0.2120361328125,12412.631139125,1.704968671653764,1.368986469606627,-0.1206655309538221,-0.002846958581358194,0.01299411617219448,0.003417457453906536,-0.04228681325912476,0.002641767263412476,-0.006713986396789551,2,0.5059320554023226,-0.3801842942154175,-0.557163788919514,-0.5376441001344228,0.9725817441940308,0.1203729286789894,-0.1989853084087372,31.38807678222656,5.549415588378906,9.425323486328125,2,12412.533605125,2,0,1580908696.774771,1580903939.50652,2888,0.4940922,0,0,3442.589,14,15,1580908691.639452,12409.988446,0,17.16187,97.00392
1580908696.867459,43,0,1580907286.99823,41.20781296037784,29.0754925099451,275.2123,0.1345286,-1,23.46983528137207,200,-9999,12412.651220125,0.933319091796875,0.1224822998046875,-0.2078399658203125,12412.641179125,1.705005150429123,1.369420939073516,-0.1204523777157739,0.0014662966132164,0.04458773136138916,0.02300101146101952,-0.05202710628509521,0.003571316599845886,-0.01575416326522827,2,0.5060088257667316,-0.3803565816566248,-0.557111716656656,-0.5375040000534755,0.9726932644844055,0.1201613172888756,-0.1985678821802139,31.37545013427734,5.506107330322266,9.588226318359375,2,12412.533605125,2,0,1580908696.774771,1580903939.50652,2888,0.4940922,0,0,3442.589,14,15,1580908691.639452,12409.988446,0,17.16187,97.00392
1580908696.868879,44,0,1580907286.99823,41.20781296037784,29.0754925099451,275.2123,0.1345286,-1,23.46983528137207,200,-9999,12412.661260125,0.9505462646484375,0.12176513671875,-0.2017364501953125,12412.651220125,1.705047129936838,1.370066011603214,-0.1201349521784298,0.002503473311662674,0.06527620553970337,0.03276154026389122,-0.04457879066467285,0.00243803858757019,-0.0137365460395813,2,0.5061202962230807,-0.3806156368666799,-0.5570312717759438,-0.5372989548814431,0.9728584289550781,0.1198461875319481,-0.1979479640722275,31.37545013427734,5.506107330322266,9.588226318359375,2,12412.533605125,2,0,1580908696.774771,1580903939.50652,2888,0.4940922,0,0,3442.589,14,15,1580908691.639452,12409.988446,0,17.16187,97.00392
1580908696.873121,45,0,1580907286.99823,41.20781296037784,29.0754925099451,275.2123,0.1345286,-1,23.46983528137207,200,-9999,12412.671300125,0.9580841064453125,0.118927001953125,-0.20111083984375,12412.661260125,1.705111072779861,1.370746677890918,-0.1197844654186757,-3.265496343374252e-05,0.06710047274827957,0.03584760800004005,-0.02775692939758301,0.001780152320861816,-0.007831871509552002,2,0.5062379257072096,-0.3808886163902994,-0.5569551253489261,-0.5370735048425272,0.9730339646339417,0.11949822306633,-0.1972940415143967,31.49268341064453,5.612503051757812,9.422576904296875,2,12412.533605125,2,0,1580908696.774771,1580903939.50652,2888,0.4940922,0,0,3442.589,14,15,1580908691.639452,12409.988446,0,17.16187,97.00392
1580908696.883151,46,0,1580907286.99823,41.20781296037784,29.0754925099451,275.2123,0.1345286,-1,23.46983528137207,200,-9999,12412.681341125,0.962005615234375,0.1174774169921875,-0.1988525390625,12412.671300125,1.70519548934987,1.371416460288771,-0.1194526347988809,-0.001777726225554943,0.06658182293176651,0.03443920239806175,-0.01872736215591431,-0.0004373788833618164,-0.007608294486999512,2,0.5063608489816047,-0.381147762481287,-0.5568830495078942,-0.5368485914193792,0.9732048511505127,0.119168758392334,-0.1966501474380493,31.49268341064453,5.612503051757812,9.422576904296875,2,12412.533605125,2,0,1580908696.774771,1580903939.50652,2888,0.4940922,0,0,3442.589,14,15,1580908691.639452,12409.988446,0,17.16187,97.00392
1580908696.893267,47,0,1580907286.99823,41.20781296037784,29.0754925099451,275.2123,0.1345286,-1,23.46983528137207,200,-9999,12412.691381125,0.9850921630859375,0.119384765625,-0.18817138671875,12412.681341125,1.705286179582122,1.371976120970592,-0.1191747689396167,-0.002755639143288136,0.05828980356454849,0.02977733686566353,-0.01648986339569092,-0.001869469881057739,-0.006225943565368652,2,0.5064672826859353,-0.3813592748919777,-0.5568283104493794,-0.5366547555036194,0.9733471870422363,0.1188928708434105,-0.1961119920015335,31.34335327148438,5.613195419311523,9.466644287109375,2,12412.533605125,2,0,1580908696.774771,1580903939.50652,2888,0.4940922,0,0,3442.589,14,15,1580908691.639452,12409.988446,0,17.16187,97.00392
1580908696.928715,48,0,1580907286.99823,41.20781296037784,29.0754925099451,275.2123,0.1345286,-1,23.46983528137207,200,-9999,12412.701421125,0.988861083984375,0.122711181640625,-0.18096923828125,12412.691381125,1.705365946012211,1.372064487956663,-0.1190043840029968,-0.005055067129433155,0.009479638189077377,0.01892010308802128,0.006055831909179688,0.0001009106636047363,0.003350675106048584,2,0.5064662021352564,-0.3814144645432626,-0.556865753479429,-0.5365777578446329,0.9733843803405762,0.1187236905097961,-0.1960299909114838,31.34335327148438,5.613195419311523,9.466644287109375,2,12412.533605125,2,0,1580908696.774771,1580903939.50652,2888,0.4940922,0,0,3442.589,14,15,1580908691.639452,12409.988446,0,17.16187,97.00392
1580908696.930048,49,0,1580907286.99823,41.20781296037784,29.0754925099451,275.2123,0.1345286,-1,23.46983528137207,200,-9999,12412.711492125,0.9687347412109375,0.1216278076171875,-0.1924896240234375,12412.701421125,1.705405560346968,1.371614692940267,-0.1189124412000322,-0.002953567076474428,-0.04662171378731728,0.01021529361605644,0.0131983757019043,0.003167957067489624,0.01285558938980103,2,0.5063264922972125,-0.3813115876386738,-0.5570109238963142,-0.5366318439281935,0.9733066558837891,0.118632398545742,-0.1964699178934097,31.44229125976562,5.634199142456055,9.475372314453125,2,12412.533605125,2,0,1580908696.774771,1580903939.50652,2888,0.4940922,0,0,3442.589,14,15,1580908691.639452,12409.988446,0,17.16187,97.00392
1580908696.931123,50,0,1580907286.99823,41.20781296037784,29.0754925099451,275.2123,0.1345286,-1,23.46983528137207,200,-9999,12412.721532125,0.96881103515625,0.12017822265625,-0.193695068359375,12412.711492125,1.705400627369447,1.370917918453882,-0.1188493060227532,0.001528547145426273,-0.06627334654331207,0.006283815018832684,-0.006416380405426025,0.003078252077102661,0.00300896167755127,2,0.5061163307179445,-0.3811449898906898,-0.5572001568332678,-0.5367519013700236,0.9731767773628235,0.1185697093605995,-0.1971495151519775,31.44229125976562,5.634199142456055,9.475372314453125,2,12412.533605125,2,0,1580908696.774771,1580903939.50652,2888,0.4940922,0,0,3442.589,14,15,1580908691.639452,12409.988446,0,17.16187,97.00392
1580908696.933473,51,0,1580907286.99823,41.20781296037784,29.0754925099451,275.2123,0.1345286,-1,23.46983528137207,200,-9999,12412.731573125,0.969024658203125,0.124114990234375,-0.186614990234375,12412.721532125,1.70536329536716,1.3699073824284,-0.1188238014978274,0.002806331962347031,-0.09765284508466721,0.002648067660629749,-0.008843421936035156,0.0007843971252441406,0.0007773041725158691,2,0.5058214250062464,-0.3808909812700715,-0.5574516117928783,-0.5369493468631523,0.972980260848999,0.1185443848371506,-0.1981334984302521,31.32675933837891,5.709697723388672,9.446441650390625,2,12412.533605125,2,0,1580908696.774771,1580903939.50652,2888,0.4940922,0,0,3442.589,14,15,1580908691.639452,12409.988446,0,17.16187,97.00392
1580908696.944003,52,0,1580907286.99823,41.20781296037784,29.0754925099451,275.2123,0.1345286,-1,23.46983528137207,200,-9999,12412.741613125,0.95172119140625,0.1283416748046875,-0.18743896484375,12412.731573125,1.705221539085274,1.36847672704709,-0.1187834495383075,0.01403455343097448,-0.1384486705064774,0.001405704766511917,-0.00557178258895874,0.004883438348770142,0.009423017501831055,2,0.5053858922727267,-0.3805548372595939,-0.5577842614563303,-0.5372521504732712,0.9727004170417786,0.1185043156147003,-0.199526235461235,31.32675933837891,5.709697723388672,9.446441650390625,2,12412.533605125,2,0,1580908696.774771,1580903939.50652,2888,0.4940922,0,0,3442.589,14,15,1580908691.639452,12409.988446,0,17.16187,97.00392
1580908696.953871,53,0,1580907286.99823,41.20781296037784,29.0754925099451,275.2123,0.1345286,-1,23.46983528137207,200,-9999,12412.751653125,0.9635162353515625,0.1316680908203125,-0.1897430419921875,12412.741613125,1.704974013588175,1.366661721376786,-0.1186219793703698,0.02595566213130951,-0.1759909838438034,0.01103516202419996,-0.02408546209335327,0.009087890386581421,0.01156455278396606,2,0.5047936381169439,-0.3801786148345402,-0.5582123677059949,-0.5376303817714237,0.9723552465438843,0.1183439865708351,-0.2012952119112015,31.37688446044922,5.720878601074219,9.229888916015625,2,12412.533605125,2,0,1580908696.774771,1580903939.50652,2888,0.4940922,0,0,3442.589,14,15,1580908691.639452,12409.988446,0,17.16187,97.00392
1580908696.989972,54,0,1580907286.99823,41.20781296037784,29.0754925099451,275.2123,0.1345286,-1,23.46983528137207,200,-9999,12412.761693125,0.968780517578125,0.13323974609375,-0.186920166015625,12412.751653125,1.704613133980874,1.364386119071644,-0.1183263945189845,0.04081223160028458,-0.2228973060846329,0.02081909030675888,-0.01305276155471802,0.01296830177307129,0.01055717468261719,2,0.5040184317196331,-0.3797474735081722,-0.5587556326483782,-0.5380979304650513,0.9719289541244507,0.1180504709482193,-0.2035145610570908,31.37688446044922,5.720878601074219,9.229888916015625,2,12412.533605125,2,0,1580908696.774771,1580903939.50652,2888,0.4940922,0,0,3442.589,14,15,1580908691.639452,12409.988446,0,17.16187,97.00392
1580908696.991195,55,0,1580907286.99823,41.20781296037784,29.0754925099451,275.2123,0.1345286,-1,23.46983528137207,200,-9999,12412.771734125,0.996551513671875,0.1198577880859375,-0.191650390625,12412.761693125,1.704152156430566,1.361576869446486,-0.1180034560587803,0.05396585166454315,-0.2714443206787109,0.02083613350987434,-0.007232844829559326,0.01489236950874329,0.01649391651153564,2,0.5030677628833673,-0.3792054853283776,-0.5594112605549447,-0.5386882852012277,0.9713906645774841,0.1177297830581665,-0.2062520533800125,31.48300933837891,5.715639114379883,9.42584228515625,2,12412.533605125,2,0,1580908696.774771,1580903939.50652,2888,0.4940922,0,0,3442.589,14,15,1580908691.639452,12409.988446,0,17.16187,97.00392
1580908696.992339,56,0,1580907286.99823,41.20781296037784,29.0754925099451,275.2123,0.1345286,-1,23.46983528137207,200,-9999,12412.781774125,1.027694702148438,0.1192626953125,-0.1815643310546875,12412.771734125,1.703647384619351,1.358036399365694,-0.1177983947428495,0.05403706803917885,-0.3446597754955292,0.01109632849693298,0.01853746175765991,0.003683179616928101,0.01543301343917847,2,0.5019316104961347,-0.378440417171311,-0.5602106492974923,-0.5394548166919751,0.9706778526306152,0.1175261437892914,-0.2096950113773346,31.48300933837891,5.715639114379883,9.42584228515625,2,12412.533605125,2,0,1580908696.774771,1580903939.50652,2888,0.4940922,0,0,3442.589,14,15,1580908691.639452,12409.988446,0,17.16187,97.00392
1580908696.993579,57,0,1580907286.99823,41.20781296037784,29.0754925099451,275.2123,0.1345286,-1,23.46983528137207,200,-9999,12412.791814125,1.0635986328125,0.126312255859375,-0.164306640625,12412.781774125,1.702998642486748,1.353345303523991,-0.1178934428841796,0.06035329028964043,-0.4576907455921173,-0.02134976163506508,0.05151373147964478,0.0001857876777648926,0.02785712480545044,2,0.5005168744793147,-0.3773074773405926,-0.561189939211154,-0.5405440688000366,0.969672679901123,0.1176205351948738,-0.2142438590526581,31.55532836914062,5.598073959350586,8.901458740234375,2,12412.533605125,2,0,1580908696.774771,1580903939.50652,2888,0.4940922,0,0,3442.589,14,15,1580908691.639452,12409.988446,0,17.16187,97.00392
1580908697.003847,58,0,1580907286.99823,41.20781296037784,29.0754925099451,275.2123,0.1345286,-1,23.46983528137207,200,-9999,12412.801885125,1.051864624023438,0.1410675048828125,-0.1715850830078125,12412.791814125,1.702063555649269,1.346877823209048,-0.1184463829374326,0.07767872512340546,-0.6357073187828064,-0.07510330528020859,0.08852648735046387,0.006913080811500549,0.05192422866821289,2,0.498658463612313,-0.375621688149596,-0.5624290843431761,-0.5421453586997488,0.9682031273841858,0.1181696206331253,-0.2204961627721786,31.55532836914062,5.598073959350586,8.901458740234375,2,12412.533605125,2,0,1580908696.774771,1580903939.50652,2888,0.4940922,0,0,3442.589,14,15,1580908691.639452,12409.988446,0,17.16187,97.00392
1580908697.013976,59,0,1580907286.99823,41.20781296037784,29.0754925099451,275.2123,0.1345286,-1,23.46983528137207,200,-9999,12412.811925125,0.8943328857421875,0.1225128173828125,-0.251190185546875,12412.801885125,1.700807920711884,1.339040865790633,-0.1192726034148112,0.1009510233998299,-0.7816144824028015,-0.1048976853489876,0.08886063098907471,0.01989889144897461,0.05697780847549438,2,0.4964180252965826,-0.3735529960495879,-0.5638540900934321,-0.5441470211789649,0.9663501977920532,0.1189900115132332,-0.2280546128749847,31.55218505859375,5.7003173828125,8.883880615234375,2,12412.533605125,2,0,1580908696.774771,1580903939.50652,2888,0.4940922,0,0,3442.589,14,15,1580908691.639452,12409.988446,0,17.16187,97.00392
1580908697.047724,60,0,1580907286.99823,41.20781296037784,29.0754925099451,275.2123,0.1345286,-1,23.46983528137207,200,-9999,12412.821966125,0.7456817626953125,0.048065185546875,-0.35284423828125,12412.811925125,1.699462108314026,1.332700793992969,-0.120434412293076,0.1000353395938873,-0.6457545757293701,-0.1519634425640106,-0.05182141065597534,0.00908234715461731,-0.007604360580444336,2,0.4946625501542044,-0.371802348456617,-0.5648006692711827,-0.5459599827975303,0.9647498726844788,0.1201434805989265,-0.2341439574956894,31.55218505859375,5.7003173828125,8.883880615234375,2,12412.533605125,2,0,1580908696.774771,1580903939.50652,2888,0.4940922,0,0,3442.589,14,15,1580908691.639452,12409.988446,0,17.16187,97.00392
1580908697.049004,61,0,1580907286.99823,41.20781296037784,29.0754925099451,275.2123,0.1345286,-1,23.46983528137207,200,-9999,12412.832006125,0.8548736572265625,0.09320068359375,-0.2979278564453125,12412.821966125,1.698379529281305,1.32991883745111,-0.1217278293530421,0.07753002643585205,-0.244321420788765,-0.1568841636180878,-0.2215743064880371,-0.07100270688533783,-0.1153767704963684,2,0.4939929928543622,-0.3709125169141784,-0.5649060550664712,-0.547061287176218,0.9639430046081543,0.1214274317026138,-0.236789658665657,31.69964599609375,5.51359748840332,8.29547119140625,2,12412.533605125,2,0,1580908696.774771,1580903939.50652,2888,0.4940922,0,0,3442.589,14,15,1580908691.639452,12409.988446,0,17.16187,97.00392
1580908697.050246,62,0,1580907286.99823,41.20781296037784,29.0754925099451,275.2123,0.1345286,-1,23.46983528137207,200,-9999,12412.842046125,0.8471221923828125,0.1256866455078125,-0.279754638671875,12412.832006125,1.697745111882788,1.32883126611639,-0.122866023995255,0.0323370173573494,-0.1090858355164528,-0.1265062689781189,-0.1218453645706177,-0.03641580045223236,-0.07012313604354858,2,0.4938476059596162,-0.3704217235958384,-0.5647489315733206,-0.5476868408795039,0.9635500311851501,0.1225571259856224,-0.23780457675457,31.69964599609375,5.51359748840332,8.29547119140625,2,12412.533605125,2,0,1580908696.774771,1580903939.50652,2888,0.4940922,0,0,3442.589,14,15,1580908691.639452,12409.988446,0,17.16187,97.00392
1580908697.054078,63,0,1580907286.99823,41.20781296037784,29.0754925099451,275.2123,0.1345286,-1,23.46983528137207,200,-9999,12412.852086125,0.9097900390625,0.1226806640625,-0.26666259765625,12412.842046125,1.697296382252667,1.329190156654855,-0.1236903631210007,0.02291368693113327,0.04722334444522858,-0.0842892974615097,-0.1162931323051453,0.001184791326522827,-0.04421859979629517,2,0.4940680505475964,-0.3703775022228704,-0.5643547698602249,-0.5479243473032489,0.9635370373725891,0.1233752071857452,-0.2374345362186432,31.68517303466797,5.842624664306641,8.272247314453125,2,12412.533605125,2,0,1580908696.774771,1580903939.50652,2888,0.4940922,0,0,3442.589,14,15,1580908691.639452,12409.988446,0,17.16187,97.00392
1580908697.063986,64,0,1580907286.99823,41.20781296037784,29.0754925099451,275.2123,0.1345286,-1,23.46983528137207,200,-9999,12412.862127125,0.99639892578125,0.1143035888671875,-0.2399749755859375,12412.852086125,1.696966142567963,1.330089098682284,-0.124497716359011,0.01347149815410376,0.09574658423662186,-0.08235279470682144,-0.070159912109375,-0.0009010434150695801,-0.03653633594512939,2,0.4944584818142405,-0.3704572692546694,-0.5638630250329074,-0.548024440806965,0.9636529684066772,0.1241763532161713,-0.2365444451570511,31.68517303466797,5.842624664306641,8.272247314453125,2,12412.533605125,2,0,1580908696.774771,1580903939.50652,2888,0.4940922,0,0,3442.589,14,15,1580908691.639452,12409.988446,0,17.16187,97.00392
1580908697.074238,65,0,1580907286.99823,41.20781296037784,29.0754925099451,275.2123,0.1345286,-1,23.46983528137207,200,-9999,12412.872167125,1.007293701171875,0.11328125,-0.2420654296875,12412.862127125,1.696782627675983,1.330840925432336,-0.1255672519059233,-0.008626614697277546,0.07431773096323013,-0.1099673733115196,0.02570867538452148,-0.01115189492702484,-0.007739126682281494,2,0.4948985371877774,-0.3703800109793847,-0.5633892368807298,-0.5481666665257094,0.9637009501457214,0.1252375394105911,-0.2357881665229797,31.74628448486328,5.958488464355469,8.13946533203125,2,12412.533605125,2,0,1580908696.774771,1580903939.50652,2888,0.4940922,0,0,3442.589,14,15,1580908691.639452,12409.988446,0,17.16187,97.00392
1580908697.111152,66,0,1580907286.99823,41.20781296037784,29.0754925099451,275.2123,0.1345286,-1,23.46983528137207,200,-9999,12412.882207125,0.9941253662109375,0.1132049560546875,-0.2388458251953125,12412.872167125,1.696771410292319,1.331332227118116,-0.1269155708549792,-0.03007757663726807,0.04236618429422379,-0.1322191506624222,0.04011654853820801,-0.01330317556858063,-0.009872317314147949,2,0.4953650382664394,-0.3701030647862633,-0.5629647276053971,-0.5483684036555121,0.963651716709137,0.1265751272439957,-0.2352744042873383,31.92320251464844,6.054092407226562,8.359832763671875,2,12412.533605125,2,0,1580908696.774771,1580903939.50652,2888,0.4940922,0,0,3442.589,14,15,1580908691.639452,12409.988446,0,17.16187,97.00392
1580908697.112557,67,0,1580907286.99823,41.20781296037784,29.0754925099451,275.2123,0.1345286,-1,23.46983528137207,200,-9999,12412.892278125,0.977874755859375,0.1274871826171875,-0.240386962890625,12412.882207125,1.696955055118623,1.331613565949695,-0.1285328344244254,-0.05493658781051636,0.02090483345091343,-0.1533036679029465,0.02903586626052856,-0.01628647744655609,-0.006424427032470703,2,0.4958738534292834,-0.3696374971141319,-0.5625853996320083,-0.5486118419480113,0.9635177850723267,0.1281792223453522,-0.2349544912576675,31.92320251464844,6.054092407226562,8.359832763671875,2,12412.533605125,2,0,1580908696.774771,1580903939.50652,2888,0.4940922,0,0,3442.589,14,15,1580908691.639452,12409.988446,0,17.16187,97.00392
1580908697.113597,68,0,1580907286.99823,41.20781296037784,29.0754925099451,275.2123,0.1345286,-1,23.46983528137207,200,-9999,12412.902318125,0.9875030517578125,0.1298675537109375,-0.2380828857421875,12412.892278125,1.697228236343688,1.331728397997386,-0.130246040404807,-0.06693039834499359,0.009981879964470863,-0.1563386023044586,0.01202774047851562,-0.004212960600852966,-0.008403778076171875,2,0.4963753123867534,-0.3690742459627059,-0.5622501308893313,-0.5488812352128601,0.9633300304412842,0.1298781037330627,-0.2347915023565292,31.70035552978516,6.172100067138672,8.32916259765625,2,12412.533605125,2,0,1580908696.774771,1580903939.50652,2888,0.4940922,0,0,3442.589,14,15,1580908691.639452,12409.988446,0,17.16187,97.00392
1580908697.114841,69,0,1580907286.99823,41.20781296037784,29.0754925099451,275.2123,0.1345286,-1,23.46983528137207,200,-9999,12412.912359125,1.013198852539062,0.1343231201171875,-0.23004150390625,12412.902318125,1.697503072114293,1.331392369038795,-0.132034491942938,-0.0701824352145195,-0.02242044918239117,-0.1700601279735565,0.01840770244598389,-0.002116888761520386,-0.006471574306488037,2,0.4967682123915244,-0.3683632389732168,-0.5620101328500753,-0.5492490559545844,0.963023841381073,0.1316511929035187,-0.2350597381591797,31.70035552978516,6.172100067138672,8.32916259765625,2,12412.533605125,2,0,1580908696.774771,1580903939.50652,2888,0.4940922,0,0,3442.589,14,15,1580908691.639452,12409.988446,0,17.16187,97.00392
1580908697.12433,70,0,1580907286.99823,41.20781296037784,29.0754925099451,275.2123,0.1345286,-1,23.46983528137207,200,-9999,12412.922399125,1.00177001953125,0.1431121826171875,-0.2218780517578125,12412.912359125,1.697737194352847,1.330472013300179,-0.1339663465116196,-0.06989321857690811,-0.08877634257078171,-0.1838338971138,0.04586780071258545,-0.0006818175315856934,0.002230286598205566,2,0.4970240006154983,-0.3674570125855722,-0.5618719417590143,-0.5497657661837108,0.9625582695007324,0.1335659921169281,-0.2358849793672562,31.94169616699219,6.188394546508789,8.33831787109375,2,12412.533605125,2,0,1580908696.774771,1580903939.50652,2888,0.4940922,0,0,3442.589,14,15,1580908691.639452,12409.988446,0,17.16187,97.00392
1580908697.134225,71,0,1580907286.99823,41.20781296037784,29.0754925099451,275.2123,0.1345286,-1,23.46983528137207,200,-9999,12412.932439125,0.9785919189453125,0.1404266357421875,-0.230865478515625,12412.922399125,1.697858551404771,1.328937243967215,-0.1360420277255635,-0.06156791001558304,-0.1530346870422363,-0.1996019333600998,0.03788328170776367,0.00679054856300354,0.01246517896652222,2,0.4971211819362226,-0.3663645405117963,-0.5618233030346076,-0.550456384506628,0.9619239568710327,0.1356227844953537,-0.2372951060533524,31.94169616699219,6.188394546508789,8.33831787109375,2,12412.533605125,2,0,1580908696.774771,1580903939.50652,2888,0.4940922,0,0,3442.589,14,15,1580908691.639452,12409.988446,0,17.16187,97.00392
1580908697.168528,72,0,1580907286.99823,41.20781296037784,29.0754925099451,275.2123,0.1345286,-1,23.46983528137207,200,-9999,12412.942480125,0.9557952880859375,0.139984130859375,-0.2481231689453125,12412.932439125,1.697889447719409,1.327154136852282,-0.1382293854580997,-0.05721690133213997,-0.1751327365636826,-0.2095501124858856,0.01665866374969482,0.002174317836761475,0.007018566131591797,2,0.4971591079480392,-0.3651902633524273,-0.561786380943603,-0.5512394624029068,0.9612089991569519,0.1377896070480347,-0.2389377802610397,31.71407318115234,6.121816635131836,8.37933349609375,2,12412.533605125,2,0,1580908696.774771,1580903939.50652,2888,0.4940922,0,0,3442.589,14,15,1580908691.639452,12409.988446,0,17.16187,97.00392
1580908697.170134,73,0,1580907286.99823,41.20781296037784,29.0754925099451,275.2123,0.1345286,-1,23.46983528137207,200,-9999,12412.952520125,0.90924072265625,0.12994384765625,-0.2584686279296875,12412.942480125,1.697888766085739,1.325522600559963,-0.1405047506813431,-0.05297421663999557,-0.1667184829711914,-0.2217663079500198,-0.005391955375671387,0.0001110732555389404,-0.009230673313140869,2,0.4972550654754495,-0.3640369492555124,-0.5616833304151291,-0.5520204008630218,0.9605113863945007,0.1400429159402847,-0.2404289990663528,31.71407318115234,6.121816635131836,8.37933349609375,2,12412.533605125,2,0,1580908696.774771,1580903939.50652,2888,0.4940922,0,0,3442.589,14,15,1580908691.639452,12409.988446,0,17.16187,97.00392
1580908697.171589,74,0,1580907286.99823,41.20781296037784,29.0754925099451,275.2123,0.1345286,-1,23.46983528137207,200,-9999,12412.962560125,0.8931732177734375,0.138458251953125,-0.26123046875,12412.952520125,1.698029010746236,1.32449392835628,-0.1427388202986588,-0.06890426576137543,-0.103539913892746,-0.2160650044679642,-0.0494072437286377,-0.01259158551692963,-0.0187840461730957,2,0.4975357869466422,-0.3630263775911819,-0.5614781798206633,-0.5526410415288053,0.9599575400352478,0.1422546058893204,-0.2413399815559387,31.89555358886719,6.257114410400391,8.398590087890625,2,12412.533605125,2,0,1580908696.774771,1580903939.50652,2888,0.4940922,0,0,3442.589,14,15,1580908691.639452,12409.988446,0,17.16187,97.00392
1580908697.174668,75,0,1580907286.99823,41.20781296037784,29.0754925099451,275.2123,0.1345286,-1,23.46983528137207,200,-9999,12412.972600125,0.928955078125,0.1396026611328125,-0.25714111328125,12412.962560125,1.698277952744119,1.324083308284817,-0.1448894379006537,-0.07644447684288025,-0.04132926464080811,-0.2033108621835709,-0.07168221473693848,-0.007434159517288208,-0.02288883924484253,2,0.4979888119810644,-0.3621846050601928,-0.5611678722553555,-0.5531005336811063,0.9595596194267273,0.1443830281496048,-0.2416589111089706,31.89555358886719,6.257114410400391,8.398590087890625,2,12412.533605125,2,0,1580908696.774771,1580903939.50652,2888,0.4940922,0,0,3442.589,14,15,1580908691.639452,12409.988446,0,17.16187,97.00392
1580908697.18438,76,0,1580907286.99823,41.20781296037784,29.0754925099451,275.2123,0.1345286,-1,23.46983528137207,200,-9999,12412.982671125,0.918426513671875,0.159149169921875,-0.2347564697265625,12412.972600125,1.698613604868553,1.323930270687222,-0.1470724590812851,-0.09287898987531662,-0.0212270263582468,-0.2082380652427673,-0.03698849678039551,-0.007313087582588196,-0.01844006776809692,2,0.4985370596742076,-0.3613816816251736,-0.560809697250345,-0.5534949916543983,0.9592147469520569,0.1465428322553635,-0.2417281568050385,31.80049133300781,6.580959320068359,8.172027587890625,2,12412.533605125,2,0,1580908696.774771,1580903939.50652,2888,0.4940922,0,0,3442.589,14,15,1580908691.639452,12409.988446,0,17.16187,97.00392
1580908697.194554,77,0,1580907286.99823,41.20781296037784,29.0754925099451,275.2123,0.1345286,-1,23.46983528137207,200,-9999,12412.992711125,0.865325927734375,0.16827392578125,-0.2283782958984375,12412.982671125,1.698833929116245,1.323698144834862,-0.1489903727483873,-0.06741650402545929,-0.03152946382761002,-0.1847180873155594,-0.03949517011642456,0.007491305470466614,0.001367092132568359,2,0.498977285872413,-0.3606672462223876,-0.5604983517023157,-0.5538794810344376,0.9588842391967773,0.1484397649765015,-0.2418816089630127,31.80049133300781,6.580959320068359,8.172027587890625,2,12412.533605125,2,0,1580908696.774771,1580903939.50652,2888,0.4940922,0,0,3442.589,14,15,1580908691.639452,12409.988446,0,17.16187,97.00392
1580908697.231727,78,0,1580907286.99823,41.20781296037784,29.0754925099451,275.2123,0.1345286,-1,23.46983528137207,200,-9999,12413.002752125,0.8346099853515625,0.1622314453125,-0.25030517578125,12412.992711125,1.699071228829189,1.323636350563432,-0.1503611656796263,-0.05578586831688881,-0.01561642438173294,-0.1274542212486267,-0.09157311916351318,0.01835313439369202,0.01243901252746582,2,0.4993351404086219,-0.3601652246765746,-0.5602717653073198,-0.5541128598606624,0.9586711525917053,0.1497952342033386,-0.2418908625841141,31.76590728759766,6.664987564086914,8.16949462890625,2,12412.533605125,2,0,1580908696.774771,1580903939.50652,2888,0.4940922,0,0,3442.589,14,15,1580908691.639452,12409.988446,0,17.16187,97.00392
1580908697.233308,79,0,1580907286.99823,41.20781296037784,29.0754925099451,275.2123,0.1345286,-1,23.46983528137207,200,-9999,12413.012792125,0.9048309326171875,0.1656951904296875,-0.236663818359375,12413.002752125,1.699283053877278,1.324151773803466,-0.1511834687317083,-0.04070518910884857,0.0513136088848114,-0.0740802139043808,-0.1283209919929504,0.01143366098403931,-0.0106549859046936,2,0.499716894518923,-0.3599996657626114,-0.5600169598383652,-0.5541338005614036,0.9586758613586426,0.1506082117557526,-0.2413665354251862,31.76590728759766,6.664987564086914,8.16949462890625,2,12412.533605125,2,0,1580908696.774771,1580903939.50652,2888,0.4940922,0,0,3442.589,14,15,1580908691.639452,12409.988446,0,17.16187,97.00392
1580908697.234701,80,0,1580907286.99823,41.20781296037784,29.0754925099451,275.2123,0.1345286,-1,23.46983528137207,200,-9999,12413.022832125,0.98309326171875,0.1656341552734375,-0.2184600830078125,12413.012792125,1.699421454602332,1.324513252505042,-0.1516343736063107,-0.02382322587072849,0.03598587960004807,-0.04047632962465286,-0.06779539585113525,0.01373282074928284,-0.0008571147918701172,2,0.4999521877171416,-0.3599251481550275,-0.5598636129006332,-0.5541249291142399,0.9586970806121826,0.1510539501905441,-0.2410033941268921,31.74774169921875,6.668601989746094,8.277374267578125,2,12412.533605125,2,0,1580908696.774771,1580903939.50652,2888,0.4940922,0,0,3442.589,14,15,1580908691.639452,12409.988446,0,17.16187,97.00392
1580908697.235824,81,0,1580907286.99823,41.20781296037784,29.0754925099451,275.2123,0.1345286,-1,23.46983528137207,200,-9999,12413.032873125,1.011184692382812,0.1699981689453125,-0.217498779296875,12413.022832125,1.699430876435494,1.324054410900618,-0.1519813488168833,-0.01122833788394928,-0.0444013737142086,-0.03179282695055008,0.01670205593109131,0.01338855922222137,0.01910275220870972,2,0.4999094260564857,-0.3596878393144978,-0.5599029158034616,-0.5542778845595335,0.9585354924201965,0.1513969451189041,-0.2414304465055466,31.74774169921875,6.668601989746094,8.277374267578125,2,12412.533605125,2,0,1580908696.774771,1580903939.50652,2888,0.4940922,0,0,3442.589,14,15,1580908691.639452,12409.988446,0,17.16187,97.00392
1580908697.244818,82,0,1580907286.99823,41.20781296037784,29.0754925099451,275.2123,0.1345286,-1,23.46983528137207,200,-9999,12413.042913125,0.9959564208984375,0.15850830078125,-0.2332000732421875,12413.032873125,1.69917807376131,1.322641904305093,-0.152434721521201,0.01441707368940115,-0.137518510222435,-0.05169231444597244,0.04755353927612305,0.01756222546100616,0.02277910709381104,2,0.4995782981770024,-0.3592184575763603,-0.560083845329904,-0.5546978136176621,0.9581268429756165,0.1518450677394867,-0.2427672445774078,31.72773742675781,6.856626510620117,8.240936279296875,2,12412.533605125,2,0,1580908696.774771,1580903939.50652,2888,0.4940922,0,0,3442.589,14,15,1580908691.639452,12409.988446,0,17.16187,97.00392
1580908697.25476,83,0,1580907286.99823,41.20781296037784,29.0754925099451,275.2123,0.1345286,-1,23.46983528137207,200,-9999,12413.052953125,0.9557037353515625,0.14501953125,-0.261993408203125,12413.042913125,1.69884946296305,1.320799990125513,-0.1531013672332859,0.01388071198016405,-0.1805866360664368,-0.07128305733203888,0.03942030668258667,0.007303118705749512,0.01128023862838745,2,0.4991649333812077,-0.3585820676597939,-0.5603027936637848,-0.5552603784454424,0.9575798511505127,0.1525039523839951,-0.2445065379142761,31.72773742675781,6.856626510620117,8.240936279296875,2,12412.533605125,2,0,1580908696.774771,1580903939.50652,2888,0.4940922,0,0,3442.589,14,15,1580908691.639452,12409.988446,0,17.16187,97.00392
1580908697.289309,84,0,1580907286.99823,41.20781296037784,29.0754925099451,275.2123,0.1345286,-1,23.46983528137207,200,-9999,12413.062993125,0.9505615234375,0.14398193359375,-0.2672882080078125,12413.052953125,1.698473855109509,1.319213680675169,-0.1540839318180635,0.01343889441341162,-0.1509067714214325,-0.1053507477045059,-0.003164589405059814,-0.0082436203956604,-0.01657587289810181,2,0.4988914689136085,-0.3579293160924562,-0.5603735232018592,-0.555855538835198,0.9570451378822327,0.1534749418497086,-0.2459878176450729,31.70451354980469,6.613594055175781,8.1988525390625,2,12412.533605125,2,0,1580908696.774771,1580903939.50652,2888,0.4940922,0,0,3442.589,14,15,1580908691.639452,12409.988446,0,17.16187,97.00392
1580908697.290626,85,0,1580907286.99823,41.20781296037784,29.0754925099451,275.2123,0.1345286,-1,23.46983528137207,200,-9999,12413.073064125,0.959564208984375,0.157958984375,-0.2532196044921875,12413.062993125,1.698073394424097,1.317966624838292,-0.1553498308251804,0.005373420193791389,-0.1193993389606476,-0.1305107921361923,-0.008617281913757324,-0.01224564015865326,-0.02333122491836548,2,0.4987775193445443,-0.3572881632990991,-0.5602887953352418,-0.5564553477277807,0.9565487504005432,0.1547257304191589,-0.2471323162317276,31.70451354980469,6.613594055175781,8.1988525390625,2,12412.533605125,2,0,1580908696.774771,1580903939.50652,2888,0.4940922,0,0,3442.589,14,15,1580908691.639452,12409.988446,0,17.16187,97.00392
1580908697.291481,86,0,1580907286.99823,41.20781296037784,29.0754925099451,275.2123,0.1345286,-1,23.46983528137207,200,-9999,12413.083105125,1.006362915039062,0.1597900390625,-0.2368011474609375,12413.073064125,1.697508899709643,1.316704424816328,-0.1569301091752799,0.01562363840639591,-0.112734742462635,-0.1675108075141907,-0.004295885562896729,0.0003324747085571289,-0.009608328342437744,2,0.4987065414895027,-0.3565850840243928,-0.5600912554148564,-0.557168504104001,0.9559983015060425,0.1562867760658264,-0.2482777237892151,31.74459838867188,6.818010330200195,8.111114501953125,2,12412.533605125,2,0,1580908696.774771,1580903939.50652,2888,0.4940922,0,0,3442.589,14,15,1580908691.639452,12409.988446,0,17.16187,97.00392
1580908697.295063,87,0,1580907286.99823,41.20781296037784,29.0754925099451,275.2123,0.1345286,-1,23.46983528137207,200,-9999,12413.093145125,0.96160888671875,0.163818359375,-0.24169921875,12413.083105125,1.696871517474171,1.314903425966348,-0.1586436840892086,0.01846682839095592,-0.170339435338974,-0.1805368661880493,0.04623579978942871,0.0009379982948303223,0.009247481822967529,2,0.4985045238073195,-0.3557074412613976,-0.5599772067469267,-0.5580242110107951,0.9552890658378601,0.1579790711402893,-0.2499309182167053,31.74459838867188,6.818010330200195,8.111114501953125,2,12412.533605125,2,0,1580908696.774771,1580903939.50652,2888,0.4940922,0,0,3442.589,14,15,1580908691.639452,12409.988446,0,17.16187,97.00392
1580908697.305115,88,0,1580907286.99823,41.20781296037784,29.0754925099451,275.2123,0.1345286,-1,23.46983528137207,200,-9999,12413.103185125,0.9245758056640625,0.1672515869140625,-0.2439727783203125,12413.093145125,1.696156572907604,1.312879417860717,-0.1602966495601219,0.02646541781723499,-0.1884308159351349,-0.1749446988105774,0.009722888469696045,0.003251999616622925,0.008602678775787354,2,0.4982121408332466,-0.3548044394152253,-0.5599100662504541,-0.5589267792286706,0.9545273780822754,0.1596110612154007,-0.2517969310283661,31.82006072998047,6.960168838500977,7.947662353515625,2,12412.533605125,2,0,1580908696.774771,1580903939.50652,2888,0.4940922,0,0,3442.589,14,15,1580908691.639452,12409.988446,0,17.16187,97.00392
1580908697.314989,89,0,1580907286.99823,41.20781296037784,29.0754925099451,275.2123,0.1345286,-1,23.46983528137207,200,-9999,12413.113225125,0.8496246337890625,0.15582275390625,-0.2656707763671875,12413.103185125,1.695473566677437,1.310741481936204,-0.161748822730178,0.02784120850265026,-0.2097062766551971,-0.1596163362264633,-0.02986818552017212,0.005704313516616821,0.006897807121276855,2,0.4978452838646218,-0.3539229407487181,-0.5599247574455195,-0.5597972896306807,0.9537619948387146,0.1610444486141205,-0.2537772655487061,31.82006072998047,6.960168838500977,7.947662353515625,2,12412.533605125,2,0,1580908696.774771,1580903939.50652,2888,0.4940922,0,0,3442.589,14,15,1580908691.639452,12409.988446,0,17.16187,97.00392
1580908697.348768,90,0,1580907286.99823,41.20781296037784,29.0754925099451,275.2123,0.1345286,-1,23.46983528137207,200,-9999,12413.123266125,0.781219482421875,0.148590087890625,-0.29815673828125,12413.113225125,1.69509664239304,1.309311509204284,-0.1627246165513174,0.009246138855814934,-0.1437682509422302,-0.1022965759038925,-0.09586334228515625,-0.005073681473731995,-0.00898665189743042,2,0.4976154792830965,-0.3533111964427803,-0.5599554897803661,-0.5603568810119235,0.9532457590103149,0.1620074212551117,-0.2551000714302063,31.76144409179688,7.051490783691406,8.04052734375,2,12412.533605125,2,0,1580908696.774771,1580903939.50652,2888,0.4940922,0,0,3442.589,14,15,1580908691.639452,12409.988446,0,17.16187,97.00392
1580908697.350179,91,0,1580907286.99823,41.20781296037784,29.0754925099451,275.2123,0.1345286,-1,23.46983528137207,200,-9999,12413.133306125,0.837890625,0.157440185546875,-0.276153564453125,12413.123266125,1.695017078634071,1.309188384793927,-0.1631595442493547,-0.003183898981660604,-0.006548600271344185,-0.04290621727705002,-0.1752157807350159,-0.01491907238960266,-0.04497402906417847,2,0.4976726371955483,-0.3531605004581886,-0.5598660090457488,-0.5604906445416786,0.9531462788581848,0.1624365895986557,-0.2551992237567902,31.76144409179688,7.051490783691406,8.04052734375,2,12412.533605125,2,0,1580908696.774771,1580903939.50652,2888,0.4940922,0,0,3442.589,14,15,1580908691.639452,12409.988446,0,17.16187,97.00392
1580908697.351123,92,0,1580907286.99823,41.20781296037784,29.0754925099451,275.2123,0.1345286,-1,23.46983528137207,200,-9999,12413.143346125,0.91973876953125,0.174713134765625,-0.2470703125,12413.133306125,1.695148396107747,1.309651876823598,-0.1631914890424458,-0.01555428095161915,0.04992422088980675,0.0008221874013543129,-0.1268064975738525,-0.0069398432970047,-0.02745932340621948,2,0.4978333483344837,-0.3532476890816505,-0.5597802411876811,-0.5603785584076373,0.9532594084739685,0.1624681204557419,-0.2547560632228851,31.83666229248047,7.249944686889648,7.928375244140625,2,12412.533605125,2,0,1580908696.774771,1580903939.50652,2888,0.4940922,0,0,3442.589,14,15,1580908691.639452,12409.988446,0,17.16187,97.00392
1580908697.355335,93,0,1580907286.99823,41.20781296037784,29.0754925099451,275.2123,0.1345286,-1,23.46983528137207,200,-9999,12413.153387125,0.955413818359375,0.1797943115234375,-0.238250732421875,12413.143346125,1.695235373176894,1.309827083755889,-0.1629690137308291,-0.001869095955044031,0.01851596683263779,0.02380499988794327,-0.04467201232910156,0.01029404997825623,0.002274274826049805,2,0.4978437107135899,-0.3533446881416411,-0.5598110553126445,-0.5602773571103778,0.9533388614654541,0.1622485965490341,-0.2545983493328094,31.83666229248047,7.249944686889648,7.928375244140625,2,12412.533605125,2,0,1580908696.774771,1580903939.50652,2888,0.4940922,0,0,3442.589,14,15,1580908691.639452,12409.988446,0,17.16187,97.00392
1580908697.365276,94,0,1580907286.99823,41.20781296037784,29.0754925099451,275.2123,0.1345286,-1,23.46983528137207,200,-9999,12413.163457125,0.9595489501953125,0.1630096435546875,-0.263427734375,12413.153387125,1.695236917911685,1.309611735637038,-0.162667078794918,0.007369051687419415,-0.02573922090232372,0.03104349598288536,-0.001268446445465088,0.01796309649944305,0.01502054929733276,2,0.4977103143450172,-0.3533784087888034,-0.5599330486284405,-0.5602527547028051,0.9533313512802124,0.1619506478309631,-0.2548162937164307,31.66241455078125,6.901214599609375,7.80389404296875,2,12412.533605125,2,0,1580908696.774771,1580903939.50652,2888,0.4940922,0,0,3442.589,14,15,1580908691.639452,12409.988446,0,17.16187,97.00392
1580908697.375476,95,0,1580907286.99823,41.20781296037784,29.0754925099451,275.2123,0.1345286,-1,23.46983528137207,200,-9999,12413.173498125,1.002899169921875,0.1594390869140625,-0.257659912109375,12413.163457125,1.695116540199028,1.309393871954571,-0.1625495110501879,0.01631194725632668,-0.01600909605622292,0.00688170175999403,-0.0008650422096252441,0.002073034644126892,-0.009210646152496338,2,0.4975994444172613,-0.3533841172060482,-0.5599800186883082,-0.5603007884570235,0.9532942771911621,0.1618346273899078,-0.2550289034843445,31.66241455078125,6.901214599609375,7.80389404296875,2,12412.533605125,2,0,1580908696.774771,1580903939.50652,2888,0.4940922,0,0,3442.589,14,15,1580908691.639452,12409.988446,0,17.16187,97.00392
1580908697.409017,96,0,1580907286.99823,41.20781296037784,29.0754925099451,275.2123,0.1345286,-1,23.46983528137207,200,-9999,12413.183538125,0.9498138427734375,0.161651611328125,-0.256927490234375,12413.173498125,1.694990016093772,1.308801896625144,-0.1626817804595782,0.006444824859499931,-0.0624505914747715,-0.01591023616492748,0.04491585493087769,-0.003581687808036804,-0.006681680679321289,2,0.4974435404369937,-0.3532083193239322,-0.5600620193665249,-0.5604679136452561,0.9531223177909851,0.1619651615619659,-0.2555876076221466,31.78821563720703,7.026138305664062,7.71759033203125,2,12412.533605125,2,0,1580908696.774771,1580903939.50652,2888,0.4940922,0,0,3442.589,14,15,1580908691.639452,12409.988446,0,17.16187,97.00392
1580908697.410316,97,0,1580907286.99823,41.20781296037784,29.0754925099451,275.2123,0.1345286,-1,23.46983528137207,200,-9999,12413.193578125,0.8995361328125,0.1632080078125,-0.2665557861328125,12413.183538125,1.69482690396096,1.30820442256,-0.1629276512891814,0.008078942075371742,-0.05765477195382118,-0.02920393832027912,0.00183403491973877,-0.001276999711990356,-0.002107501029968262,2,0.4973072293797259,-0.3530045034602782,-0.5601095717732822,-0.560669689213269,0.9529309272766113,0.1622077822685242,-0.2561466693878174,31.78821563720703,7.026138305664062,7.71759033203125,2,12412.533605125,2,0,1580908696.774771,1580903939.50652,2888,0.4940922,0,0,3442.589,14,15,1580908691.639452,12409.988446,0,17.16187,97.00392
1580908697.411264,98,0,1580907286.99823,41.20781296037784,29.0754925099451,275.2123,0.1345286,-1,23.46983528137207,200,-9999,12413.203618125,0.8867340087890625,0.1535797119140625,-0.275054931640625,12413.193578125,1.694682767633503,1.307877814897245,-0.1631204430703175,0.01095689367502928,-0.02935878187417984,-0.02364353090524673,-0.05574512481689453,0.0006530731916427612,-0.01246911287307739,2,0.497237204017359,-0.3528884698055961,-0.5601070245897823,-0.5608074271803287,0.9528170228004456,0.1623980104923248,-0.2564497888088226,31.80705261230469,7.119436264038086,7.76751708984375,2,12412.533605125,2,0,1580908696.774771,1580903939.50652,2888,0.4940922,0,0,3442.589,14,15,1580908691.639452,12409.988446,0,17.16187,97.00392
1580908697.415474,99,0,1580907286.99823,41.20781296037784,29.0754925099451,275.2123,0.1345286,-1,23.46983528137207,200,-9999,12413.213659125,0.8378753662109375,0.150177001953125,-0.289581298828125,12413.203618125,1.69475967929799,1.308150740696966,-0.1631554243355045,-0.0084956344217062,0.02803633362054825,-0.0001264866441488266,-0.06552970409393311,-0.008567407727241516,-0.02022373676300049,2,0.4973357014743899,-0.3529349381472827,-0.5600528750955717,-0.5607449669375801,0.9528815746307373,0.162432536482811,-0.2561882734298706,31.80705261230469,7.119436264038086,7.76751708984375,2,12412.533605125,2,0,1580908696.774771,1580903939.50652,2888,0.4940922,0,0,3442.589,14,15,1580908691.639452,12409.988446,0,17.16187,97.00392
1580908697.425489,100,0,1580907286.99823,41.20781296037784,29.0754925099451,275.2123,0.1345286,-1,23.46983528137207,200,-9999,12413.223699125,0.863616943359375,0.164703369140625,-0.2676849365234375,12413.213659125,1.694988354887712,1.309497669513906,-0.162963947400415,-0.01821031421422958,0.1412736773490906,0.02547501400113106,-0.1166254878044128,-0.01309272646903992,-0.03693079948425293,2,0.4977066456019265,-0.3533154504605605,-0.5598249622114488,-0.5604036178758136,0.9532557129859924,0.162243589758873,-0.2549125850200653,31.69158935546875,6.992731094360352,7.75164794921875,2,12412.533605125,2,0,1580908696.774771,1580903939.50652,2888,0.4940922,0,0,3442.589,14,15,1580908691.639452,12409.988446,0,17.16187,97.00392
1580908697.435544,101,0,1580907286.99823,41.20781296037784,29.0754925099451,275.2123,0.1345286,-1,23.46983528137207,200,-9999,12413.233739125,0.88262939453125,0.1668853759765625,-0.2524261474609375,12413.223699125,1.695289418374301,1.311320566735239,-0.1625427207877922,-0.01840167492628098,0.1761660426855087,0.04873017594218254,-0.09797626733779907,0.0009353309869766235,-0.02097272872924805,2,0.498167634561171,-0.3538827595019693,-0.5595502997781958,-0.5599102609684081,0.9537848830223083,0.1618279367685318,-0.2531920075416565,31.69158935546875,6.992731094360352,7.75164794921875,2,12412.533605125,2,0,1580908696.774771,1580903939.50652,2888,0.4940922,0,0,3442.589,14,15,1580908691.639452,12409.988446,0,17.16187,97.00392
1580908697.471664,102,0,1580907286.99823,41.20781296037784,29.0754925099451,275.2123,0.1345286,-1,23.46983528137207,200,-9999,12413.243780125,0.9031219482421875,0.16302490234375,-0.2589874267578125,12413.233739125,1.695625338871454,1.313430544613217,-0.1619450041069203,-0.01649819873273373,0.2059954702854156,0.06544434279203415,-0.07617360353469849,0.00534212589263916,-0.003238797187805176,2,0.4986722054366728,-0.3545761658652704,-0.5592531018884175,-0.5593190279312581,0.9544103741645813,0.1612380594015121,-0.2512035369873047,31.73640441894531,7.010185241699219,7.9327392578125,2,12412.533605125,2,0,1580908696.774771,1580903939.50652,2888,0.4940922,0,0,3442.589,14,15,1580908691.639452,12409.988446,0,17.16187,97.00392
1580908697.472955,103,0,1580907286.99823,41.20781296037784,29.0754925099451,275.2123,0.1345286,-1,23.46983528137207,200,-9999,12413.253850125,0.9480133056640625,0.16375732421875,-0.2523040771484375,12413.243780125,1.695975875617027,1.315739767112019,-0.1612016870547435,-0.0153660885989666,0.2280973047018051,0.08052715659141541,-0.05863523483276367,0.002095878124237061,-0.01309645175933838,2,0.4991996637733266,-0.3553661949797958,-0.5589425681939414,-0.5586572441475914,0.9551036953926086,0.1605044305324554,-0.249029129743576,31.73640441894531,7.010185241699219,7.9327392578125,2,12412.533605125,2,0,1580908696.774771,1580903939.50652,2888,0.4940922,0,0,3442.589,14,15,1580908691.639452,12409.988446,0,17.16187,97.00392
1580908697.473962,104,0,1580907286.99823,41.20781296037784,29.0754925099451,275.2123,0.1345286,-1,23.46983528137207,200,-9999,12413.263891125,0.96429443359375,0.1590576171875,-0.2485198974609375,12413.253850125,1.696320019664582,1.317982751950163,-0.1604305684012457,-0.01266845315694809,0.2182186841964722,0.08325536549091339,-0.01587158441543579,0.003821179270744324,-0.008700788021087646,2,0.4997007583056706,-0.3561469010099939,-0.5586523765471298,-0.5580018408370873,0.9557793140411377,0.1597432643175125,-0.2469170689582825,31.55576324462891,7.009838104248047,7.991058349609375,2,12412.533605125,2,0,1580908696.774771,1580903939.50652,2888,0.4940922,0,0,3442.589,14,15,1580908691.639452,12409.988446,0,17.16187,97.00392
1580908697.475729,105,0,1580907286.99823,41.20781296037784,29.0754925099451,275.2123,0.1345286,-1,23.46983528137207,200,-9999,12413.273931125,0.9450531005859375,0.1615753173828125,-0.2469940185546875,12413.263891125,1.696681643737658,1.320082796567519,-0.1597283845528325,-0.01852048374712467,0.2024024426937103,0.07676603645086288,0.005656778812408447,-0.0003354102373123169,-0.006598889827728271,2,0.5001816680393922,-0.356860944952114,-0.5583867265341296,-0.5573803679227683,0.9564041495323181,0.1590500473976135,-0.2449371367692947,31.55576324462891,7.009838104248047,7.991058349609375,2,12412.533605125,2,0,1580908696.774771,1580903939.50652,2888,0.4940922,0,0,3442.589,14,15,1580908691.639452,12409.988446,0,17.16187,97.00392
1580908697.485838,106,0,1580907286.99823,41.20781296037784,29.0754925099451,275.2123,0.1345286,-1,23.46983528137207,200,-9999,12413.283971125,0.9712066650390625,0.1606597900390625,-0.237548828125,12413.273931125,1.696992871904011,1.322083452572783,-0.1590429949854788,-0.01228300388902426,0.1986577063798904,0.07589330524206161,-0.01514160633087158,0.002037510275840759,-0.00708925724029541,2,0.5006299139457884,-0.3575537776445165,-0.558127568284402,-0.5567931297219381,0.9569976925849915,0.1583733558654785,-0.2430499643087387,31.57026672363281,6.910581588745117,8.169281005859375,2,12412.533605125,2,0,1580908696.774771,1580903939.50652,2888,0.4940922,0,0,3442.589,14,15,1580908691.639452,12409.988446,0,17.16187,97.00392
1580908697.495892,107,0,1580907286.99823,41.20781296037784,29.0754925099451,275.2123,0.1345286,-1,23.46983528137207,200,-9999,12413.294012125,0.986785888671875,0.162872314453125,-0.225494384765625,12413.283971125,1.697251843654409,1.323695440819093,-0.1584586170932985,-0.01293414644896984,0.1615782529115677,0.06304275244474411,0.006501555442810059,0.003043904900550842,-2.455711364746094e-05,2,0.5009847096450366,-0.3581194106524196,-0.5579280289074696,-0.5563104280076681,0.9574779272079468,0.157796323299408,-0.2415296137332916,31.57026672363281,6.910581588745117,8.169281005859375,2,12412.533605125,2,0,1580908696.774771,1580903939.50652,2888,0.4940922,0,0,3442.589,14,15,1580908691.639452,12409.988446,0,17.16187,97.00392
1580908697.528471,108,0,1580907286.99823,41.20781296037784,29.0754925099451,275.2123,0.1345286,-1,23.46983528137207,200,-9999,12413.304052125,0.9656524658203125,0.1676177978515625,-0.2253570556640625,12413.294012125,1.697411529715137,1.32463590092632,-0.1579382885894002,-0.002626027446240187,0.09651365876197815,0.05376364290714264,0.02619856595993042,0.00395636260509491,0.01140540838241577,2,0.50114996845293,-0.3585027411488207,-0.5578543278381572,-0.5559883649217532,0.9577840566635132,0.1572824865579605,-0.2406489849090576,31.54280853271484,6.824514389038086,8.3551025390625,2,12412.533605125,2,0,1580908696.774771,1580903939.50652,2888,0.4940922,0,0,3442.589,14,15,1580908691.639452,12409.988446,0,17.16187,97.00392
1580908697.529699,109,0,1580907286.99823,41.20781296037784,29.0754925099451,275.2123,0.1345286,-1,23.46983528137207,200,-9999,12413.314092125,0.9085235595703125,0.1518096923828125,-0.251617431640625,12413.304052125,1.697562277294495,1.325128689918237,-0.1573932881185419,0.0005671028047800064,0.04464460164308548,0.05620576068758965,0.00748741626739502,0.01104259490966797,0.01327186822891235,2,0.5011827682145098,-0.3587714185247154,-0.5578958960900099,-0.5557438229605214,0.9579856395721436,0.1567442566156387,-0.2401978075504303,31.72744750976562,6.730379104614258,8.31378173828125,2,12412.533605125,2,0,1580908696.774771,1580903939.50652,2888,0.4940922,0,0,3442.589,14,15,1580908691.639452,12409.988446,0,17.16187,97.00392
1580908697.530748,110,0,1580907286.99823,41.20781296037784,29.0754925099451,275.2123,0.1345286,-1,23.46983528137207,200,-9999,12413.324132125,0.8511962890625,0.144195556640625,-0.274169921875,12413.314092125,1.697879152501578,1.326050123386513,-0.1566833430383748,-0.01208439189940691,0.08353491127490997,0.07753518968820572,-0.04594308137893677,-0.003115668892860413,-0.0118945837020874,2,0.5013252434599152,-0.3591685905499105,-0.5579132906944562,-0.555340978644423,0.9583141207695007,0.1560430377721786,-0.2393418550491333,31.72744750976562,6.730379104614258,8.31378173828125,2,12412.533605125,2,0,1580908696.774771,1580903939.50652,2888,0.4940922,0,0,3442.589,14,15,1580908691.639452,12409.988446,0,17.16187,97.00392
1580908697.535996,111,0,1580907286.99823,41.20781296037784,29.0754925099451,275.2123,0.1345286,-1,23.46983528137207,200,-9999,12413.334173125,0.8637237548828125,0.148284912109375,-0.263397216796875,12413.324132125,1.698423075889703,1.328031796585738,-0.1557109829445689,-0.02860983833670616,0.1934962868690491,0.107102669775486,-0.1087746620178223,-0.01148994266986847,-0.03872781991958618,2,0.5017409607310442,-0.3598842197389338,-0.5577870059420492,-0.5546288283670188,0.9589335322380066,0.1550825238227844,-0.2374787181615829,31.77030944824219,6.90638542175293,8.561614990234375,2,12412.533605125,2,0,1580908696.774771,1580903939.50652,2888,0.4940922,0,0,3442.589,14,15,1580908691.639452,12409.988446,0,17.16187,97.00392
1580908697.546001,112,0,1580907286.99823,41.20781296037784,29.0754925099451,275.2123,0.1345286,-1,23.46983528137207,200,-9999,12413.344243125,0.900848388671875,0.1538238525390625,-0.2442626953125,12413.334173125,1.699168603535333,1.33084701922435,-0.1544705036621534,-0.04359248280525208,0.2717179358005524,0.1386660039424896,-0.1026400923728943,-0.006506174802780151,-0.03333604335784912,2,0.5023611199743413,-0.3608621098755246,-0.5575671624815239,-0.5536521760640996,0.9597843289375305,0.1538569331169128,-0.2348236888647079,31.77030944824219,6.90638542175293,8.561614990234375,2,12412.533605125,2,0,1580908696.774771,1580903939.50652,2888,0.4940922,0,0,3442.589,14,15,1580908691.639452,12410.932464,0,17.18829,97.0036
1580908697.556106,113,0,1580907286.99823,41.20781296037784,29.0754925099451,275.2123,0.1345286,-1,23.46983528137207,200,-9999,12413.354284125,0.92706298828125,0.159698486328125,-0.2261962890625,12413.344243125,1.699989942277843,1.333992318942091,-0.1530265173717148,-0.04354880750179291,0.3039166033267975,0.1571454107761383,-0.06764274835586548,0.0001598000526428223,-0.01713478565216064,2,0.5030383403468073,-0.3619732339905607,-0.5573301837835689,-0.552549527341707,0.96073317527771,0.1524299830198288,-0.2318556159734726,31.70668792724609,6.874580383300781,8.59918212890625,2,12412.533605125,2,0,1580908696.774771,1580903939.50652,2888,0.4940922,0,0,3442.589,14,15,1580908691.639452,12410.932464,0,17.18829,97.0036
1580908697.592421,114,0,1580907286.99823,41.20781296037784,29.0754925099451,275.2123,0.1345286,-1,23.46983528137207,200,-9999,12413.364324125,0.9469757080078125,0.1600341796875,-0.224884033203125,12413.354284125,1.700850573611134,1.337056615633111,-0.1514265337146069,-0.04745126515626907,0.2918506562709808,0.1757641583681107,-0.03924560546875,0.007850602269172668,-0.001342415809631348,2,0.5036631772045694,-0.3630978333799592,-0.5571582847570619,-0.5514145687536617,0.9616751074790955,0.1508484929800034,-0.2289667278528214,31.70668792724609,6.874580383300781,8.59918212890625,2,12412.533605125,2,0,1580908696.774771,1580903939.50652,2888,0.4940922,0,0,3442.589,14,15,1580908691.639452,12410.932464,0,17.18829,97.0036
1580908697.593648,115,0,1580907286.99823,41.20781296037784,29.0754925099451,275.2123,0.1345286,-1,23.46983528137207,200,-9999,12413.374364125,0.976776123046875,0.1580657958984375,-0.21270751953125,12413.364324125,1.701543103982826,1.339946583630199,-0.1498048452090982,-0.02732415497303009,0.283128023147583,0.1716578304767609,-0.02317559719085693,0.01055850088596344,-0.001253902912139893,2,0.5042042568775893,-0.3642209981308036,-0.5569876868115551,-0.5503507567817267,0.9625697135925293,0.1492451727390289,-0.226242259144783,31.62836456298828,6.747627258300781,8.780181884765625,2,12412.533605125,2,0,1580908696.774771,1580903939.50652,2888,0.4940922,0,0,3442.589,14,15,1580908691.639452,12410.932464,0,17.18829,97.0036
1580908697.5947,116,0,1580907286.99823,41.20781296037784,29.0754925099451,275.2123,0.1345286,-1,23.46983528137207,200,-9999,12413.384405125,0.9526824951171875,0.1584320068359375,-0.2154998779296875,12413.374364125,1.702113270604141,1.342367438915699,-0.1482024836015314,-0.02051886916160583,0.2318298518657684,0.1691692769527435,0.009721100330352783,0.009783849120140076,0.006729722023010254,2,0.5045975553955244,-0.3652378621835061,-0.556896371439438,-0.549407972925727,0.9633463025093079,0.1476605534553528,-0.2239652276039124,31.62836456298828,6.747627258300781,8.780181884765625,2,12412.533605125,2,0,1580908696.774771,1580903939.50652,2888,0.4940922,0,0,3442.589,14,15,1580908691.639452,12410.932464,0,17.18829,97.0036
1580908697.596319,117,0,1580907286.99823,41.20781296037784,29.0754925099451,275.2123,0.1345286,-1,23.46983528137207,200,-9999,12413.394445125,0.9309844970703125,0.140472412109375,-0.2428741455078125,12413.384405125,1.702574222048403,1.344671648198964,-0.1466319120557232,-0.007788692135363817,0.2186706364154816,0.165139377117157,-0.01154327392578125,0.01280796527862549,0.005773663520812988,2,0.5049464348694983,-0.3662387171267002,-0.5567966372904155,-0.5485215433156237,0.9640846252441406,0.146107017993927,-0.2217966020107269,31.48740386962891,6.603353500366211,8.920318603515625,2,12412.533605125,2,0,1580908696.774771,1580903939.50652,2888,0.4940922,0,0,3442.589,14,15,1580908691.639452,12410.932464,0,17.18829,97.0036
1580908697.60668,118,0,1580907286.99823,41.20781296037784,29.0754925099451,275.2123,0.1345286,-1,23.46983528137207,200,-9999,12413.404485125,0.94171142578125,0.1339569091796875,-0.2436676025390625,12413.394445125,1.703022952921222,1.3475143583097,-0.1451387436606685,-0.01029543299227953,0.2812505066394806,0.1564495116472244,-0.03660023212432861,-0.003012746572494507,-0.02459383010864258,2,0.5054618354344881,-0.3673646115548536,-0.556539362811559,-0.5475541483598768,0.9649228453636169,0.1446297168731689,-0.2191031575202942,31.48740386962891,6.603353500366211,8.920318603515625,2,12412.533605125,2,0,1580908696.774771,1580903939.50652,2888,0.4940922,0,0,3442.589,14,15,1580908691.639452,12410.932464,0,17.18829,97.0036
1580908697.616458,119,0,1580907286.99823,41.20781296037784,29.0754925099451,275.2123,0.1345286,-1,23.46983528137207,200,-9999,12413.414525125,0.986419677734375,0.14013671875,-0.224700927734375,12413.404485125,1.703478860510742,1.350818718348407,-0.1438115754327939,-0.01448991149663925,0.3320473730564117,0.1398710757493973,-0.03058135509490967,-0.01040731370449066,-0.03217846155166626,2,0.5061468672983371,-0.3685617228624483,-0.556128854103927,-0.5465330596428271,0.9658280611038208,0.1433163732290268,-0.2159552127122879,31.63651275634766,6.289541244506836,9.00146484375,2,12412.533605125,2,0,1580908696.774771,1580903939.50652,2888,0.4940922,0,0,3442.589,14,15,1580908691.639452,12410.932464,0,17.18829,97.0036
1580908697.647694,120,0,1580907286.99823,41.20781296037784,29.0754925099451,275.2123,0.1345286,-1,23.46983528137207,200,-9999,12413.424566125,1.035537719726562,0.141571044921875,-0.2111663818359375,12413.414525125,1.703964949725248,1.35403578839504,-0.1427360432074573,-0.02399840019643307,0.322245866060257,0.1200415045022964,0.01091897487640381,-0.003098025918006897,-0.01623731851577759,2,0.5068733563899248,-0.3696476653889897,-0.5556905356708822,-0.5455714668330748,0.9666678905487061,0.1422518640756607,-0.21288001537323,31.63651275634766,6.289541244506836,9.00146484375,2,12412.533605125,2,0,1580908696.774771,1580903939.50652,2888,0.4940922,0,0,3442.589,14,15,1580908691.639452,12410.932464,0,17.18829,97.0036
1580908697.648941,121,0,1580907286.99823,41.20781296037784,29.0754925099451,275.2123,0.1345286,-1,23.46983528137207,200,-9999,12413.434637125,1.029067993164062,0.1450653076171875,-0.19097900390625,12413.424566125,1.704389100433146,1.356582984251064,-0.142008801921598,-0.0239078514277935,0.252384752035141,0.08145362883806229,0.06140875816345215,-0.0002545267343521118,-0.005534529685974121,2,0.5074855437360757,-0.3704577695102491,-0.5553250435761655,-0.5448243209808507,0.9673076868057251,0.1415319740772247,-0.2104389220476151,31.65425872802734,6.194082260131836,9.234588623046875,2,12413.425146125,4,2,1580908697.666312,1580903939.50652,2888,0.4940922,0,0,3442.589,14,15,1580908691.639452,12410.932464,0,17.18829,97.0036
1580908697.649914,122,0,1580907286.99823,41.20781296037784,29.0754925099451,275.2123,0.1345286,-1,23.46983528137207,200,-9999,12413.444677125,0.9910125732421875,0.1489410400390625,-0.1950836181640625,12413.434637125,1.704787631184463,1.358280386872591,-0.1415745779970487,-0.03179152309894562,0.1632786989212036,0.0509285181760788,0.06088459491729736,0.002923458814620972,0.01393300294876099,2,0.507926949042356,-0.3709520092326677,-0.5551011476815364,-0.5443045368017754,0.9677233695983887,0.1411021202802658,-0.2088096439838409,31.65425872802734,6.194082260131836,9.234588623046875,2,12413.425146125,4,2,1580908697.666312,1580903939.50652,2888,0.4940922,0,0,3442.589,14,15,1580908691.639452,12410.932464,0,17.18829,97.0036
1580908697.656462,123,0,1580907286.99823,41.20781296037784,29.0754925099451,275.2123,0.1345286,-1,23.46983528137207,200,-9999,12413.454717125,0.945404052734375,0.1418914794921875,-0.2078399658203125,12413.444677125,1.705074610348789,1.359352076328939,-0.141291132578189,-0.01981901749968529,0.1017764508724213,0.03414794057607651,0.02360355854034424,0.007355481386184692,0.01059639453887939,2,0.5082099499392231,-0.3712576396452228,-0.5549713284812384,-0.5439643489289564,0.9679857492446899,0.1408215016126633,-0.2077808231115341,31.51203918457031,6.184814453125,9.359375,2,12413.425146125,4,2,1580908697.666312,1580903939.50652,2888,0.4940922,0,0,3442.589,14,15,1580908691.639452,12410.932464,0,17.18829,97.0036
1580908697.666872,124,0,1580907286.99823,41.20781296037784,29.0754925099451,275.2123,0.1345286,-1,23.46983528137207,200,-9999,12413.464757125,0.9199676513671875,0.1306610107421875,-0.23187255859375,12413.454717125,1.705415707874248,1.360454087451051,-0.1410482273253682,-0.02840927243232727,0.09925149381160736,0.03382838144898415,-0.02156591415405273,0.002225816249847412,-0.001957058906555176,2,0.5085211094029275,-0.3715450555773245,-0.5548391031995715,-0.5436121037083841,0.9682475924491882,0.1405810117721558,-0.2067211121320724,31.51203918457031,6.184814453125,9.359375,2,12413.425146125,4,2,1580908697.666312,1580903939.50652,2888,0.4940922,0,0,3442.589,14,15,1580908691.639452,12410.932464,0,17.18829,97.0036
1580908697.676609,125,0,1580907286.99823,41.20781296037784,29.0754925099451,275.2123,0.1345286,-1,23.46983528137207,200,-9999,12413.474798125,0.9571533203125,0.1347503662109375,-0.21697998046875,12413.464757125,1.70580557525426,1.362154384761615,-0.1409032950464354,-0.03308897837996483,0.1704489588737488,0.0238170251250267,-0.05315673351287842,-0.009730368852615356,-0.02827894687652588,2,0.5090306025040628,-0.3719522621934311,-0.5545454116783199,-0.5431562982683411,0.9686176180839539,0.140437513589859,-0.2050787210464478,31.36775207519531,6.070285797119141,9.5108642578125,2,12413.425146125,4,2,1580908697.666312,1580903939.50652,2888,0.4940922,0,0,3442.589,14,15,1580908691.639452,12410.932464,0,17.18829,97.0036
1580908697.708219,126,0,1580907286.99823,41.20781296037784,29.0754925099451,275.2123,0.1345286,-1,23.46983528137207,200,-9999,12413.484838125,0.9765625,0.1512451171875,-0.1886444091796875,12413.474798125,1.706205614108533,1.363867526913674,-0.1408410352520991,-0.03833004832267761,0.1708055734634399,0.01561824791133404,-0.01919960975646973,-0.007318690419197083,-0.01981121301651001,2,0.5095650814575334,-0.3723345357186458,-0.5542319171489209,-0.5427130497992378,0.9689760804176331,0.1403758674860001,-0.2034208476543427,31.36775207519531,6.070285797119141,9.5108642578125,2,12413.425146125,4,2,1580908697.666312,1580903939.50652,2888,0.4940922,0,0,3442.589,14,15,1580908691.639452,12410.932464,0,17.18829,97.0036
1580908697.709455,127,0,1580907286.99823,41.20781296037784,29.0754925099451,275.2123,0.1345286,-1,23.46983528137207,200,-9999,12413.494878125,0.98004150390625,0.1640777587890625,-0.1716461181640625,12413.484838125,1.706426667636799,1.364946435448136,-0.1408215328915999,-0.02154920622706413,0.1113281324505806,0.004463066346943378,0.002657413482666016,0.008478298783302307,0.008497953414916992,2,0.5099005038583886,-0.3725768939003911,-0.5540213808802139,-0.5424467016339654,0.9691977500915527,0.1403565555810928,-0.2023758739233017,31.37638854980469,6.360580444335938,9.484405517578125,2,12413.425146125,4,2,1580908697.666312,1580903939.50652,2888,0.4940922,0,0,3442.589,14,15,1580908691.639452,12410.932464,0,17.18829,97.0036
1580908697.71039,128,0,1580907286.99823,41.20781296037784,29.0754925099451,275.2123,0.1345286,-1,23.46983528137207,200,-9999,12413.504919125,0.97265625,0.15093994140625,-0.1927947998046875,12413.494878125,1.706401580892384,1.365173977950841,-0.1408245311062273,0.001785883679986,0.02121027931571007,-0.0009830528870224953,0.00734180212020874,0.02271170914173126,0.02721238136291504,2,0.5099596274528448,-0.3726440338060946,-0.5539558111998939,-0.5424117491840602,0.9692432284355164,0.1403595358133316,-0.202155202627182,31.37638854980469,6.360580444335938,9.484405517578125,2,12413.425146125,4,2,1580908697.666312,1580903939.50652,2888,0.4940922,0,0,3442.589,14,15,1580908691.639452,12410.932464,0,17.18829,97.0036
1580908697.716908,129,0,1580907286.99823,41.20781296037784,29.0754925099451,275.2123,0.1345286,-1,23.46983528137207,200,-9999,12413.514959125,0.95001220703125,0.1357879638671875,-0.21881103515625,12413.504919125,1.706200135826621,1.365197050617674,-0.1410058344153107,0.01619837805628777,-0.0005892906337976456,-0.02070455998182297,0.001655519008636475,0.01210986077785492,0.01000350713729858,2,0.5099715758386484,-0.372646165110916,-0.5538540690023798,-0.5425030071484731,0.9692230224609375,0.1405390352010727,-0.2021276503801346,31.38776397705078,6.295877456665039,9.622955322265625,2,12413.425146125,4,2,1580908697.666312,1580903939.50652,2888,0.4940922,0,0,3442.589,14,15,1580908691.639452,12410.932464,0,17.18829,97.0036
1580908697.726798,130,0,1580907286.99823,41.20781296037784,29.0754925099451,275.2123,0.1345286,-1,23.46983528137207,200,-9999,12413.525030125,0.9589385986328125,0.13885498046875,-0.211944580078125,12413.514959125,1.705879362413098,1.365632952705406,-0.1415060834268172,0.02127160876989365,0.05021195113658905,-0.0562315359711647,-0.0211145281791687,-0.00543135404586792,-0.01916724443435669,2,0.5101513917501264,-0.3726931029261026,-0.5535420630610356,-0.5426202210139559,0.9692421555519104,0.1410343050956726,-0.2016908228397369,31.38776397705078,6.295877456665039,9.622955322265625,2,12413.425146125,4,2,1580908697.666312,1580903939.50652,2888,0.4940922,0,0,3442.589,14,15,1580908691.639452,12410.932464,0,17.18829,97.0036
1580908697.737185,131,0,1580907286.99823,41.20781296037784,29.0754925099451,275.2123,0.1345286,-1,23.46983528137207,200,-9999,12413.53506525,0.9717559814453125,0.13446044921875,-0.216949462890625,12413.525030125,1.705500710747922,1.366285502933072,-0.1423489511139414,0.0188587848097086,0.06794354319572449,-0.0903218537569046,-0.01626169681549072,-0.003232285380363464,-0.01488250494003296,2,0.5104616853633726,-0.3727087770950376,-0.5530808114359704,-0.5427878899851812,0.9692567586898804,0.1418686956167221,-0.2010340690612793,31.166748046875,6.277345657348633,9.572540283203125,2,12413.425146125,4,2,1580908697.666312,1580903939.50652,2888,0.4940922,0,0,3442.589,14,15,1580908691.639452,12410.932464,0,17.18829,97.0036
1580908697.771623,132,0,1580907286.99823,41.20781296037784,29.0754925099451,275.2123,0.1345286,-1,23.46983528137207,200,-9999,12413.54510525,0.9837493896484375,0.12762451171875,-0.227935791015625,12413.53506525,1.70515198410723,1.367319709592421,-0.1435829897964472,0.009219862520694733,0.1089131757616997,-0.1264457106590271,-0.001633286476135254,-0.00865444540977478,-0.01839637756347656,2,0.5109755922938283,-0.3727008645114976,-0.5524406239999118,-0.5429616891986657,0.9692919254302979,0.1430901437997818,-0.1999960243701935,31.166748046875,6.277345657348633,9.572540283203125,2,12413.425146125,4,2,1580908697.666312,1580903939.50652,2888,0.4940922,0,0,3442.589,14,15,1580908691.639452,12410.932464,0,17.18829,97.0036
1580908697.772864,133,0,1580907286.99823,41.20781296037784,29.0754925099451,275.2123,0.1345286,-1,23.46983528137207,200,-9999,12413.55514525,1.01580810546875,0.1391754150390625,-0.20849609375,12413.54510525,1.704877394910842,1.368768237479791,-0.1452232684935968,-0.007268033921718597,0.1560569703578949,-0.1651829779148102,0.008608758449554443,-0.01744002103805542,-0.03276228904724121,2,0.5117133208543233,-0.3726624199152367,-0.5516210089086497,-0.5431265603798079,0.9693493247032166,0.14471335709095,-0.1985443979501724,31.25390625,6.334785461425781,9.53997802734375,2,12413.425146125,4,2,1580908697.666312,1580903939.50652,2888,0.4940922,0,0,3442.589,14,15,1580908691.639452,12410.932464,0,17.18829,97.0036
1580908697.7739,134,0,1580907286.99823,41.20781296037784,29.0754925099451,275.2123,0.1345286,-1,23.46983528137207,200,-9999,12413.56518625,1.06689453125,0.156158447265625,-0.1890106201171875,12413.55514525,1.704580416369292,1.370093532298128,-0.1471948641951957,-0.01127845980226994,0.1445542573928833,-0.2003478556871414,0.03929811716079712,-0.009571090340614319,-0.01695841550827026,2,0.5124901938557048,-0.3724951687339167,-0.5507497633066996,-0.5433929953327397,0.9693302512168884,0.1466639041900635,-0.1972022950649261,31.25390625,6.334785461425781,9.53997802734375,2,12413.425146125,4,2,1580908697.666312,1580903939.50652,2888,0.4940922,0,0,3442.589,14,15,1580908691.639452,12410.932464,0,17.18829,97.0036
1580908697.777497,135,0,1580907286.99823,41.20781296037784,29.0754925099451,275.2123,0.1345286,-1,23.46983528137207,200,-9999,12413.57522625,1.086685180664062,0.162750244140625,-0.1824493408203125,12413.56518625,1.704069927202809,1.370512690027195,-0.1495303387229806,0.004277330823242664,0.04917740821838379,-0.2408881038427353,0.08789455890655518,0.0046662837266922,0.003530144691467285,2,0.5130629909772257,-0.3720251752843795,-0.5499678913287362,-0.5439658878955793,0.9690743684768677,0.1489737331867218,-0.1967272758483887,31.14630126953125,6.577846527099609,9.768798828125,2,12413.425146125,4,2,1580908697.666312,1580903939.50652,2888,0.4940922,0,0,3442.589,14,15,1580908691.639452,12410.932464,0,17.18829,97.0036
1580908697.78719,136,0,1580907286.99823,41.20781296037784,29.0754925099451,275.2123,0.1345286,-1,23.46983528137207,200,-9999,12413.58526625,1.073516845703125,0.1471099853515625,-0.214691162109375,12413.57522625,1.703499628971484,1.369950617441587,-0.1523094362769157,-0.001414056867361069,-0.05552007257938385,-0.2820926904678345,0.1166759729385376,0.01138438284397125,0.01270610094070435,2,0.5134592393919903,-0.3711674989997947,-0.5493184985234607,-0.5448334933967967,0.9685542583465576,0.1517212390899658,-0.197188600897789,31.14630126953125,6.577846527099609,9.768798828125,2,12413.425146125,4,2,1580908697.666312,1580903939.50652,2888,0.4940922,0,0,3442.589,14,15,1580908691.639452,12410.932464,0,17.18829,97.0036
1580908697.79713,137,0,1580907286.99823,41.20781296037784,29.0754925099451,275.2123,0.1345286,-1,23.46983528137207,200,-9999,12413.59530725,1.079940795898438,0.1469573974609375,-0.2137298583984375,12413.58526625,1.7029285488486,1.36902186726751,-0.1555655964727807,-0.009615261107683182,-0.08386782556772232,-0.3323297500610352,0.1010546684265137,-0.006844595074653625,-0.01601755619049072,2,0.5138672524428479,-0.370062778366124,-0.5486519726762715,-0.545870781283967,0.9678815007209778,0.1549388915300369,-0.197987973690033,31.20208740234375,6.53205680847168,9.639556884765625,2,12413.425146125,4,2,1580908697.666312,1580903939.50652,2888,0.4940922,0,0,3442.589,14,15,1580908691.639452,12410.932464,0,17.18829,97.0036
1580908697.829401,138,0,1580907286.99823,41.20781296037784,29.0754925099451,275.2123,0.1345286,-1,23.46983528137207,200,-9999,12413.60534725,1.116012573242188,0.18902587890625,-0.1427459716796875,12413.59530725,1.702269127876192,1.368271753797215,-0.1592527485819228,-0.0156262181699276,-0.08001535385847092,-0.3640472590923309,0.1096763014793396,-0.01411591470241547,-0.02195149660110474,2,0.5144093307131048,-0.3688959059608798,-0.5478145685773991,-0.5469900376639223,0.9671666026115417,0.1585804522037506,-0.1985976994037628,31.20208740234375,6.53205680847168,9.639556884765625,2,12413.425146125,4,2,1580908697.666312,1580903939.50652,2888,0.4940922,0,0,3442.589,14,15,1580908691.639452,12410.932464,0,17.18829,97.0036
1580908697.830666,139,0,1580907286.99823,41.20781296037784,29.0754925099451,275.2123,0.1345286,-1,23.46983528137207,200,-9999,12413.61541825,1.200546264648438,0.191436767578125,-0.2119140625,12413.60534725,1.700665217490121,1.369041312014107,-0.1641495266458636,0.04979166761040688,0.1012335270643234,-0.5211859941482544,0.1392444968223572,0.02000437676906586,0.04261845350265503,2,0.515477244918367,-0.3680156520530211,-0.5460447501388651,-0.5483456197921959,0.9665468335151672,0.1634133458137512,-0.1976953744888306,30.98887634277344,6.512180328369141,9.6156005859375,2,12413.425146125,4,2,1580908697.666312,1580903939.50652,2888,0.4940922,0,0,3442.589,14,15,1580908691.639452,12410.932464,0,17.18829,97.0036
1580908697.831678,140,0,1580907286.99823,41.20781296037784,29.0754925099451,275.2123,0.1345286,-1,23.46983528137207,200,-9999,12413.62545825,1.661911010742188,0.0370330810546875,-0.586456298828125,12413.61541825,1.699761476710113,1.371346841682929,-0.1723716611483218,-0.1269453167915344,0.2501367926597595,-0.818096399307251,0.2085646986961365,0.03074353933334351,0.01720398664474487,2,0.5178683180332623,-0.3663544648709323,-0.5432894670263158,-0.5499394037634668,0.9656503200531006,0.1715193390846252,-0.1951936185359955,30.98887634277344,6.512180328369141,9.6156005859375,2,12413.425146125,4,2,1580908697.666312,1580903939.50652,2888,0.4940922,0,0,3442.589,14,15,1580908691.639452,12410.932464,0,17.18829,97.0036
1580908697.837402,141,0,1580907286.99823,41.20781296037784,29.0754925099451,275.2123,0.1345286,-1,23.46983528137207,200,-9999,12413.63549825,1.695419311523438,0.1474761962890625,-0.320831298828125,12413.62545825,1.699057829463364,1.373989770057414,-0.1849561317338916,-0.1577343791723251,0.2790810763835907,-1.230386018753052,0.6522226333618164,-0.1478391885757446,-0.3893614411354065,2,0.5213888933185393,-0.3633894216735922,-0.5394607381388781,-0.5523440106979367,0.9639695882797241,0.1839034110307693,-0.1922035068273544,30.73647308349609,7.171710968017578,9.981719970703125,2,12413.425146125,4,2,1580908697.666312,1580903939.50652,2888,0.4940922,0,0,3442.589,14,15,1580908691.639452,12410.932464,0,17.18829,97.0036
1580908697.847346,142,0,1580907286.99823,41.20781296037784,29.0754925099451,275.2123,0.1345286,-1,23.46983528137207,200,-9999,12413.64553925,1.694610595703125,0.09710693359375,-0.380035400390625,12413.63549825,1.698443827058693,1.376368241272365,-0.2014350147767281,-0.2654978036880493,0.2781665027141571,-1.631103277206421,0.7467554807662964,-0.05745784938335419,-0.1638832092285156,2,0.5257237145760038,-0.3591171491516603,-0.5347692554867297,-0.5555818964881305,0.9613197445869446,0.2000755369663239,-0.1892988979816437,30.73647308349609,7.171710968017578,9.981719970703125,2,12413.425146125,4,2,1580908697.666312,1580903939.50652,2888,0.4940922,0,0,3442.589,14,15,1580908691.639452,12410.932464,0,17.18829,97.0036
1580908697.857339,143,0,1580907286.99823,41.20781296037784,29.0754925099451,275.2123,0.1345286,-1,23.46983528137207,200,-9999,12413.65557925,1.724685668945312,0.107757568359375,-0.338531494140625,12413.64553925,1.698116455349686,1.37675826690848,-0.2214806612797526,-0.3820672929286957,-0.006332332268357277,-1.96609890460968,0.7212992906570435,-0.1144976913928986,-0.1710091233253479,2,0.5303501519153734,-0.353089722166877,-0.5297793201648826,-0.5598128148823015,0.9572653770446777,0.219674363732338,-0.188112735748291,30.25518035888672,8.083930969238281,9.92108154296875,2,12413.425146125,4,2,1580908697.666312,1580903939.50652,2888,0.4940922,0,0,3442.589,14,15,1580908691.639452,12410.932464,0,17.18829,97.0036
1580908697.884349,144,0,1580907286.99823,41.20781296037784,29.0754925099451,275.2123,0.1345286,-1,23.46983528137207,200,-9999,12413.66561925,1.6666259765625,0.16973876953125,-0.172332763671875,12413.65557925,1.697289997821543,1.377241963727047,-0.2454443596519572,-0.369816929101944,0.07121133804321289,-2.362486839294434,0.7774651050567627,-0.1486390084028244,-0.1809365153312683,2,0.5357404072326492,-0.3459632224368259,-0.523612486544914,-0.5649085908457947,0.9519159197807312,0.2429873943328857,-0.1865833252668381,30.25518035888672,8.083930969238281,9.92108154296875,2,12413.425146125,4,2,1580908697.666312,1580903939.50652,2888,0.4940922,0,0,3442.589,14,15,1580908691.639452,12410.932464,0,17.18829,97.0036
1580908697.885589,145,0,1580907286.99823,41.20781296037784,29.0754925099451,275.2123,0.1345286,-1,23.46983528137207,200,-9999,12413.67565925,1.889801025390625,0.1290740966796875,-0.2885894775390625,12413.66561925,1.695909722764201,1.378410251135285,-0.2734666898900981,-0.4097957611083984,0.1809077262878418,-2.754042387008667,0.7141084671020508,-0.1009019017219543,0.007348001003265381,2,0.5420356309931333,-0.3378596098937077,-0.5160159614439667,-0.5707676668516209,0.9450767636299133,0.2700709104537964,-0.1840965151786804,29.63938140869141,9.03984260559082,9.919921875,2,12413.425146125,4,2,1580908697.666312,1580903939.50652,2888,0.4940922,0,0,3442.589,14,15,1580908691.639452,12410.932464,0,17.18829,97.0036
1580908697.888722,146,0,1580907286.99823,41.20781296037784,29.0754925099451,275.2123,0.1345286,-1,23.46983528137207,200,-9999,12413.68570025,2.14801025390625,0.059967041015625,-0.2810211181640625,12413.67565925,1.693851774458114,1.378012674651587,-0.305831994809932,-0.4282802045345306,0.03272487223148346,-3.197678804397583,0.9172577857971191,-0.1659980714321136,-0.09575188159942627,2,0.5486586881064874,-0.328059464285429,-0.5074429297501657,-0.5777996339259839,0.9359312057495117,0.3010866641998291,-0.1827012598514557,29.63938140869141,9.03984260559082,9.919921875,2,12413.425146125,4,2,1580908697.666312,1580903939.50652,2888,0.4940922,0,0,3442.589,14,15,1580908691.639452,12410.932464,0,17.18829,97.0036
1580908697.897917,147,0,1580907286.99823,41.20781296037784,29.0754925099451,275.2123,0.1345286,-1,23.46983528137207,200,-9999,12413.69574025,2.07861328125,0.1197967529296875,-0.1328277587890625,12413.68570025,1.691435036401814,1.373278461690286,-0.3429130781786019,-0.4883805513381958,-0.3990470170974731,-3.678077697753906,1.21022367477417,-0.2710973620414734,-0.111014187335968,2,0.5550249050866566,-0.3155025059014034,-0.4986152596851743,-0.5863346970284087,0.9234679341316223,0.3362319767475128,-0.1848110407590866,28.722412109375,10.46926689147949,9.980316162109375,2,12413.425146125,4,2,1580908697.666312,1580903939.50652,2888,0.4940922,0,0,3442.589,14,15,1580908691.639452,12410.932464,0,17.18829,97.0036
1580908697.907894,148,0,1580907286.99823,41.20781296037784,29.0754925099451,275.2123,0.1345286,-1,23.46983528137207,200,-9999,12413.70581125,2.111663818359375,0.221832275390625,-0.0379180908203125,12413.69574025,1.68788311105651,1.364564421114015,-0.3832266044004836,-0.485724925994873,-0.7652819752693176,-3.996517896652222,1.178057432174683,-0.2727866768836975,0.04120767116546631,2,0.5608008696964867,-0.3009030574245548,-0.4895663696595688,-0.5960573866802954,0.9078094959259033,0.3739149570465088,-0.1899194717407227,28.722412109375,10.46926689147949,9.980316162109375,2,12413.425146125,4,2,1580908697.666312,1580903939.50652,2888,0.4940922,0,0,3442.589,14,15,1580908691.639452,12410.932464,0,17.18829,97.0036
1580908697.917765,149,0,1580907286.99823,41.20781296037784,29.0754925099451,275.2123,0.1345286,-1,23.46983528137207,200,-9999,12413.71585125,2.221542358398438,0.1706085205078125,0.0367889404296875,12413.70581125,1.682023662818213,1.352759385579902,-0.4269592764033359,-0.3845221400260925,-0.9344845414161682,-4.358106136322021,1.206643342971802,-0.193511426448822,0.1485352516174316,2,0.5661119268184299,-0.2847277370376324,-0.4796187566478465,-0.6069705121715927,0.8886784911155701,0.4141049683094025,-0.1968948096036911,27.68076324462891,12.14104461669922,9.74444580078125,2,12413.425146125,4,2,1580908697.666312,1580903939.50652,2888,0.4940922,0,0,3442.589,14,15,1580908691.639452,12410.932464,0,17.18829,97.0036
1580908697.950116,150,0,1580907286.99823,41.20781296037784,29.0754925099451,275.2123,0.1345286,-1,23.46983528137207,200,-9999,12413.72589125,2.221237182617188,0.17364501953125,0.0664520263671875,12413.71585125,1.673617763522409,1.337360038760909,-0.4747997933970819,-0.3447108268737793,-1.184583306312561,-4.806893348693848,1.347929239273071,-0.2861337661743164,0.2326025366783142,2,0.571012621378388,-0.2666037006204786,-0.4686021140445595,-0.6190953445815993,0.8652616739273071,0.4571603834629059,-0.2057341039180756,27.68076324462891,12.14104461669922,9.74444580078125,2,12413.425146125,4,2,1580908697.666312,1580903939.50652,2888,0.4940922,0,0,3442.589,14,15,1580908691.639452,12410.932464,0,17.18829,97.0036
1580908697.951411,151,0,1580907286.99823,41.20781296037784,29.0754925099451,275.2123,0.1345286,-1,23.46983528137207,200,-9999,12413.73593225,2.30023193359375,0.0432891845703125,0.028961181640625,12413.72589125,1.661410841438437,1.318760734175109,-0.5265121164147725,-0.1905449628829956,-1.253314733505249,-5.25730037689209,1.381582736968994,-0.3254664540290833,0.2806993722915649,2,0.5754814124628438,-0.2470230096441907,-0.4560028825530671,-0.632346497079155,0.8372506499290466,0.5025209188461304,-0.2156015485525131,25.99165344238281,14.26967811584473,9.319091796875,2,12413.425146125,4,2,1580908697.666312,1580903939.50652,2888,0.4940922,0,0,3442.589,14,15,1580908691.639452,12410.932464,0,17.18829,97.0036
1580908697.952842,152,0,1580907286.99823,41.20781296037784,29.0754925099451,275.2123,0.1345286,-1,23.46983528137207,200,-9999,12413.74597225,2.575271606445312,0.0771331787109375,0.1032562255859375,12413.73593225,1.645233011867084,1.295599029970055,-0.5815033174487244,-0.1126294359564781,-1.453901529312134,-5.645957946777344,1.475521802902222,-0.4963459968566895,0.2529225945472717,2,0.5792259712650969,-0.2257442670781921,-0.4422325441001365,-0.6465039088409723,0.8041942715644836,0.5492807626724243,-0.2270735949277878,23.79611206054688,16.61957931518555,8.725921630859375,2,12413.425146125,4,2,1580908697.666312,1580903939.50652,2888,0.4940922,0,0,3442.589,14,15,1580908691.639452,12410.932464,0,17.18829,97.0036
1580908697.957768,153,0,1580907286.99823,41.20781296037784,29.0754925099451,275.2123,0.1345286,-1,23.46983528137207,200,-9999,12413.75601225,2.726898193359375,0.1479949951171875,0.1719970703125,12413.74597225,1.624233801296084,1.26575785809026,-0.6388056836978239,0.03342178091406822,-1.781271696090698,-5.956695556640625,1.774914026260376,-0.5334658026695251,0.3336432576179504,2,0.5817282807702575,-0.2025796635517548,-0.4278224289329808,-0.661454266965238,0.7657471895217896,0.5962370634078979,-0.2411073744297028,23.79611206054688,16.61957931518555,8.725921630859375,2,12413.425146125,4,2,1580908697.666312,1580903939.50652,2888,0.4940922,0,0,3442.589,14,15,1580908691.639452,12410.932464,0,17.18829,97.0036
1580908697.967973,154,0,1580907286.99823,41.20781296037784,29.0754925099451,275.2123,0.1345286,-1,23.46983528137207,200,-9999,12413.76605225,2.736160278320312,0.0680999755859375,0.371368408203125,12413.75601225,1.597336510309673,1.228253641787319,-0.6981047799736378,0.1033872589468956,-2.094779491424561,-6.283248424530029,2.002846240997314,-0.4964731931686401,0.4163852334022522,2,0.5829493489281957,-0.1775286936390043,-0.4127160932790267,-0.6769926805170654,0.7215564250946045,0.6427670121192932,-0.257307231426239,21.04782867431641,18.94256591796875,7.92108154296875,2,12413.425146125,4,2,1580908697.666312,1580903939.50652,2888,0.4940922,0,0,3442.589,14,15,1580908691.639452,12410.932464,0,17.18829,97.0036
1580908697.97817,155,0,1580907286.99823,41.20781296037784,29.0754925099451,275.2123,0.1345286,-1,23.46983528137207,200,-9999,12413.77609325,2.892318725585938,0.00115966796875,0.565887451171875,12413.76605225,1.561545930300422,1.18231596710726,-0.7580859070052856,0.3535105586051941,-2.214660406112671,-6.514732837677002,2.051762580871582,-0.6135326027870178,0.6207057237625122,2,0.5826678464308829,-0.1515623008929631,-0.3964084082772314,-0.6930997876921843,0.6720444560050964,0.6875327825546265,-0.2750540971755981,21.04782867431641,18.94256591796875,7.92108154296875,2,12413.425146125,4,2,1580908697.666312,1580903939.50652,2888,0.4940922,0,0,3442.589,14,15,1580908691.639452,12410.932464,0,17.18829,97.0036
1580908698.003519,156,0,1580907286.99823,41.20781296037784,29.0754925099451,275.2123,0.1345286,-1,23.46983528137207,200,-9999,12413.78613325,2.5189208984375,-0.7776947021484375,0.666015625,12413.77609325,1.514291296536801,1.124693187820472,-0.8180092541928304,0.6070529818534851,-2.319859504699707,-6.876994609832764,2.261906623840332,-0.719845712184906,0.8413372039794922,2,0.5805378468842097,-0.1244539016207679,-0.3790389574960109,-0.7098004131016593,0.6167677640914917,0.7297862768173218,-0.2949740588665009,17.73372650146484,21.14877319335938,6.905853271484375,2,12413.425146125,4,2,1580908697.666312,1580903939.50652,2888,0.4940922,0,0,3442.589,14,15,1580908691.639452,12410.932464,0,17.18829,97.0036
1580908698.004765,157,0,1580907286.99823,41.20781296037784,29.0754925099451,275.2123,0.1345286,-1,23.46983528137207,200,-9999,12413.79617325,0.6060638427734375,-2.417465209960938,0.4909820556640625,12413.78613325,1.465559185147998,1.054844276141521,-0.8665893483919037,0.7102866768836975,-3.32243537902832,-5.955840110778809,2.056979417800903,-1.371658325195312,0.9795188307762146,2,0.5752488966053824,-0.09684883133021382,-0.3675387335098036,-0.7243096123988927,0.5631495714187622,0.7621251940727234,-0.3194180130958557,17.73372650146484,21.14877319335938,6.905853271484375,2,12413.425146125,4,2,1580908697.666312,1580903939.50652,2888,0.4940922,0,0,3442.589,14,15,1580908691.639452,12410.932464,0,17.18829,97.0036
1580908698.007971,158,0,1580907286.99823,41.20781296037784,29.0754925099451,275.2123,0.1345286,-1,23.46983528137207,200,-9999,12413.80624425,0.1634063720703125,-1.35406494140625,0.6143035888671875,12413.79617325,1.437955108973586,0.9948227202961331,-0.891242452161241,0.1600311994552612,-4.120454788208008,-3.052589654922485,0.2942730188369751,-3.162392616271973,0.8638738393783569,2,0.5686004100322356,-0.07450815935498455,-0.3675247614796681,-0.7321665040865558,0.5270541906356812,0.7778531908988953,-0.3422842025756836,15.17507171630859,22.42639541625977,5.854949951171875,2,12413.425146125,4,2,1580908697.666312,1580903939.50652,2888,0.4940922,0,0,3442.589,14,15,1580908691.639452,12410.932464,0,17.18829,97.0036
1580908698.01807,159,0,1580907286.99823,41.20781296037784,29.0754925099451,275.2123,0.1345286,-1,23.46983528137207,200,-9999,12413.81628425,1.205413818359375,-0.82220458984375,1.185516357421875,12413.80624425,1.428149009087435,0.9619099443378377,-0.894195664216843,0.3736332654953003,-2.44060206413269,-0.5073118209838867,-0.4692652225494385,-2.270178556442261,0.913008451461792,2,0.5628618930912381,-0.06421060698380868,-0.3723959744240281,-0.7351086074102968,0.513618528842926,0.7797057032585144,-0.3581269681453705,15.17507171630859,22.42639541625977,5.854949951171875,2,12413.425146125,4,2,1580908697.666312,1580903939.50652,2888,0.4940922,0,0,3442.589,14,15,1580908691.639452,12410.932464,0,17.18829,97.0036
1580908698.028473,160,0,1580907286.99823,41.20781296037784,29.0754925099451,275.2123,0.1345286,-1,23.46983528137207,200,-9999,12413.82632525,0.695526123046875,-0.9635467529296875,1.062850952148438,12413.81628425,1.427599242565854,0.9469262121309745,-0.8856146319905115,0.4889789521694183,-1.438391327857971,0.7222602963447571,0.6728976368904114,-1.594240069389343,1.522257924079895,2,0.5579859640386353,-0.06174861945257021,-0.3788110381537461,-0.7357588282744691,0.5136066675186157,0.7743040919303894,-0.3696775436401367,14.36109924316406,22.8984317779541,5.112548828125,2,12413.425146125,4,2,1580908697.666312,1580903939.50652,2888,0.4940922,0,0,3442.589,14,15,1580908691.639452,12410.932464,0,17.18829,97.0036
1580908698.038186,161,0,1580907286.99823,41.20781296037784,29.0754925099451,275.2123,0.1345286,-1,23.46983528137207,200,-9999,12413.83636525,0.7447357177734375,-0.9532470703125,0.7847900390625,12413.82632525,1.427113920000254,0.9399007720375978,-0.8695520203317527,0.983819842338562,-0.6389504075050354,1.322468876838684,0.2224187850952148,-1.723098397254944,1.473736763000488,2,0.552748032303598,-0.06470972445998105,-0.385070418280252,-0.736208493673723,0.5209735035896301,0.7640399932861328,-0.3805645406246185,14.36109924316406,22.8984317779541,5.112548828125,2,12413.425146125,4,2,1580908697.666312,1580903939.50652,2888,0.4940922,0,0,3442.589,14,15,1580908691.639452,12410.932464,0,17.18829,97.0036
1580908698.065123,162,0,1580907286.99823,41.20781296037784,29.0754925099451,275.2123,0.1345286,-1,23.46983528137207,200,-9999,12413.84640525,0.9793701171875,-0.915740966796875,0.596893310546875,12413.83636525,1.423419011589594,0.9348947225049258,-0.8522612371744062,1.221965193748474,-0.2070287317037582,1.245291352272034,0.1781949996948242,-1.713511824607849,1.19501268863678,2,0.5474158669948836,-0.06969802016419076,-0.3898760253872532,-0.7372073814383012,0.5296124219894409,0.7527708411216736,-0.3909561038017273,14.10662078857422,23.08671569824219,4.281951904296875,2,12413.425146125,4,2,1580908697.666312,1580903939.50652,2888,0.4940922,0,0,3442.589,14,15,1580908691.639452,12410.932464,0,17.18829,97.0036
1580908698.066147,163,0,1580907286.99823,41.20781296037784,29.0754925099451,275.2123,0.1345286,-1,23.46983528137207,200,-9999,12413.85644525,0.87384033203125,-0.9797210693359375,0.4237060546875,12413.84640525,1.417303682768751,0.929921271541776,-0.8354181449730022,1.331412434577942,-0.0295407623052597,1.094636797904968,0.4347223043441772,-1.660620093345642,1.014087677001953,2,0.5420270019855488,-0.07517852836652925,-0.3936013637268677,-0.7386696936960763,0.5377493500709534,0.7415770888328552,-0.4011098444461823,14.10662078857422,23.08671569824219,4.281951904296875,2,12413.425146125,4,2,1580908697.666312,1580903939.50652,2888,0.4940922,0,0,3442.589,14,15,1580908691.639452,12410.932464,0,17.18829,97.0036
1580908698.068191,164,0,1580907286.99823,41.20781296037784,29.0754925099451,275.2123,0.1345286,-1,23.46983528137207,200,-9999,12413.86648625,0.74261474609375,-1.107986450195312,0.32635498046875,12413.85644525,1.41147257561247,0.9253052407768599,-0.8182817452830062,1.34349524974823,-0.03071320429444313,1.120404124259949,0.3418062329292297,-1.700761079788208,0.8473082184791565,2,0.5365528192792087,-0.08077425003256335,-0.3973589112468033,-0.7400625145774162,0.5459640622138977,0.7299725413322449,-0.4111731946468353,13.90383148193359,23.70711135864258,3.538787841796875,2,12413.425146125,4,2,1580908697.666312,1580903939.50652,2888,0.4940922,0,0,3442.589,14,15,1580908691.639452,12410.932464,0,17.18829,97.0036
