loggingTime,loggingSample,identifierForVendor,locationTimestamp_since1970,locationLatitude,locationLongitude,locationAltitude,locationSpeed,locationCourse,locationVerticalAccuracy,locationHorizontalAccuracy,locationFloor,accelerometerTimestamp_sinceReboot,accelerometerAccelerationX,accelerometerAccelerationY,accelerometerAccelerationZ,motionTimestamp_sinceReboot,motionYaw,motionRoll,motionPitch,motionRotationRateX,motionRotationRateY,motionRotationRateZ,motionUserAccelerationX,motionUserAccelerationY,motionUserAccelerationZ,motionAttitudeReferenceFrame,motionQuaternionX,motionQuaternionY,motionQuaternionZ,motionQuaternionW,motionGravityX,motionGravityY,motionGravityZ,motionMagneticFieldX,motionMagneticFieldY,motionMagneticFieldZ,motionMagneticFieldCalibrationAccuracy,activityTimestamp_sinceReboot,activity,activityActivityConfidence,activityActivityStartDate,pedometerStartDate,pedometerNumberofSteps,pedometerAverageActivePace,pedometerCurrentPace,pedometerCurrentCadence,pedometerDistance,pedometerFloorAscended,pedometerFloorDescended,pedometerEndDate,altimeterTimestamp_sinceReboot,altimeterReset,altimeterRelativeAltitude,altimeterPressure
1580905816.674136,1,0,1580904337.000819,41.20701635159924,29.07533761282497,172.748,-1,-1,5.74967098236084,48.00724964208526,-9999,9532.400960791667,0.958984375,0.093048095703125,-0.16131591796875,9532.395894791667,1.03780642742059,1.399966267529861,-0.1016351295767019,-0.01195766311138868,0.005685463547706604,0.01203831844031811,-0.003726303577423096,-0.0002168118953704834,-0.007319390773773193,2,0.3528037688148405,-0.5394144405145821,-0.3504070890595696,-0.6795413957839324,0.9803587794303894,0.1014602407813072,-0.1691231280565262,20.91914367675781,-2.671310424804688,14.13043212890625,2,9530.485518000001,2,0,1580905814.726684,1580903939.50652,1577,0.4102195,0,0,2131.439,1,0,1580905796.492468,9529.841414,0,-1.622375,97.22193
1580905816.675564,2,0,1580904337.000819,41.20701635159924,29.07533761282497,172.748,-1,-1,5.74967098236084,48.00724964208526,-9999,9532.411000791668,0.9583282470703125,0.0975799560546875,-0.1855926513671875,9532.405934791666,1.037995429961314,1.400376987271817,-0.1015284158120906,-0.01706274971365929,0.03801195323467255,0.01832319237291813,-0.023063063621521,-0.008472293615341187,0.00604248046875,2,0.35289219412038,-0.5395423564208457,-0.3504296765961629,-0.6793822511178753,0.980438768863678,0.1013540774583817,-0.1687222868204117,21.01245880126953,-2.642444610595703,13.9927978515625,2,9530.485518000001,2,0,1580905814.726684,1580903939.50652,1577,0.4102195,0,0,2131.439,1,0,1580905796.492468,9529.841414,0,-1.622375,97.22193
1580905816.676638,3,0,1580904337.000819,41.20701635159924,29.07533761282497,172.748,-1,-1,5.74967098236084,48.00724964208526,-9999,9532.421040791667,0.954681396484375,0.102630615234375,-0.178558349609375,9532.416005791667,1.03825410165676,1.401161828721279,-0.101377079012453,-0.02153020352125168,0.07864406704902649,0.01952747255563736,-0.02386665344238281,-0.003789633512496948,-0.01900249719619751,2,0.353050562570454,-0.5397940642440476,-0.3504227602772267,-0.6791035388299952,0.980586051940918,0.1012035235762596,-0.1679553389549255,21.01245880126953,-2.642444610595703,13.9927978515625,2,9530.485518000001,2,0,1580905814.726684,1580903939.50652,1577,0.4102195,0,0,2131.439,1,0,1580905796.492468,9529.841414,0,-1.622375,97.22193
1580905816.677967,4,0,1580904337.000819,41.20701635159924,29.07533761282497,172.748,-1,-1,5.74967098236084,48.00724964208526,-9999,9532.431081791667,0.96319580078125,0.10400390625,-0.1702423095703125,9532.426045791668,1.038553108960802,1.402114999983264,-0.1011844681651146,-0.02511927112936974,0.09632685780525208,0.02269130945205688,-0.02769279479980469,0.001452922821044922,-0.01290148496627808,2,0.3532360757938933,-0.5401040236335823,-0.3504116416046825,-0.678766135561806,0.9807646870613098,0.1010118946433067,-0.1670238375663757,20.92296600341797,-2.901451110839844,14.1326904296875,2,9530.485518000001,2,0,1580905814.726684,1580903939.50652,1577,0.4102195,0,0,2131.439,1,0,1580905796.492468,9529.841414,0,-1.622375,97.22193
1580905816.679154,5,0,1580904337.000819,41.20701635159924,29.07533761282497,172.748,-1,-1,5.74967098236084,48.00724964208526,-9999,9532.441121791668,0.9693603515625,0.10455322265625,-0.162689208984375,9532.436086791668,1.038788874181847,1.402935405236155,-0.1009837371592092,-0.01528022345155478,0.07557923346757889,0.02012801915407181,-0.01933532953262329,0.003026247024536133,-0.005388021469116211,2,0.3533786079095442,-0.5403816074271238,-0.3504047879823932,-0.6784745669105284,0.9809214472770691,0.1008121892809868,-0.166222557425499,20.92296600341797,-2.901451110839844,14.1326904296875,2,9530.485518000001,2,0,1580905814.726684,1580903939.50652,1577,0.4102195,0,0,2131.439,1,0,1580905796.492468,9529.841414,0,-1.622375,97.22193
1580905816.680401,6,0,1580904337.000819,41.20701635159924,29.07533761282497,172.748,-1,-1,5.74967098236084,48.00724964208526,-9999,9532.451161791667,0.9693450927734375,0.0991668701171875,-0.1621551513671875,9532.446126791667,1.038964099046608,1.403555060553719,-0.1008063256198748,-0.003089471254497766,0.05704613775014877,0.01147815864533186,-0.01329135894775391,0.003752380609512329,0.001559197902679443,2,0.3534772353410907,-0.540596907103392,-0.3504060501480469,-0.6782509414988942,0.9810418486595154,0.1006356850266457,-0.1656176596879959,20.75811767578125,-2.643096923828125,14.161865234375,2,9530.485518000001,2,0,1580905814.726684,1580903939.50652,1577,0.4102195,0,0,2131.439,1,0,1580905796.492468,9529.841414,0,-1.622375,97.22193
1580905816.68483,7,0,1580904337.000819,41.20701635159924,29.07533761282497,172.748,-1,-1,5.74967098236084,48.00724964208526,-9999,9532.461202791666,0.9544830322265625,0.0982208251953125,-0.1762847900390625,9532.456166791668,1.039184704636622,1.404232765750478,-0.1005686698031648,-0.01226352900266647,0.06933396309614182,0.025225929915905,-0.01344239711761475,-0.001397192478179932,0.001431286334991455,2,0.3535788716685143,-0.5408360385526633,-0.3504298412778672,-0.6779949850072328,0.9811774492263794,0.1003992259502411,-0.1649567186832428,20.75811767578125,-2.643096923828125,14.161865234375,2,9530.485518000001,2,0,1580905814.726684,1580903939.50652,1577,0.4102195,0,0,2131.439,1,0,1580905796.492468,9529.841414,0,-1.622375,97.22193
1580905816.707159,8,0,1580904337.000819,41.20701635159924,29.07533761282497,172.748,-1,-1,5.74967098236084,48.00724964208526,-9999,9532.471242791667,0.956939697265625,0.101318359375,-0.17791748046875,9532.466206791667,1.039459183301256,1.405131776531626,-0.1002913284501487,-0.02540675923228264,0.08766844868659973,0.03355195373296738,-0.0284801721572876,-0.00206679105758667,-0.01357740163803101,2,0.3537210811955982,-0.5411486052813348,-0.3504442049501748,-0.6776639793174676,0.9813528656959534,0.1001232862472534,-0.1640791743993759,20.97115325927734,-2.352481842041016,14.1876220703125,2,9530.485518000001,2,0,1580905814.726684,1580903939.50652,1577,0.4102195,0,0,2131.439,1,0,1580905796.492468,9529.841414,0,-1.622375,97.22193
1580905816.708161,9,0,1580904337.000819,41.20701635159924,29.07533761282497,172.748,-1,-1,5.74967098236084,48.00724964208526,-9999,9532.481313791668,0.960235595703125,0.1042938232421875,-0.1729888916015625,9532.476247791667,1.039739309946061,1.406083767393269,-0.09998431682220751,-0.02376731485128403,0.09352366626262665,0.03408139199018478,-0.02620983123779297,0.001336783170700073,-0.01614093780517578,2,0.3538646697067225,-0.5414839404961679,-0.3504596040301505,-0.6773130346052196,0.9815388321876526,0.09981781244277954,-0.1631498783826828,20.97115325927734,-2.352481842041016,14.1876220703125,2,9530.485518000001,2,0,1580905814.726684,1580903939.50652,1577,0.4102195,0,0,2131.439,1,0,1580905796.492468,9529.841414,0,-1.622375,97.22193
1580905816.714921,10,0,1580904337.000819,41.20701635159924,29.07533761282497,172.748,-1,-1,5.74967098236084,48.00724964208526,-9999,9532.491353791667,0.9598388671875,0.1041259765625,-0.1685791015625,9532.486287791668,1.040024173976824,1.407025725175725,-0.09959689147415671,-0.02155809290707111,0.09364078938961029,0.04184316843748093,-0.02310550212860107,0.004698336124420166,-0.01213222742080688,2,0.3539819610051337,-0.5418311693157057,-0.350501596189091,-0.6769521417752283,0.981730043888092,0.09943231195211411,-0.1622315049171448,20.96305084228516,-2.413738250732422,14.09201049804688,2,9530.485518000001,2,0,1580905814.726684,1580903939.50652,1577,0.4102195,0,0,2131.439,1,0,1580905796.492468,9529.841414,0,-1.622375,97.22193
1580905816.724844,11,0,1580904337.000819,41.20701635159924,29.07533761282497,172.748,-1,-1,5.74967098236084,48.00724964208526,-9999,9532.501393791666,0.960174560546875,0.10064697265625,-0.1616363525390625,9532.496327791667,1.040302897228282,1.407870544395259,-0.09914066880871059,-0.01997910439968109,0.08528592437505722,0.05132561922073364,-0.02368372678756714,0.004985213279724121,-0.008545517921447754,2,0.354058435507516,-0.5421604101792441,-0.3505786036395051,-0.6766086792821668,0.9819114804267883,0.09897834062576294,-0.1614094227552414,20.96305084228516,-2.413738250732422,14.09201049804688,2,9530.485518000001,2,0,1580905814.726684,1580903939.50652,1577,0.4102195,0,0,2131.439,1,0,1580905796.492468,9529.841414,0,-1.622375,97.22193
1580905816.735053,12,0,1580904337.000819,41.20701635159924,29.07533761282497,172.748,-1,-1,5.74967098236084,48.00724964208526,-9999,9532.511433791668,0.9698028564453125,0.09783935546875,-0.1588287353515625,9532.506368791668,1.040530269693113,1.408488697584181,-0.09870957139132759,-0.01578386686742306,0.05919057875871658,0.04750406742095947,-0.02348977327346802,0.001935899257659912,-0.002203643321990967,2,0.3540894551605721,-0.5424168075019131,-0.3506710534190422,-0.6763391165963144,0.982053279876709,0.09854935109615326,-0.1608093231916428,20.89627075195312,-2.390224456787109,14.29034423828125,2,9530.485518000001,2,0,1580905814.726684,1580903939.50652,1577,0.4102195,0,0,2131.439,1,0,1580905796.492468,9529.841414,0,-1.622375,97.22193
1580905816.744977,13,0,1580904337.000819,41.20701635159924,29.07533761282497,172.748,-1,-1,5.74967098236084,48.00724964208526,-9999,9532.521474791667,0.9734954833984375,0.098052978515625,-0.1609649658203125,9532.516408791667,1.040695085938605,1.408926264199903,-0.09834530721079431,-0.009025029838085175,0.043514683842659,0.04205923527479172,-0.01396739482879639,-0.0005086362361907959,0.0001790523529052734,2,0.3540935129086085,-0.5426095274062337,-0.3507549128939103,-0.6761388617608659,0.9821588397026062,0.09818685799837112,-0.1603853702545166,20.89627075195312,-2.390224456787109,14.29034423828125,2,9530.485518000001,2,0,1580905814.726684,1580903939.50652,1577,0.4102195,0,0,2131.439,1,0,1580905796.492468,9529.841414,0,-1.622375,97.22193
1580905816.77086,14,0,1580904337.000819,41.20701635159924,29.07533761282497,172.748,-1,-1,5.74967098236084,48.00724964208526,-9999,9532.531514791668,0.9718780517578125,0.0883636474609375,-0.1624755859375,9532.526448791667,1.040780556453625,1.409167703254781,-0.09830005181737474,-0.01213409006595612,0.02395938150584698,0.006979456171393394,-0.0103181004524231,-0.0002499222755432129,-0.002194106578826904,2,0.3541445021035065,-0.5426851824656206,-0.3507541656654759,-0.6760517128374171,0.9822018146514893,0.09814181923866272,-0.1601489335298538,20.80442810058594,-2.523769378662109,14.38638305664062,2,9530.485518000001,2,0,1580905814.726684,1580903939.50652,1577,0.4102195,0,0,2131.439,1,0,1580905796.492468,9529.841414,0,-1.622375,97.22193
1580905816.77231,15,0,1580904337.000819,41.20701635159924,29.07533761282497,172.748,-1,-1,5.74967098236084,48.00724964208526,-9999,9532.541554791667,0.974395751953125,0.1001434326171875,-0.1561126708984375,9532.536519791667,1.04081931517747,1.409194569241487,-0.0982999371524083,-0.009057606570422649,0.007738335058093071,0.01138885226100683,-0.0119398832321167,-0.009939074516296387,-0.003731310367584229,2,0.3541596939596908,-0.5426874237399016,-0.3507625428550984,-0.6760376084533148,0.9822061061859131,0.09814170002937317,-0.1601225435733795,20.80442810058594,-2.523769378662109,14.38638305664062,2,9530.485518000001,2,0,1580905814.726684,1580903939.50652,1577,0.4102195,0,0,2131.439,1,0,1580905796.492468,9529.841414,0,-1.622375,97.22193
1580905816.775119,16,0,1580904337.000819,41.20701635159924,29.07533761282497,172.748,-1,-1,5.74967098236084,48.00724964208526,-9999,9532.551595791667,0.962371826171875,0.0942230224609375,-0.1659088134765625,9532.546559791666,1.040838918573319,1.40913089920983,-0.09832038472402214,-0.004382641054689884,0.0004896093159914017,-0.0005591525696218014,-0.009409904479980469,0.001820236444473267,0.00269395112991333,2,0.3541604531897056,-0.5426582718891212,-0.3507745090343364,-0.6760543503578823,0.9821938872337341,0.09816205501556396,-0.1601847410202026,20.84243774414062,-2.552253723144531,14.29241943359375,2,9530.485518000001,2,0,1580905814.726684,1580903939.50652,1577,0.4102195,0,0,2131.439,1,0,1580905796.492468,9529.841414,0,-1.622375,97.22193
1580905816.785268,17,0,1580904337.000819,41.20701635159924,29.07533761282497,172.748,-1,-1,5.74967098236084,48.00724964208526,-9999,9532.561635791668,0.9714508056640625,0.0960540771484375,-0.16900634765625,9532.556600791668,1.040851209749975,1.409022330803626,-0.09835519700288414,-0.002979155164211988,-0.01514607481658459,-0.004067334812134504,-0.02141296863555908,-0.004134833812713623,-0.006995618343353271,2,0.3541559075217489,-0.5426123512066646,-0.3507878138200954,-0.6760868408524489,0.9821732640266418,0.09819670021533966,-0.160290852189064,20.84243774414062,-2.552253723144531,14.29241943359375,2,9530.485518000001,2,0,1580905814.726684,1580903939.50652,1577,0.4102195,0,0,2131.439,1,0,1580905796.492468,9529.841414,0,-1.622375,97.22193
1580905816.795137,18,0,1580904337.000819,41.20701635159924,29.07533761282497,172.748,-1,-1,5.74967098236084,48.00724964208526,-9999,9532.571675791667,0.9538421630859375,0.0975494384765625,-0.166229248046875,9532.566640791667,1.040854655478653,1.409033890908434,-0.09840672515116797,-0.0004862276837229729,0.008855391293764114,-0.005104627460241318,-0.01233071088790894,-0.00235515832901001,-0.01010537147521973,2,0.3541755111998431,-0.5426051716332398,-0.3507719791735678,-0.6760904414262959,0.982170045375824,0.09824797511100769,-0.1602786630392075,20.93392944335938,-2.574783325195312,13.982177734375,2,9530.485518000001,2,0,1580905814.726684,1580903939.50652,1577,0.4102195,0,0,2131.439,1,0,1580905796.492468,9529.841414,0,-1.622375,97.22193
1580905816.805235,19,0,1580904337.000819,41.20701635159924,29.07533761282497,172.748,-1,-1,5.74967098236084,48.00724964208526,-9999,9532.581715791668,0.9715576171875,0.1011962890625,-0.16558837890625,9532.576680791668,1.040889851912603,1.408994904235145,-0.09843577472175456,-0.005831458605825901,-0.00795927457511425,-0.003187417984008789,-0.0299302339553833,-0.0008887052536010742,-0.007290244102478027,2,0.3541875453169036,-0.5425798766378209,-0.3507823709932324,-0.6760991485598067,0.9821611046791077,0.09827688336372375,-0.160316526889801,20.93392944335938,-2.574783325195312,13.982177734375,2,9530.485518000001,2,0,1580905814.726684,1580903939.50652,1577,0.4102195,0,0,2131.439,1,0,1580905796.492468,9529.841414,0,-1.622375,97.22193
1580905816.821078,20,0,1580904337.000819,41.20701635159924,29.07533761282497,172.748,-1,-1,5.74967098236084,48.00724964208526,-9999,9532.591756791668,0.954803466796875,0.0985565185546875,-0.1675872802734375,9532.586720791667,1.040922961238788,1.409124102555939,-0.09839463199735995,-0.00145859457552433,0.01414325647056103,0.002878904342651367,-0.01223945617675781,0.002799123525619507,-0.006775796413421631,2,0.3542059299548562,-0.5426260411130756,-0.3507826119408267,-0.6760523474528343,0.9821857810020447,0.09823594242334366,-0.1601902842521667,20.83497619628906,-2.509849548339844,14.237548828125,2,9530.485518000001,2,0,1580905814.726684,1580903939.50652,1577,0.4102195,0,0,2131.439,1,0,1580905796.492468,9529.841414,0,-1.622375,97.22193
1580905816.82534,21,0,1580904337.000819,41.20701635159924,29.07533761282497,172.748,-1,-1,5.74967098236084,48.00724964208526,-9999,9532.601827791666,0.9636077880859375,0.094146728515625,-0.1625518798828125,9532.596761791667,1.041002935810368,1.409309968227865,-0.09840489699943236,-0.0102086765691638,0.0176375899463892,-0.008111162111163139,-0.02902233600616455,0.0001491308212280273,-0.008957743644714355,2,0.3542635408459172,-0.542672614224038,-0.3507737457737432,-0.6759893584889574,0.9822145104408264,0.09824615716934204,-0.1600075513124466,20.83497619628906,-2.509849548339844,14.237548828125,2,9530.485518000001,2,0,1580905814.726684,1580903939.50652,1577,0.4102195,0,0,2131.439,1,0,1580905796.492468,9529.841414,0,-1.622375,97.22193
1580905816.835415,22,0,1580904337.000819,41.20701635159924,29.07533761282497,172.748,-1,-1,5.74967098236084,48.00724964208526,-9999,9532.611867791667,0.95745849609375,0.1024932861328125,-0.1683502197265625,9532.606801791668,1.041095391959996,1.409568992450355,-0.09831135014128045,-0.00900358147919178,0.02411710843443871,0.006868405267596245,-0.02026855945587158,-0.004167437553405762,-0.004175662994384766,2,0.3543039482647649,-0.542762760982419,-0.3507862287032146,-0.6758892581068484,0.9822649359703064,0.09815306216478348,-0.1597545892000198,20.82781982421875,-2.756046295166016,14.13131713867188,2,9530.485518000001,2,0,1580905814.726684,1580903939.50652,1577,0.4102195,0,0,2131.439,1,0,1580905796.492468,9529.841414,0,-1.622375,97.22193
1580905816.84538,23,0,1580904337.000819,41.20701635159924,29.07533761282497,172.748,-1,-1,5.74967098236084,48.00724964208526,-9999,9532.621907791667,0.96337890625,0.100128173828125,-0.1578369140625,9532.616841791667,1.04116877353635,1.409801324537826,-0.09820354106167438,-0.004519617650657892,0.02286782115697861,0.004757584072649479,-0.02646553516387939,0.004286676645278931,-0.01020097732543945,2,0.3543298828488033,-0.5428501590222262,-0.3508011341203234,-0.6757977501387439,0.9823125004768372,0.09804577380418777,-0.1595280766487122,20.82781982421875,-2.756046295166016,14.13131713867188,2,9530.485518000001,2,0,1580905814.726684,1580903939.50652,1577,0.4102195,0,0,2131.439,1,0,1580905796.492468,9529.841414,0,-1.622375,97.22193
1580905816.855307,24,0,1580904337.000819,41.20701635159924,29.07533761282497,172.748,-1,-1,5.74967098236084,48.00724964208526,-9999,9532.631947791668,0.9774169921875,0.10296630859375,-0.1611785888671875,9532.626881791668,1.041238625764837,1.409823935116155,-0.0981107176605561,-0.001987256109714508,-0.002880977466702461,0.006201901473104954,-0.02055776119232178,0.002014070749282837,0.0002915859222412109,2,0.3543228881212809,-0.5428642759508849,-0.3508476589412916,-0.6757659927299352,0.9823251366615295,0.09795339405536652,-0.1595073342323303,20.92283630371094,-2.7664794921875,14.073486328125,2,9530.485518000001,2,0,1580905814.726684,1580903939.50652,1577,0.4102195,0,0,2131.439,1,0,1580905796.492468,9529.841414,0,-1.622375,97.22193
1580905816.865567,25,0,1580904337.000819,41.20701635159924,29.07533761282497,172.748,-1,-1,5.74967098236084,48.00724964208526,-9999,9532.641988791667,0.9510498046875,0.0970001220703125,-0.16888427734375,9532.636922791668,1.041265999000769,1.409919332548008,-0.09799418021407513,0.001638105139136314,0.01438749022781849,0.01242144778370857,-0.006546139717102051,0.004968374967575073,-0.003142237663269043,2,0.3543095308346799,-0.5429153087806765,-0.3508738008833302,-0.6757183935809976,0.9823516011238098,0.0978374183177948,-0.1594154536724091,20.92283630371094,-2.7664794921875,14.073486328125,2,9530.485518000001,2,0,1580905814.726684,1580903939.50652,1577,0.4102195,0,0,2131.439,1,0,1580905796.492468,9529.841414,0,-1.622375,97.22193
1580905816.876277,26,0,1580904337.000819,41.20701635159924,29.07533761282497,172.748,-1,-1,5.74967098236084,48.00724964208526,-9999,9532.652028791666,0.968994140625,0.0928802490234375,-0.1667938232421875,9532.646993791668,1.041294341883477,1.409945861310368,-0.0979002417115402,-0.00148038612678647,-0.0008949730545282364,0.0106399804353714,-0.03292667865753174,-0.0009041726589202881,-0.010872483253479,2,0.3542916351372077,-0.5429383122510886,-0.3509059165647884,-0.6756925856700732,0.98236483335495,0.0977439284324646,-0.159390851855278,20.75946807861328,-2.622581481933594,14.16851806640625,2,9530.485518000001,2,0,1580905814.726684,1580903939.50652,1577,0.4102195,0,0,2131.439,1,0,1580905796.492468,9529.841414,0,-1.622375,97.22193
1580905816.885623,27,0,1580904337.000819,41.20701635159924,29.07533761282497,172.748,-1,-1,5.74967098236084,48.00724964208526,-9999,9532.662068791667,0.9505157470703125,0.09423828125,-0.169342041015625,9532.657033791667,1.041311693214389,1.410091541193735,-0.09780084211282261,0.001564405858516693,0.01765101402997971,0.01208953931927681,-0.0150151252746582,-0.004924982786178589,-0.008923828601837158,2,0.3542898872008187,-0.5430046292149657,-0.3509148009921052,-0.6756356106024958,0.9823976755142212,0.09764500707387924,-0.1592492908239365,20.75946807861328,-2.622581481933594,14.16851806640625,2,9530.485518000001,2,0,1580905814.726684,1580903939.50652,1577,0.4102195,0,0,2131.439,1,0,1580905796.492468,9529.841414,0,-1.622375,97.22193
1580905816.895544,28,0,1580904337.000819,41.20701635159924,29.07533761282497,172.748,-1,-1,5.74967098236084,48.00724964208526,-9999,9532.672109791667,0.9675140380859375,0.095550537109375,-0.1625213623046875,9532.667073791667,1.041333252190533,1.410246692605631,-0.09772534424963894,-0.0013896394520998,0.01623812317848206,0.009425142779946327,-0.03352570533752441,-0.003491669893264771,-0.01162374019622803,2,0.3542986834429267,-0.5430685272679366,-0.3509164844220989,-0.6755786678444213,0.9824295043945312,0.09756986796855927,-0.1590980291366577,20.84555053710938,-2.611732482910156,14.12274169921875,2,9530.485518000001,2,0,1580905814.726684,1580903939.50652,1577,0.4102195,0,0,2131.439,1,0,1580905796.492468,9529.841414,0,-1.622375,97.22193
1580905816.906062,29,0,1580904337.000819,41.20701635159924,29.07533761282497,172.748,-1,-1,5.74967098236084,48.00724964208526,-9999,9532.682149791668,0.97076416015625,0.102691650390625,-0.162933349609375,9532.677113791668,1.041337804243331,1.41031416167126,-0.09764749248841668,0.002073268406093121,0.007994839921593666,0.009472813457250595,-0.01654565334320068,-0.002101868391036987,-0.004868149757385254,2,0.354286691521976,-0.5431063056656061,-0.3509286485130028,-0.6755482536126857,0.9824477434158325,0.09749238938093185,-0.1590329557657242,20.84555053710938,-2.611732482910156,14.12274169921875,2,9530.485518000001,2,0,1580905814.726684,1580903939.50652,1577,0.4102195,0,0,2131.439,1,0,1580905796.492468,9529.841414,0,-1.622375,97.22193
1580905816.915693,30,0,1580904337.000819,41.20701635159924,29.07533761282497,172.748,-1,-1,5.74967098236084,48.00724964208526,-9999,9532.692189791667,0.9681854248046875,0.10052490234375,-0.1610565185546875,9532.687154791667,1.041355373396676,1.410350235894709,-0.09755973792893094,-0.0006939871236681938,0.006587998941540718,0.009690998122096062,-0.0133097767829895,0.005126774311065674,-0.005314409732818604,2,0.3542695354872283,-0.5431331821790445,-0.3509536438862881,-0.6755226483531246,0.9824619293212891,0.09740505367517471,-0.158998891711235,20.86272430419922,-2.607269287109375,14.186767578125,2,9530.485518000001,2,0,1580905814.726684,1580903939.50652,1577,0.4102195,0,0,2131.439,1,0,1580905796.492468,9529.841414,0,-1.622375,97.22193
1580905816.925633,31,0,1580904337.000819,41.20701635159924,29.07533761282497,172.748,-1,-1,5.74967098236084,48.00724964208526,-9999,9532.702229791666,0.964691162109375,0.0998687744140625,-0.1586761474609375,9532.697194791668,1.04136170589933,1.410263407943849,-0.09742522607402777,0.002387556247413158,-0.009928394109010696,0.01643012650310993,-0.01588749885559082,0.003094106912612915,-0.003349661827087402,2,0.3542126276874099,-0.5431300535289016,-0.3510101966555879,-0.6755258200388679,0.9824612140655518,0.09727117419242859,-0.1590863168239594,21.05131530761719,-2.668857574462891,13.89047241210938,2,9530.485518000001,2,0,1580905814.726684,1580903939.50652,1577,0.4102195,0,0,2131.439,1,0,1580905796.492468,9529.841414,0,-1.622375,97.22193
1580905816.936343,32,0,1580904337.000819,41.20701635159924,29.07533761282497,172.748,-1,-1,5.74967098236084,48.00724964208526,-9999,9532.712300791667,0.959747314453125,0.1022796630859375,-0.1578826904296875,9532.707234791667,1.041337876812001,1.410222368601552,-0.0972180216024577,0.006064523942768574,0.0002606157213449478,0.02000240981578827,-0.01939511299133301,0.002644568681716919,-0.0009257793426513672,2,0.3541322549522196,-0.5431624315022133,-0.3510694927474211,-0.6755110071479115,0.9824744462966919,0.09706495702266693,-0.1591298431158066,21.05131530761719,-2.668857574462891,13.89047241210938,2,9530.485518000001,2,0,1580905814.726684,1580903939.50652,1577,0.4102195,0,0,2131.439,1,0,1580905796.492468,9529.841414,0,-1.622375,97.22193
1580905816.945754,33,0,1580904337.000819,41.20701635159924,29.07533761282497,172.748,-1,-1,5.74967098236084,48.00724964208526,-9999,9532.722340791668,0.9641571044921875,0.107879638671875,-0.1578369140625,9532.717275791667,1.041264752278309,1.410087373155073,-0.09689476843251139,0.01109177339822054,-0.01311990432441235,0.03115253336727619,-0.02434837818145752,0.005377709865570068,5.483627319335938e-06,2,0.3539845808634564,-0.543195342338188,-0.3511624216678903,-0.6755136120486482,0.9824838638305664,0.09674321860074997,-0.159267470240593,20.86696624755859,-2.681472778320312,13.9588623046875,2,9530.485518000001,2,0,1580905814.726684,1580903939.50652,1577,0.4102195,0,0,2131.439,1,0,1580905796.492468,9529.841414,0,-1.622375,97.22193
1580905816.955897,34,0,1580904337.000819,41.20701635159924,29.07533761282497,172.748,-1,-1,5.74967098236084,48.00724964208526,-9999,9532.732381791668,0.96099853515625,0.1064910888671875,-0.1564483642578125,9532.727315791668,1.041114222117232,1.40985275455335,-0.09647750686472986,0.02129702642560005,-0.0177395511418581,0.03732200711965561,-0.01994079351425171,0.01139366626739502,0.000288844108581543,2,0.3537680212309342,-0.5432273569620064,-0.3512740722339251,-0.6755433676341412,0.982486367225647,0.09632790833711624,-0.1595044583082199,20.86696624755859,-2.681472778320312,13.9588623046875,2,9530.485518000001,2,0,1580905814.726684,1580903939.50652,1577,0.4102195,0,0,2131.439,1,0,1580905796.492468,9529.841414,0,-1.622375,97.22193
1580905816.966218,35,0,1580904337.000819,41.20701635159924,29.07533761282497,172.748,-1,-1,5.74967098236084,48.00724964208526,-9999,9532.742421791667,0.971771240234375,0.1025238037109375,-0.156829833984375,9532.737355791667,1.040940128877167,1.409413439820689,-0.09599013273924954,0.02419427782297134,-0.04003819823265076,0.04488591104745865,-0.02307546138763428,0.01049104332923889,0.0021170973777771,2,0.3534865178978339,-0.5432085238135973,-0.351434185423932,-0.67562248640331,0.9824622869491577,0.09584279358386993,-0.1599435657262802,21.04749298095703,-2.684642791748047,13.955078125,2,9530.485518000001,2,0,1580905814.726684,1580903939.50652,1577,0.4102195,0,0,2131.439,1,0,1580905796.492468,9529.841414,0,-1.622375,97.22193
1580905816.975732,36,0,1580904337.000819,41.20701635159924,29.07533761282497,172.748,-1,-1,5.74967098236084,48.00724964208526,-9999,9532.752461791668,0.963287353515625,0.09619140625,-0.163665771484375,9532.747395791666,1.0407320027649,1.408883421499063,-0.09544608371263211,0.02712295576930046,-0.05059763044118881,0.05061516910791397,-0.01226913928985596,0.007066220045089722,0.002265572547912598,2,0.3531614149358617,-0.5431764830659603,-0.3516151297930739,-0.6757241171569677,0.9824286699295044,0.09530123323202133,-0.160472646355629,21.04749298095703,-2.684642791748047,13.955078125,2,9530.485518000001,2,0,1580905814.726684,1580903939.50652,1577,0.4102195,0,0,2131.439,1,0,1580905796.492468,9529.841414,0,-1.622375,97.22193
1580905816.985894,37,0,1580904337.000819,41.20701635159924,29.07533761282497,172.748,-1,-1,5.74967098236084,48.00724964208526,-9999,9532.762502791667,0.954986572265625,0.0938720703125,-0.1624298095703125,9532.757466791667,1.040496179725712,1.40837983483164,-0.09487465019943726,0.03179494291543961,-0.04552644118666649,0.05266900360584259,-0.02072566747665405,0.001303642988204956,-0.004066109657287598,2,0.352824477756339,-0.5431637089876358,-0.3517898207760375,-0.6758194811355298,0.9824013710021973,0.0947323814034462,-0.1609761416912079,20.8682861328125,-2.749805450439453,13.91439819335938,2,9530.485518000001,2,0,1580905814.726684,1580903939.50652,1577,0.4102195,0,0,2131.439,1,0,1580905796.492468,9529.841414,0,-1.622375,97.22193
1580905816.995931,38,0,1580904337.000819,41.20701635159924,29.07533761282497,172.748,-1,-1,5.74967098236084,48.00724964208526,-9999,9532.772542791667,0.944305419921875,0.092498779296875,-0.177947998046875,9532.767506791668,1.040344795606292,1.408027247864819,-0.09431936421867858,0.02183125913143158,-0.03686291351914406,0.05342640727758408,-0.02902132272720337,-0.0004620254039764404,-0.002474546432495117,2,0.3525421273779483,-0.5431837049272357,-0.3519615986527262,-0.675861341500045,0.9823963046073914,0.09417957812547684,-0.1613310277462006,20.8682861328125,-2.749805450439453,13.91439819335938,2,9530.485518000001,2,0,1580905814.726684,1580903939.50652,1577,0.4102195,0,0,2131.439,1,0,1580905796.492468,9529.841414,0,-1.622375,97.22193
1580905817.005922,39,0,1580904337.000819,41.20701635159924,29.07533761282497,172.748,-1,-1,5.74967098236084,48.00724964208526,-9999,9532.782582791668,0.941192626953125,0.104827880859375,-0.19000244140625,9532.777547791668,1.0401730853218,1.408292175122176,-0.09365116486655606,0.02828356251120567,0.02961251698434353,0.06292589753866196,-0.03980731964111328,-0.001169025897979736,-0.01824325323104858,2,0.3523263927202065,-0.5434387317155279,-0.3520503149657136,-0.6757227003559044,0.9825010299682617,0.0935143306851387,-0.1610809117555618,20.79966735839844,-2.738067626953125,13.92269897460938,2,9530.485518000001,2,0,1580905814.726684,1580903939.50652,1577,0.4102195,0,0,2131.439,1,0,1580905796.492468,9529.841414,0,-1.622375,97.22193
1580905817.016008,40,0,1580904337.000819,41.20701635159924,29.07533761282497,172.748,-1,-1,5.74967098236084,48.00724964208526,-9999,9532.792622791667,0.94525146484375,0.09869384765625,-0.1667938232421875,9532.787587791667,1.0399684182343,1.408915991048095,-0.09283327418111333,0.03415263816714287,0.06715057045221329,0.07778553664684296,-0.04309570789337158,0.01197582483291626,-0.0308992862701416,2,0.3521165858229208,-0.5438508876131646,-0.3521080642987121,-0.6754702527531358,0.9826763868331909,0.09269998967647552,-0.1604802459478378,20.79966735839844,-2.738067626953125,13.92269897460938,2,9530.485518000001,2,0,1580905814.726684,1580903939.50652,1577,0.4102195,0,0,2131.439,1,0,1580905796.492468,9529.841414,0,-1.622375,97.22193
1580905817.0259,41,0,1580904337.000819,41.20701635159924,29.07533761282497,172.748,-1,-1,5.74967098236084,48.00724964208526,-9999,9532.802663791666,0.9737091064453125,0.0951080322265625,-0.1588287353515625,9532.797627791668,1.039744793540142,1.40954026302775,-0.09185925130120733,0.03831808641552925,0.06543868780136108,0.0922294557094574,-0.03922563791275024,0.006813228130340576,-0.008290648460388184,2,0.3518512528713257,-0.5442978133312935,-0.3522046713113745,-0.6751980847041126,0.9828649759292603,0.09173011779785156,-0.1598811745643616,20.76473236083984,-2.634780883789062,13.96884155273438,2,9530.485518000001,2,0,1580905814.726684,1580903939.50652,1577,0.4102195,0,0,2131.439,1,0,1580905796.492468,9529.841414,0,-1.622375,97.22193
1580905817.036262,42,0,1580904337.000819,41.20701635159924,29.07533761282497,172.748,-1,-1,5.74967098236084,48.00724964208526,-9999,9532.812717625,0.9709625244140625,0.0993804931640625,-0.15838623046875,9532.807668791667,1.039446144537651,1.410092682904813,-0.09068637106054293,0.04831825941801071,0.05693627893924713,0.1142838969826698,-0.01096189022064209,0.004397392272949219,-0.0008521080017089844,2,0.3514885640377684,-0.5447734717776216,-0.3523463186431097,-0.6749294631480222,0.983058750629425,0.0905621200799942,-0.1593553125858307,20.76473236083984,-2.634780883789062,13.96884155273438,2,9530.485518000001,2,0,1580905814.726684,1580903939.50652,1577,0.4102195,0,0,2131.439,1,0,1580905796.492468,9529.841414,0,-1.622375,97.22193
1580905817.046037,43,0,1580904337.000819,41.20701635159924,29.07533761282497,172.748,-1,-1,5.74967098236084,48.00724964208526,-9999,9532.822757625001,0.9824676513671875,0.0880889892578125,-0.1566925048828125,9532.817722625001,1.039066322162624,1.410444352999516,-0.08949056788215289,0.05837895721197128,0.04022916406393051,0.1130465045571327,-0.0138707160949707,0.009862780570983887,-0.0007385015487670898,2,0.3510608813053246,-0.5451998496015485,-0.3525026049644358,-0.6747261328395083,0.9832209348678589,0.08937116712331772,-0.1590267568826675,20.82698822021484,-2.748722076416016,14.00042724609375,2,9530.485518000001,2,0,1580905814.726684,1580903939.50652,1577,0.4102195,0,0,2131.439,1,0,1580905796.492468,9529.841414,0,-1.622375,97.22193
1580905817.056377,44,0,1580904337.000819,41.20701635159924,29.07533761282497,172.748,-1,-1,5.74967098236084,48.00724964208526,-9999,9532.832828625,0.9752349853515625,0.0974578857421875,-0.1627655029296875,9532.827762625,1.038696751438171,1.410563901804744,-0.08824397215680284,0.05751737207174301,0.01357014663517475,0.1215839833021164,-0.002493858337402344,-0.0001849830150604248,0.0008553266525268555,2,0.3505784780092491,-0.5455559480284452,-0.3527178353632865,-0.6745766591165093,0.9833492040634155,0.08812949061393738,-0.1589268743991852,20.82698822021484,-2.748722076416016,14.00042724609375,2,9530.485518000001,2,0,1580905814.726684,1580903939.50652,1577,0.4102195,0,0,2131.439,1,0,1580905796.492468,9529.841414,0,-1.622375,97.22193
1580905817.066325,45,0,1580904337.000819,41.20701635159924,29.07533761282497,172.748,-1,-1,5.74967098236084,48.00724964208526,-9999,9532.842868625001,0.9627227783203125,0.0942840576171875,-0.1760101318359375,9532.837802625001,1.03827804141631,1.410710439134479,-0.08699331643769236,0.06312279403209686,0.01834865473210812,0.11753810942173,-0.009857892990112305,0.01043176651000977,-0.005344510078430176,2,0.350085960051201,-0.5459301440303361,-0.3529129035082426,-0.6744275279664323,0.9834803342819214,0.08688363432884216,-0.1588001996278763,20.86775207519531,-2.537994384765625,13.91073608398438,2,9530.485518000001,2,0,1580905814.726684,1580903939.50652,1577,0.4102195,0,0,2131.439,1,0,1580905796.492468,9529.841414,0,-1.622375,97.22193
1580905817.076307,46,0,1580904337.000819,41.20701635159924,29.07533761282497,172.748,-1,-1,5.74967098236084,48.00724964208526,-9999,9532.852909625,0.9603271484375,0.0868682861328125,-0.1708221435546875,9532.847843625001,1.037843801990165,1.411036257929026,-0.08567276817029171,0.063194639980793,0.03788977488875389,0.1257135570049286,-0.02253425121307373,0.008575707674026489,-0.01889169216156006,2,0.3495979466664704,-0.5463811267436739,-0.353091643626102,-0.6742219562049521,0.9836445450782776,0.08556800335645676,-0.1584978848695755,20.86775207519531,-2.537994384765625,13.91073608398438,2,9530.485518000001,2,0,1580905814.726684,1580903939.50652,1577,0.4102195,0,0,2131.439,1,0,1580905796.492468,9529.841414,0,-1.622375,97.22193
1580905817.086445,47,0,1580904337.000819,41.20701635159924,29.07533761282497,172.748,-1,-1,5.74967098236084,48.00724964208526,-9999,9532.862949625001,0.9543304443359375,0.0817718505859375,-0.161590576171875,9532.857883625,1.037296803369878,1.411512039705579,-0.08437863866360827,0.07515702396631241,0.05638968572020531,0.1182540506124496,-0.02511405944824219,0.002451539039611816,-0.01415503025054932,2,0.3491139294598748,-0.5468965293186496,-0.353198639956831,-0.6739988431090026,0.9838283658027649,0.08427854627370834,-0.1580473035573959,20.96111297607422,-2.943588256835938,13.833740234375,2,9530.485518000001,2,0,1580905814.726684,1580903939.50652,1577,0.4102195,0,0,2131.439,1,0,1580905796.492468,9529.841414,0,-1.622375,97.22193
1580905817.09647,48,0,1580904337.000819,41.20701635159924,29.07533761282497,172.748,-1,-1,5.74967098236084,48.00724964208526,-9999,9532.872989625001,0.9852142333984375,0.084442138671875,-0.157684326171875,9532.867923625001,1.036684508130179,1.411931750936523,-0.08313851972588904,0.07853475213050842,0.04757820069789886,0.1153976321220398,-0.03127962350845337,-0.001407086849212646,-0.005320608615875244,2,0.3486193957670216,-0.5473930329112704,-0.3532779540295054,-0.6738101267422203,0.9839970469474792,0.08304277807474136,-0.1576507687568665,20.96111297607422,-2.943588256835938,13.833740234375,2,9530.485518000001,2,0,1580905814.726684,1580903939.50652,1577,0.4102195,0,0,2131.439,1,0,1580905796.492468,9529.841414,0,-1.622375,97.22193
1580905817.106463,49,0,1580904337.000819,41.20701635159924,29.07533761282497,172.748,-1,-1,5.74967098236084,48.00724964208526,-9999,9532.883030625,0.973907470703125,0.100341796875,-0.1557464599609375,9532.877994625,1.035980487043113,1.412304896438776,-0.08201865816131632,0.08505736291408539,0.04431955516338348,0.1015308126807213,-0.0005458593368530273,0.002381116151809692,-0.001767396926879883,2,0.3481301425719469,-0.5478652402848707,-0.3532998504071779,-0.6736678172757959,0.9841470122337341,0.08192673325538635,-0.1572981625795364,20.88532257080078,-2.842262268066406,13.66989135742188,2,9530.485518000001,2,0,1580905814.726684,1580903939.50652,1577,0.4102195,0,0,2131.439,1,0,1580905796.492468,9529.841414,0,-1.622375,97.22193
1580905817.116546,50,0,1580904337.000819,41.20701635159924,29.07533761282497,172.748,-1,-1,5.74967098236084,48.00724964208526,-9999,9532.893070625001,0.9875640869140625,0.08734130859375,-0.160369873046875,9532.888034625001,1.03507675311137,1.412620172086502,-0.08121091232167812,0.103590115904808,0.03862141817808151,0.06499189138412476,-0.01196718215942383,0.01908713579177856,-0.0001297593116760254,2,0.347676701385866,-0.5482898771549106,-0.3531743670645795,-0.6736222665337205,0.9842615127563477,0.08112167567014694,-0.1569982469081879,20.88532257080078,-2.842262268066406,13.66989135742188,2,9530.485518000001,2,0,1580905814.726684,1580903939.50652,1577,0.4102195,0,0,2131.439,1,0,1580905796.492468,9529.841414,0,-1.622375,97.22193
1580905817.126516,51,0,1580904337.000819,41.20701635159924,29.07533761282497,172.748,-1,-1,5.74967098236084,48.00724964208526,-9999,9532.903110625,0.96453857421875,0.076904296875,-0.1587982177734375,9532.898075625,1.034116601165089,1.412946185476896,-0.08070917769721059,0.1019184440374374,0.04037909954786301,0.03591470047831535,0.0015982985496521,0.006587594747543335,-0.005067944526672363,2,0.3473084374118866,-0.5486665434309681,-0.3529395752997908,-0.6736286922353752,0.9843528270721436,0.08062158524990082,-0.1566837430000305,20.73906707763672,-2.724594116210938,13.7708740234375,2,9530.485518000001,2,0,1580905814.726684,1580903939.50652,1577,0.4102195,0,0,2131.439,1,0,1580905796.492468,9529.841414,0,-1.622375,97.22193
1580905817.136511,52,0,1580904337.000819,41.20701635159924,29.07533761282497,172.748,-1,-1,5.74967098236084,48.00724964208526,-9999,9532.913150625001,0.969146728515625,0.0775299072265625,-0.161285400390625,9532.908115625001,1.033088529065421,1.413264422022166,-0.08048467371091389,0.1046155318617821,0.03753329813480377,0.003906002268195152,-0.02149498462677002,-0.003625273704528809,-0.003807187080383301,2,0.3470097302666286,-0.54899689240409,-0.3526030580480597,-0.6736897176166355,0.9844204783439636,0.08039780706167221,-0.1563733220100403,20.73906707763672,-2.724594116210938,13.7708740234375,2,9530.485518000001,2,0,1580905814.726684,1580903939.50652,1577,0.4102195,0,0,2131.439,1,0,1580905796.492468,9529.841414,0,-1.622375,97.22193
1580905817.146591,53,0,1580904337.000819,41.20701635159924,29.07533761282497,172.748,-1,-1,5.74967098236084,48.00724964208526,-9999,9532.923191625001,0.9673309326171875,0.0785064697265625,-0.15557861328125,9532.918155625001,1.03201940402856,1.413558432746575,-0.08033371475825871,0.1053436398506165,0.041018046438694,-0.001486898865550756,-0.0169445276260376,-0.002848923206329346,-0.006582260131835938,2,0.3467190963762736,-0.5493113726070312,-0.3522356354351216,-0.67377514333748,0.9844783544540405,0.08024733513593674,-0.1560857743024826,20.83147430419922,-2.822696685791016,13.53463745117188,2,9530.485518000001,2,0,1580905814.726684,1580903939.50652,1577,0.4102195,0,0,2131.439,1,0,1580905796.492468,9529.841414,0,-1.622375,97.22193
1580905817.156585,54,0,1580904337.000819,41.20701635159924,29.07533761282497,172.748,-1,-1,5.74967098236084,48.00724964208526,-9999,9532.933231625,0.9625244140625,0.1136932373046875,-0.1648712158203125,9532.928196625,1.030768096911935,1.413786152538261,-0.0800635044133457,0.1249896287918091,0.03651926666498184,0.00962521880865097,-0.01881718635559082,-0.00160256028175354,-0.001096487045288086,2,0.3463278091548948,-0.5496585877022334,-0.3518528983040023,-0.6738932264434999,0.984535276889801,0.07997799664735794,-0.1558649688959122,20.83147430419922,-2.822696685791016,13.53463745117188,2,9530.485518000001,2,0,1580905814.726684,1580903939.50652,1577,0.4102195,0,0,2131.439,1,0,1580905796.492468,9529.841414,0,-1.622375,97.22193
1580905817.166793,55,0,1580904337.000819,41.20701635159924,29.07533761282497,172.748,-1,-1,5.74967098236084,48.00724964208526,-9999,9532.943302625001,0.96923828125,0.13275146484375,-0.168609619140625,9532.938236625001,1.02904976759564,1.413998285446531,-0.07971623528765959,0.1722428947687149,0.03336555138230324,0.008084313943982124,-0.02368414402008057,0.03393089771270752,-0.0105939507484436,2,0.3457800943177007,-0.5500962732435973,-0.3513377902975958,-0.6740860151458546,0.9845956563949585,0.07963183522224426,-0.1556604355573654,21.10020446777344,-2.869483947753906,13.4488525390625,2,9530.485518000001,2,0,1580905814.726684,1580903939.50652,1577,0.4102195,0,0,2131.439,1,0,1580905796.492468,9529.841414,0,-1.622375,97.22193
1580905817.177224,56,0,1580904337.000819,41.20701635159924,29.07533761282497,172.748,-1,-1,5.74967098236084,48.00724964208526,-9999,9532.953342625,0.9593658447265625,0.11444091796875,-0.1676788330078125,9532.948276625,1.026833296246476,1.414284270668927,-0.07928772193787775,0.2245008200407028,0.04722688347101212,0.007890523411333561,-0.01704871654510498,0.05341699719429016,-0.01460915803909302,2,0.345081296301292,-0.5506603463328525,-0.3506655076864849,-0.6743336404741994,0.984673798084259,0.07920467108488083,-0.1553841680288315,21.10020446777344,-2.869483947753906,13.4488525390625,2,9530.485518000001,2,0,1580905814.726684,1580903939.50652,1577,0.4102195,0,0,2131.439,1,0,1580905796.492468,9529.841414,0,-1.622375,97.22193
1580905817.186993,57,0,1580904337.000819,41.20701635159924,29.07533761282497,172.748,-1,-1,5.74967098236084,48.00724964208526,-9999,9532.963382625001,0.9880523681640625,0.0805511474609375,-0.161041259765625,9532.958316625001,1.024387029870719,1.414490922680034,-0.07874897665778859,0.2511337399482727,0.04042597115039825,0.0147588150575757,-0.02699530124664307,0.03564438223838806,-0.01387560367584229,2,0.3442687115650188,-0.5512580258121602,-0.3499612592055883,-0.6746263887384804,0.9847478270530701,0.07866761088371277,-0.1551872789859772,20.87239837646484,-2.738430023193359,13.72958374023438,2,9530.485518000001,2,0,1580905814.726684,1580903939.50652,1577,0.4102195,0,0,2131.439,1,0,1580905796.492468,9529.841414,0,-1.622375,97.22193
1580905817.196868,58,0,1580904337.000819,41.20701635159924,29.07533761282497,172.748,-1,-1,5.74967098236084,48.00724964208526,-9999,9532.973423625001,0.994873046875,0.0574188232421875,-0.141021728515625,9532.968357625001,1.022071096834405,1.4143303263283,-0.07808585230159494,0.2395516335964203,0.004817262291908264,0.03489489108324051,0.001664936542510986,0.002416819334030151,-0.007071375846862793,2,0.3433865431982054,-0.551732650326734,-0.3493999999392456,-0.674978836829407,0.9847742319107056,0.07800652086734772,-0.1553535312414169,20.87239837646484,-2.738430023193359,13.72958374023438,2,9530.485518000001,2,0,1580905814.726684,1580903939.50652,1577,0.4102195,0,0,2131.439,1,0,1580905796.492468,9529.841414,0,-1.622375,97.22193
1580905817.206763,59,0,1580904337.000819,41.20701635159924,29.07533761282497,172.748,-1,-1,5.74967098236084,48.00724964208526,-9999,9532.983463625,0.9747161865234375,0.060943603515625,-0.1455535888671875,9532.978397625,1.020003837737246,1.413682685481926,-0.07751313733547678,0.2121687382459641,-0.04774954169988632,0.02554852329194546,0.008542358875274658,-0.02014362812042236,0.01359373331069946,2,0.342516795300614,-0.5519810960391498,-0.3489794367510958,-0.6754349725264449,0.9847173094749451,0.07743553817272186,-0.1559982299804688,20.89612579345703,-2.520095825195312,13.63821411132812,2,9530.485518000001,2,0,1580905814.726684,1580903939.50652,1577,0.4102195,0,0,2131.439,1,0,1580905796.492468,9529.841414,0,-1.622375,97.22193
1580905817.217085,60,0,1580904337.000819,41.20701635159924,29.07533761282497,172.748,-1,-1,5.74967098236084,48.00724964208526,-9999,9532.993503625001,0.9519500732421875,0.067840576171875,-0.15606689453125,9532.988468625001,1.018122014295484,1.412853488993638,-0.07699660504013653,0.1912451684474945,-0.07035981863737106,0.02072305604815483,-0.01152408123016357,-0.01610296964645386,0.009885966777801514,2,0.3416845383526367,-0.552124248501304,-0.3486355026286887,-0.675917003481541,0.9846270680427551,0.07692054659128189,-0.1568209826946259,20.89612579345703,-2.520095825195312,13.63821411132812,2,9530.485518000001,2,0,1580905814.726684,1580903939.50652,1577,0.4102195,0,0,2131.439,1,0,1580905796.492468,9529.841414,0,-1.622375,97.22193
1580905817.229974,61,0,1580904337.000819,41.20701635159924,29.07533761282497,172.748,-1,-1,5.74967098236084,48.00724964208526,-9999,9533.003543625,0.9300384521484375,0.091094970703125,-0.1715545654296875,9532.998508625,1.016227431451377,1.412313820096225,-0.07640321031710909,0.1953448504209518,-0.04037582129240036,0.03010031022131443,-0.03425037860870361,-0.008613467216491699,-8.815526962280273e-05,2,0.3408739916254261,-0.5523813688396793,-0.3482593859368646,-0.676309872035904,0.9845870733261108,0.07632889598608017,-0.1573594957590103,20.88734436035156,-2.593292236328125,13.62713623046875,2,9530.485518000001,2,0,1580905814.726684,1580903939.50652,1577,0.4102195,0,0,2131.439,1,0,1580905796.492468,9529.841414,0,-1.622375,97.22193
1580905817.267486,62,0,1580904337.000819,41.20701635159924,29.07533761282497,172.748,-1,-1,5.74967098236084,48.00724964208526,-9999,9533.013584625001,0.922607421875,0.119171142578125,-0.1785888671875,9533.008548625001,1.013962539132487,1.412355815892028,-0.07572746887145723,0.2304228395223618,0.02252875454723835,0.03147699311375618,-0.05621963739395142,0.01531586050987244,-0.0156092643737793,2,0.3400349999297764,-0.5529132622383398,-0.3476824180977063,-0.6765943966470369,0.9846444129943848,0.07565511018037796,-0.1573262512683868,20.88734436035156,-2.593292236328125,13.62713623046875,2,9530.485518000001,2,0,1580905814.726684,1580903939.50652,1577,0.4102195,0,0,2131.439,1,0,1580905796.492468,9529.841414,0,-1.622375,97.22193
1580905817.269154,63,0,1580904337.000819,41.20701635159924,29.07533761282497,172.748,-1,-1,5.74967098236084,48.00724964208526,-9999,9533.023624625001,0.93792724609375,0.1696319580078125,-0.166412353515625,9533.018589625,1.010809331640927,1.412808345270179,-0.07499392493350208,0.3209122717380524,0.07578399032354355,0.03017177805304527,-0.06377643346786499,0.04412472248077393,-0.02308106422424316,2,0.3390016140999264,-0.5537447277407727,-0.3467517793973446,-0.6769106245313014,0.9847701787948608,0.07492364943027496,-0.1568893641233444,20.86129760742188,-2.596271514892578,13.733642578125,2,9530.485518000001,2,0,1580905814.726684,1580903939.50652,1577,0.4102195,0,0,2131.439,1,0,1580905796.492468,9529.841414,0,-1.622375,97.22193
1580905817.270599,64,0,1580904337.000819,41.20701635159924,29.07533761282497,172.748,-1,-1,5.74967098236084,48.00724964208526,-9999,9533.033664625,0.9780120849609375,0.162933349609375,-0.1636199951171875,9533.028629625001,1.006594969344452,1.413189645791811,-0.07441207247058408,0.4270082712173462,0.06840585172176361,-0.006940791383385658,-0.04855930805206299,0.09516668319702148,-0.01127392053604126,2,0.3377096079716924,-0.5546998253427751,-0.3454295390922466,-0.6774501210549382,0.9848726987838745,0.07434342056512833,-0.1565206497907639,20.86129760742188,-2.596271514892578,13.733642578125,2,9530.485518000001,2,0,1580905814.726684,1580903939.50652,1577,0.4102195,0,0,2131.439,1,0,1580905796.492468,9529.841414,0,-1.622375,97.22193
1580905817.272052,65,0,1580904337.000819,41.20701635159924,29.07533761282497,172.748,-1,-1,5.74967098236084,48.00724964208526,-9999,9533.043705625001,0.9616546630859375,0.13592529296875,-0.1553955078125,9533.038669625001,1.001708725770553,1.413559290382779,-0.07362838912687106,0.4951990246772766,0.07986543327569962,0.005860758014023304,-0.00858992338180542,0.08925089240074158,-0.008837223052978516,2,0.3361602403830634,-0.5557998370686549,-0.3439395935931222,-0.6780769519834183,0.984987735748291,0.0735618844628334,-0.156165674328804,21.02577972412109,-2.546287536621094,13.73443603515625,2,9530.485518000001,2,0,1580905814.726684,1580903939.50652,1577,0.4102195,0,0,2131.439,1,0,1580905796.492468,9529.841414,0,-1.622375,97.22193
1580905817.277265,66,0,1580904337.000819,41.20701635159924,29.07533761282497,172.748,-1,-1,5.74967098236084,48.00724964208526,-9999,9533.053775625001,0.97686767578125,0.1172943115234375,-0.1627197265625,9533.048709625,0.9964584481022983,1.413819188831999,-0.07258867402060536,0.5348525643348694,0.06533291935920715,0.02345752343535423,-0.025063157081604,0.06328144669532776,-0.000857234001159668,2,0.3344033746509746,-0.5569682305654032,-0.3424181708731834,-0.6787566519381139,0.9851033687591553,0.07252494245767593,-0.1559215486049652,21.02577972412109,-2.546287536621094,13.73443603515625,2,9530.485518000001,2,0,1580905814.726684,1580903939.50652,1577,0.4102195,0,0,2131.439,1,0,1580905796.492468,9529.841414,0,-1.622375,97.22193
1580905817.291663,67,0,1580904337.000819,41.20701635159924,29.07533761282497,172.748,-1,-1,5.74967098236084,48.00724964208526,-9999,9533.063816625001,0.963409423828125,0.081298828125,-0.1556243896484375,9533.058750625001,0.9911148990747602,1.413973134340163,-0.07152975034296712,0.5402747988700867,0.04451711848378181,0.01526484079658985,-0.009949684143066406,0.04570835828781128,-0.008321702480316162,2,0.3325923345745754,-0.5581141911315393,-0.3408870657208264,-0.6794753513657233,0.9852025508880615,0.0714687705039978,-0.1557817757129669,20.84922790527344,-2.453937530517578,13.81350708007812,2,9530.485518000001,2,0,1580905814.726684,1580903939.50652,1577,0.4102195,0,0,2131.439,1,0,1580905796.492468,9529.841414,0,-1.622375,97.22193
1580905817.324062,68,0,1580904337.000819,41.20701635159924,29.07533761282497,172.748,-1,-1,5.74967098236084,48.00724964208526,-9999,9533.073856625,0.960906982421875,0.064300537109375,-0.1727294921875,9533.068790625,0.9858105734972582,1.414287337975247,-0.07035437982785071,0.5341939926147461,0.07010343670845032,0.0320664569735527,-0.02353942394256592,0.0108872652053833,-0.001523435115814209,2,0.3307772845851131,-0.5593244012541825,-0.3393754043584719,-0.6801226467844245,0.9853337407112122,0.07029635459184647,-0.1554851979017258,20.84922790527344,-2.453937530517578,13.81350708007812,2,9530.485518000001,2,0,1580905814.726684,1580903939.50652,1577,0.4102195,0,0,2131.439,1,0,1580905796.492468,9529.841414,0,-1.622375,97.22193
1580905817.325685,69,0,1580904337.000819,41.20701635159924,29.07533761282497,172.748,-1,-1,5.74967098236084,48.00724964208526,-9999,9533.083896625001,0.9921417236328125,0.1182861328125,-0.167572021484375,9533.078830625,0.9801171364391168,1.41463275299091,-0.06906219388099819,0.5764967203140259,0.07728172838687897,0.04345626384019852,-0.02618473768234253,-0.004819899797439575,-0.01895540952682495,2,0.3288158015922908,-0.5606253112890625,-0.3377593107731236,-0.6808069177390007,0.9854763746261597,0.06900730729103088,-0.1551588624715805,20.76034545898438,-2.442173004150391,13.81802368164062,2,9530.485518000001,2,0,1580905814.726684,1580903939.50652,1577,0.4102195,0,0,2131.439,1,0,1580905796.492468,9529.841414,0,-1.622375,97.22193
1580905817.326903,70,0,1580904337.000819,41.20701635159924,29.07533761282497,172.748,-1,-1,5.74967098236084,48.00724964208526,-9999,9533.093937625001,0.9830322265625,0.1676177978515625,-0.14434814453125,9533.088871625001,0.9734701838561687,1.414632167647701,-0.06786639804926085,0.6719399690628052,0.04523511603474617,0.01542514562606812,0.004969179630279541,0.05036067962646484,-0.01378452777862549,2,0.3265553974711456,-0.5619390396573011,-0.3358453748937555,-0.6817580896286091,0.9855571985244751,0.06781431287527084,-0.1551721692085266,20.76034545898438,-2.442173004150391,13.81802368164062,2,9530.485518000001,2,0,1580905814.726684,1580903939.50652,1577,0.4102195,0,0,2131.439,1,0,1580905796.492468,9529.841414,0,-1.622375,97.22193
1580905817.328071,71,0,1580904337.000819,41.20701635159924,29.07533761282497,172.748,-1,-1,5.74967098236084,48.00724964208526,-9999,9533.103977625,0.97967529296875,0.1741485595703125,-0.158782958984375,9533.098941625001,0.9656357951468472,1.41439264447951,-0.06667815757143383,0.7882987856864929,0.03391188755631447,0.003163153305649757,-0.004182159900665283,0.1008797883987427,0.009688198566436768,2,0.3239180074396752,-0.5633531624066871,-0.333559806189567,-0.6829702169577321,0.9855989217758179,0.06662876158952713,-0.1554206758737564,20.70476531982422,-2.417453765869141,14.01950073242188,2,9530.485518000001,2,0,1580905814.726684,1580903939.50652,1577,0.4102195,0,0,2131.439,1,0,1580905796.492468,9529.841414,0,-1.622375,97.22193
1580905817.337591,72,0,1580904337.000819,41.20701635159924,29.07533761282497,172.748,-1,-1,5.74967098236084,48.00724964208526,-9999,9533.114017625001,0.9574432373046875,0.1527099609375,-0.1467742919921875,9533.108982625001,0.9566746917293211,1.414105812784554,-0.06552575942046902,0.9054012894630432,0.03692052140831947,-0.01552049070596695,-0.007569611072540283,0.1085623502731323,-0.004451632499694824,2,0.3209602705361899,-0.5649131696342077,-0.3308812326730751,-0.6843794250416136,0.9856293797492981,0.06547887623310089,-0.1557152271270752,20.70476531982422,-2.417453765869141,14.01950073242188,2,9530.485518000001,2,0,1580905814.726684,1580903939.50652,1577,0.4102195,0,0,2131.439,1,0,1580905796.492468,9529.841414,0,-1.622375,97.22193
1580905817.350232,73,0,1580904337.000819,41.20701635159924,29.07533761282497,172.748,-1,-1,5.74967098236084,48.00724964208526,-9999,9533.124057625,0.9475860595703125,0.1115570068359375,-0.152984619140625,9533.119022625,0.9469797635573436,1.413823580317156,-0.06424523141745585,0.9772533774375916,0.03496868908405304,-0.0125633180141449,-0.02983963489532471,0.08840364217758179,0.007848739624023438,2,0.317745012500841,-0.5665994376054013,-0.3279818502090042,-0.6858797027615122,0.9856672883033752,0.06420104205608368,-0.1560063660144806,20.63087463378906,-2.01861572265625,14.0347900390625,2,9530.485518000001,2,0,1580905814.726684,1580903939.50652,1577,0.4102195,0,0,2131.439,1,0,1580905796.492468,9529.841414,0,-1.622375,97.22193
1580905817.370765,74,0,1580904337.000819,41.20701635159924,29.07533761282497,172.748,-1,-1,5.74967098236084,48.00724964208526,-9999,9533.134098625,0.93646240234375,0.1045989990234375,-0.1573486328125,9533.129062625001,0.9367965071311009,1.413802018028366,-0.06290077444364313,1.024693489074707,0.06737760454416275,-0.0147158894687891,-0.03977823257446289,0.04859465360641479,0.001672863960266113,2,0.3144028847099309,-0.5684455428621769,-0.3248854775304264,-0.6873644121233142,0.9857483506202698,0.06285930424928665,-0.1560409814119339,20.63087463378906,-2.01861572265625,14.0347900390625,2,9530.485518000001,2,0,1580905814.726684,1580903939.50652,1577,0.4102195,0,0,2131.439,1,0,1580905796.492468,9529.841414,0,-1.622375,97.22193
1580905817.372223,75,0,1580904337.000819,41.20701635159924,29.07533761282497,172.748,-1,-1,5.74967098236084,48.00724964208526,-9999,9533.144138625001,0.9557647705078125,0.0572662353515625,-0.150360107421875,9533.139103625001,0.9263614740901344,1.413924009262744,-0.06173644884805158,1.044403314590454,0.07755886763334274,-0.04419521987438202,-0.05099254846572876,0.04280060529708862,-0.002800047397613525,2,0.3110617657012493,-0.5703284510216831,-0.3216200325211678,-0.6888589286235137,0.9858390688896179,0.06169724091887474,-0.1559320688247681,20.46526336669922,-1.890811920166016,14.12301635742188,2,9530.485518000001,2,0,1580905814.726684,1580903939.50652,1577,0.4102195,0,0,2131.439,1,0,1580905796.492468,9529.841414,0,-1.622375,97.22193
1580905817.377691,76,0,1580904337.000819,41.20701635159924,29.07533761282497,172.748,-1,-1,5.74967098236084,48.00724964208526,-9999,9533.154178625,0.9656982421875,0.028839111328125,-0.154022216796875,9533.149143625,0.9160316488285454,1.414139537204552,-0.06076083177269355,1.029289126396179,0.08704090118408203,-0.05956955999135971,-0.03178286552429199,-0.003556758165359497,0.003984928131103516,2,0.3078180330181232,-0.5721744571932104,-0.3183137643653674,-0.6903193069226172,0.9859315752983093,0.0607234500348568,-0.15572889149189,20.46526336669922,-1.890811920166016,14.12301635742188,2,9530.485518000001,2,0,1580905814.726684,1580903939.50652,1577,0.4102195,0,0,2131.439,1,0,1580905796.492468,9529.841414,0,-1.622375,97.22193
1580905817.387789,77,0,1580904337.000819,41.20701635159924,29.07533761282497,172.748,-1,-1,5.74967098236084,48.00724964208526,-9999,9533.164218625001,0.9674835205078125,0.013397216796875,-0.1358184814453125,9533.159183625001,0.9059707802195945,1.414362263126079,-0.06016306274412821,1.000746965408325,0.09199411422014236,-0.08818788826465607,-0.02191972732543945,-0.03138622641563416,0.0001087784767150879,2,0.3047692417497884,-0.5738974053540133,-0.3149807201426607,-0.691769301640601,0.9860020875930786,0.06012677401304245,-0.1555149555206299,20.43018341064453,-1.552566528320312,14.1064453125,2,9530.485518000001,2,0,1580905814.726684,1580903939.50652,1577,0.4102195,0,0,2131.439,1,0,1580905796.492468,9529.841414,0,-1.622375,97.22193
1580905817.397915,78,0,1580904337.000819,41.20701635159924,29.07533761282497,172.748,-1,-1,5.74967098236084,48.00724964208526,-9999,9533.174289625,0.98193359375,-0.048370361328125,-0.1289215087890625,9533.169223625,0.8966053059435471,1.41441109630579,-0.06020866651629084,0.9273235201835632,0.06102479249238968,-0.1465853452682495,-0.02013927698135376,-0.04687374830245972,0.01826381683349609,2,0.3021015626988051,-0.5753272678807649,-0.3117169519501494,-0.693228490933834,0.9860068559646606,0.06017229706048965,-0.1554663628339767,20.43018341064453,-1.552566528320312,14.1064453125,2,9530.485518000001,2,0,1580905814.726684,1580903939.50652,1577,0.4102195,0,0,2131.439,1,0,1580905796.492468,9529.841414,0,-1.622375,97.22193
1580905817.40985,79,0,1580904337.000819,41.20701635159924,29.07533761282497,172.748,-1,-1,5.74967098236084,48.00724964208526,-9999,9533.184330625001,0.96368408203125,-0.106353759765625,-0.130584716796875,9533.179264625001,0.888653202167713,1.41449555290734,-0.06057814865856426,0.7793063521385193,0.06009348481893539,-0.150228276848793,-0.005680322647094727,-0.1090106964111328,0.0250738263130188,2,0.2999498837927251,-0.5764896026531857,-0.3088353682259373,-0.6944857869061826,0.9859979152679443,0.06054110452532768,-0.1553796082735062,20.57953643798828,-1.471714019775391,14.45916748046875,2,9530.485518000001,2,0,1580905814.726684,1580903939.50652,1577,0.4102195,0,0,2131.439,1,0,1580905796.492468,9529.841414,0,-1.622375,97.22193
1580905817.434112,80,0,1580904337.000819,41.20701635159924,29.07533761282497,172.748,-1,-1,5.74967098236084,48.00724964208526,-9999,9533.194370625,0.9763641357421875,-0.1397857666015625,-0.12994384765625,9533.189304625001,0.8825795243798277,1.414467738152401,-0.06134250694615201,0.5866429209709167,0.03305400162935257,-0.1610039323568344,-0.02387946844100952,-0.1677582859992981,0.02343088388442993,2,0.2984528482866712,-0.5772573085380959,-0.3065008526515084,-0.6955265465113245,0.9859476685523987,0.06130404397845268,-0.1553997993469238,20.43527221679688,-1.235202789306641,14.38137817382812,2,9530.485518000001,2,0,1580905814.726684,1580903939.50652,1577,0.4102195,0,0,2131.439,1,0,1580905796.492468,9530.782652,0,-1.807343,97.22408
1580905817.435322,81,0,1580904337.000819,41.20701635159924,29.07533761282497,172.748,-1,-1,5.74967098236084,48.00724964208526,-9999,9533.204410625001,0.941741943359375,-0.175079345703125,-0.1392669677734375,9533.199344625,0.8787743343400615,1.414469842817343,-0.06274448710637952,0.3534903824329376,0.02267992310225964,-0.1886067986488342,-0.01111382246017456,-0.2025918960571289,0.02405601739883423,2,0.2978303759766043,-0.577585475084851,-0.3047576486542672,-0.6962864464858413,0.9858620166778564,0.06270332634449005,-0.1553841680288315,20.43527221679688,-1.235202789306641,14.38137817382812,2,9530.485518000001,2,0,1580905814.726684,1580903939.50652,1577,0.4102195,0,0,2131.439,1,0,1580905796.492468,9530.782652,0,-1.807343,97.22408
1580905817.438007,82,0,1580904337.000819,41.20701635159924,29.07533761282497,172.748,-1,-1,5.74967098236084,48.00724964208526,-9999,9533.214450625001,0.953643798828125,-0.1544189453125,-0.165618896484375,9533.209385625001,0.8773041940443318,1.414581699496899,-0.06497630617854656,0.1053745821118355,0.02499181777238846,-0.2441659569740295,-0.04561245441436768,-0.2401163876056671,0.01460015773773193,2,0.2981804477113405,-0.5774621653154282,-0.3035615021761634,-0.6967612446189504,0.9857386946678162,0.06493059545755386,-0.1552517414093018,20.23935699462891,-1.074493408203125,14.36871337890625,2,9530.485518000001,2,0,1580905814.726684,1580903939.50652,1577,0.4102195,0,0,2131.439,1,0,1580905796.492468,9530.782652,0,-1.807343,97.22408
1580905817.447969,83,0,1580904337.000819,41.20701635159924,29.07533761282497,172.748,-1,-1,5.74967098236084,48.00724964208526,-9999,9533.224491625,0.9758453369140625,-0.033111572265625,-0.1595611572265625,9533.219455625,0.8772272805311481,1.414479008245613,-0.06813354894700846,-0.04890526458621025,-0.01063222158700228,-0.3092504143714905,-0.03348702192306519,-0.2226113975048065,-0.01168310642242432,2,0.2992139329997329,-0.5768976298302423,-0.3026049823680499,-0.697201892470347,0.9855154752731323,0.0680808499455452,-0.1553202867507935,20.23935699462891,-1.074493408203125,14.36871337890625,2,9530.485518000001,2,0,1580905814.726684,1580903939.50652,1577,0.4102195,0,0,2131.439,1,0,1580905796.492468,9530.782652,0,-1.807343,97.22408
1580905817.45805,84,0,1580904337.000819,41.20701635159924,29.07533761282497,172.748,-1,-1,5.74967098236084,48.00724964208526,-9999,9533.234531625001,0.9463348388671875,0.058380126953125,-0.173797607421875,9533.229496625001,0.8771947972111656,1.414531275450375,-0.07212164313697111,-0.06207475066184998,-0.004374520853161812,-0.3978444635868073,-0.01101702451705933,-0.1052888631820679,-0.00572049617767334,2,0.3005646472396613,-0.5762362810257704,-0.3013909782789915,-0.6976934452073562,0.9852474927902222,0.07205913215875626,-0.1552252769470215,20.40834045410156,-0.6805076599121094,14.57101440429688,2,9530.485518000001,2,0,1580905814.726684,1580903939.50652,1577,0.4102195,0,0,2131.439,1,0,1580905796.492468,9530.782652,0,-1.807343,97.22408
1580905817.469966,85,0,1580904337.000819,41.20701635159924,29.07533761282497,172.748,-1,-1,5.74967098236084,48.00724964208526,-9999,9533.244571625,0.933319091796875,0.06842041015625,-0.1857452392578125,9533.239536625,0.8767418424782741,1.415654318236265,-0.07647427085431112,-0.01442840322852135,0.1298413425683975,-0.433239758014679,-0.04038190841674805,-0.0181448757648468,-0.02111536264419556,2,0.3020770441115757,-0.5759471007421137,-0.2997578226360096,-0.697982613518777,0.9851020574569702,0.07639975100755692,-0.154068797826767,20.40834045410156,-0.6805076599121094,14.57101440429688,2,9530.485518000001,2,0,1580905814.726684,1580903939.50652,1577,0.4102195,0,0,2131.439,1,0,1580905796.492468,9530.782652,0,-1.807343,97.22408
1580905817.496751,86,0,1580904337.000819,41.20701635159924,29.07533761282497,172.748,-1,-1,5.74967098236084,48.00724964208526,-9999,9533.254612625,1.054412841796875,0.1161651611328125,-0.1696929931640625,9533.249576625001,0.8760502165810691,1.417069911510534,-0.07988025670127524,0.02166774123907089,0.1416141539812088,-0.3796350061893463,-0.05335187911987305,-0.01150578260421753,-0.03450095653533936,2,0.3032415782741861,-0.575958203344509,-0.298278461994178,-0.6981021362813982,0.9850561618804932,0.07979533076286316,-0.1526333838701248,20.23521423339844,-0.7577056884765625,14.7110595703125,2,9530.485518000001,2,0,1580905814.726684,1580903939.50652,1577,0.4102195,0,0,2131.439,1,0,1580905796.492468,9530.782652,0,-1.807343,97.22408
1580905817.498325,87,0,1580904337.000819,41.20701635159924,29.07533761282497,172.748,-1,-1,5.74967098236084,48.00724964208526,-9999,9533.264652625001,1.0804443359375,0.08062744140625,-0.092376708984375,9533.259616625,0.875647057979776,1.417186520031499,-0.08211565450612418,-0.01129127573221922,0.003282643854618073,-0.2337284088134766,0.06790292263031006,0.03400725126266479,-0.01859140396118164,2,0.3038983021832725,-0.575673857660658,-0.2974472852422128,-0.6984057673428038,0.9848953485488892,0.08202340453863144,-0.1524908691644669,20.23521423339844,-0.7577056884765625,14.7110595703125,2,9530.485518000001,2,0,1580905814.726684,1580903939.50652,1577,0.4102195,0,0,2131.439,1,0,1580905796.492468,9530.782652,0,-1.807343,97.22408
1580905817.499673,88,0,1580904337.000819,41.20701635159924,29.07533761282497,172.748,-1,-1,5.74967098236084,48.00724964208526,-9999,9533.274692625,1.038253784179688,0.0358428955078125,-0.13201904296875,9533.269657625,0.8751597211166426,1.415908454012742,-0.08512914298200872,0.0002474728971719742,-0.1142183393239975,-0.293485552072525,0.09437960386276245,-0.004538357257843018,0.05994665622711182,2,0.304586553122543,-0.5747796970727718,-0.2965641564864919,-0.6992174580872514,0.9844508767127991,0.08502636104822159,-0.153710663318634,20.40628051757812,-0.6090126037597656,14.94915771484375,2,9530.485518000001,2,0,1580905814.726684,1580903939.50652,1577,0.4102195,0,0,2131.439,1,0,1580905796.492468,9530.782652,0,-1.807343,97.22408
1580905817.508364,89,0,1580904337.000819,41.20701635159924,29.07533761282497,172.748,-1,-1,5.74967098236084,48.00724964208526,-9999,9533.284763625001,1.061370849609375,0.05810546875,-0.135345458984375,9533.279697625001,0.8745478758450357,1.413907733041912,-0.08888607725843543,0.00196787528693676,-0.1919381618499756,-0.3794657289981842,0.05282187461853027,-0.05307173728942871,0.02222543954849243,2,0.305384310037653,-0.5735206627126829,-0.2955240421789029,-0.70034273903939,0.9838188886642456,0.08876907825469971,-0.1556289494037628,20.40628051757812,-0.6090126037597656,14.94915771484375,2,9530.485518000001,2,0,1580905814.726684,1580903939.50652,1577,0.4102195,0,0,2131.439,1,0,1580905796.492468,9530.782652,0,-1.807343,97.22408
1580905817.518464,90,0,1580904337.000819,41.20701635159924,29.07533761282497,172.748,-1,-1,5.74967098236084,48.00724964208526,-9999,9533.294803625,1.06646728515625,0.096923828125,-0.12310791015625,9533.289737625,0.873922108390036,1.411073698468275,-0.0927230572471532,-0.005878199823200703,-0.2811048328876495,-0.4102851450443268,0.0767287015914917,-0.03463661670684814,0.02163589000701904,2,0.3060840626278982,-0.5719545105748705,-0.2945830575046706,-0.7017132192327749,0.9830304384231567,0.09259025007486343,-0.1583611667156219,20.32128143310547,-0.4657478332519531,14.79293823242188,2,9530.485518000001,2,0,1580905814.726684,1580903939.50652,1577,0.4102195,0,0,2131.439,1,0,1580905796.492468,9530.782652,0,-1.807343,97.22408
1580905817.528727,91,0,1580904337.000819,41.20701635159924,29.07533761282497,172.748,-1,-1,5.74967098236084,48.00724964208526,-9999,9533.304843625001,1.017822265625,0.1499176025390625,-0.1335906982421875,9533.299778625,0.8731958389693443,1.407577854958083,-0.09603276543525005,0.01772859320044518,-0.3421639502048492,-0.3516404628753662,0.08269387483596802,0.0008813440799713135,0.03726381063461304,2,0.3064820809703592,-0.5702593407976482,-0.2938679142090918,-0.7032174134970119,0.9821630716323853,0.09588522464036942,-0.1617460399866104,20.32128143310547,-0.4657478332519531,14.79293823242188,2,9530.485518000001,2,0,1580905814.726684,1580903939.50652,1577,0.4102195,0,0,2131.439,1,0,1580905796.492468,9530.782652,0,-1.807343,97.22408
1580905817.54824,92,0,1580904337.000819,41.20701635159924,29.07533761282497,172.748,-1,-1,5.74967098236084,48.00724964208526,-9999,9533.314884625001,0.9849700927734375,0.1395111083984375,-0.1461181640625,9533.309818625001,0.8723520029204556,1.403516020404856,-0.09895347952004799,0.03001950681209564,-0.4050720930099487,-0.3133128881454468,0.03499579429626465,0.05096353590488434,0.0307280421257019,2,0.3066348569110693,-0.5684467381846375,-0.293316105585368,-0.70484686776931,0.9812176823616028,0.09879206866025925,-0.1656867414712906,20.32669067382812,-0.3265838623046875,14.63217163085938,2,9530.485518000001,2,0,1580905814.726684,1580903939.50652,1577,0.4102195,0,0,2131.439,1,0,1580905796.492468,9530.782652,0,-1.807343,97.22408
1580905817.550027,93,0,1580904337.000819,41.20701635159924,29.07533761282497,172.748,-1,-1,5.74967098236084,48.00724964208526,-9999,9533.324924625,0.956939697265625,0.1524505615234375,-0.170623779296875,9533.319858625,0.8711512244591048,1.399233289414752,-0.1016388351646287,0.07383223623037338,-0.4074452519416809,-0.2792797982692719,0.003128767013549805,0.03788082301616669,0.0223623514175415,2,0.306577508038282,-0.5666475380254096,-0.2927434895754738,-0.7065565372367942,0.9802342057228088,0.1014639288187027,-0.1698416024446487,20.32669067382812,-0.3265838623046875,14.63217163085938,2,9530.485518000001,2,0,1580905814.726684,1580903939.50652,1577,0.4102195,0,0,2131.439,1,0,1580905796.492468,9530.782652,0,-1.807343,97.22408
1580905817.5585,94,0,1580904337.000819,41.20701635159924,29.07533761282497,172.748,-1,-1,5.74967098236084,48.00724964208526,-9999,9533.334964625001,0.8912506103515625,0.13006591796875,-0.1923675537109375,9533.329929625001,0.8698470825694122,1.395135481679354,-0.1039729028883666,0.09034706652164459,-0.3927945494651794,-0.248035803437233,-0.02396005392074585,0.04849471151828766,0.001836717128753662,2,0.3064023147592168,-0.5649867872845447,-0.2922111510512242,-0.7081809295583181,0.9792940616607666,0.1037856712937355,-0.1738151013851166,20.60936737060547,-0.3694190979003906,14.43130493164062,2,9530.485518000001,2,0,1580905814.726684,1580903939.50652,1577,0.4102195,0,0,2131.439,1,0,1580905796.492468,9530.782652,0,-1.807343,97.22408
1580905817.568713,95,0,1580904337.000819,41.20701635159924,29.07533761282497,172.748,-1,-1,5.74967098236084,48.00724964208526,-9999,9533.345005625,0.8333587646484375,0.1170196533203125,-0.2305145263671875,9533.339969625,0.8687517859116771,1.392057763274325,-0.1057122742201053,0.07655002921819687,-0.302044153213501,-0.1929781436920166,-0.08892923593521118,0.02437740564346313,-0.01692134141921997,2,0.3062357038400406,-0.5637568107183926,-0.2917741028526956,-0.7094123309234333,0.9785753488540649,0.1055154949426651,-0.1767958998680115,20.60936737060547,-0.3694190979003906,14.43130493164062,2,9530.485518000001,2,0,1580905814.726684,1580903939.50652,1577,0.4102195,0,0,2131.439,1,0,1580905796.492468,9530.782652,0,-1.807343,97.22408
1580905817.578981,96,0,1580904337.000819,41.20701635159924,29.07533761282497,172.748,-1,-1,5.74967098236084,48.00724964208526,-9999,9533.355045625001,0.8110809326171875,0.10675048828125,-0.2420654296875,9533.350010625001,0.8679189728489234,1.390643052511068,-0.1067997286230934,0.06276708096265793,-0.1338052153587341,-0.1219300329685211,-0.1464559435844421,0.01024806499481201,-0.05370247364044189,2,0.3061651413381803,-0.563190171802726,-0.2913701381929932,-0.7100586456883173,0.9782108664512634,0.1065968126058578,-0.1781594753265381,20.55982971191406,-0.1030235290527344,14.26712036132812,2,9530.485518000001,2,0,1580905814.726684,1580903939.50652,1577,0.4102195,0,0,2131.439,1,0,1580905796.492468,9530.782652,0,-1.807343,97.22408
1580905817.613078,97,0,1580904337.000819,41.20701635159924,29.07533761282497,172.748,-1,-1,5.74967098236084,48.00724964208526,-9999,9533.365085625001,0.8446197509765625,0.0915985107421875,-0.2350311279296875,9533.360050625,0.8674029455857738,1.391008243122271,-0.1073159347911897,0.04008014500141144,0.04548065736889839,-0.0590706430375576,-0.1687448024749756,-0.0005352795124053955,-0.06562155485153198,2,0.3062488741166898,-0.5633076089911546,-0.2909767139205477,-0.710090544597376,0.9782214164733887,0.1071100682020187,-0.1777923256158829,20.55982971191406,-0.1030235290527344,14.26712036132812,2,9530.485518000001,2,0,1580905814.726684,1580903939.50652,1577,0.4102195,0,0,2131.439,1,0,1580905796.492468,9530.782652,0,-1.807343,97.22408
1580905817.614323,98,0,1580904337.000819,41.20701635159924,29.07533761282497,172.748,-1,-1,5.74967098236084,48.00724964208526,-9999,9533.375125625,0.914459228515625,0.0948028564453125,-0.1908721923828125,9533.370090625001,0.8670561750077173,1.392401052865827,-0.107636566522885,0.02789205685257912,0.1450042277574539,-0.04035787284374237,-0.1354190707206726,-0.01600648462772369,-0.05995804071426392,2,0.3064627753019883,-0.5637985130356135,-0.2905443850073675,-0.7097857665651622,0.9784343838691711,0.1074288487434387,-0.1764236092567444,20.49504089355469,-0.01198196411132812,14.40228271484375,2,9530.485518000001,2,0,1580905814.726684,1580903939.50652,1577,0.4102195,0,0,2131.439,1,0,1580905796.492468,9530.782652,0,-1.807343,97.22408
1580905817.615578,99,0,1580904337.000819,41.20701635159924,29.07533761282497,172.748,-1,-1,5.74967098236084,48.00724964208526,-9999,9533.385166625001,1.00140380859375,0.103271484375,-0.1653594970703125,9533.380130625001,0.8667585090387012,1.393782606374461,-0.1079977320839216,0.02379904687404633,0.1406875103712082,-0.04087159037590027,-0.06578433513641357,-0.01316180825233459,-0.01715993881225586,2,0.3067022824354994,-0.5642705824770784,-0.2901188644091665,-0.7094811839463716,0.9786389470100403,0.1077879145741463,-0.1750648319721222,20.49504089355469,-0.01198196411132812,14.40228271484375,2,9530.485518000001,2,0,1580905814.726684,1580903939.50652,1577,0.4102195,0,0,2131.439,1,0,1580905796.492468,9530.782652,0,-1.807343,97.22408
1580905817.61885,100,0,1580904337.000819,41.20701635159924,29.07533761282497,172.748,-1,-1,5.74967098236084,48.00724964208526,-9999,9533.395237625,1.034286499023438,0.10321044921875,-0.1488494873046875,9533.390171625,0.866408247209279,1.394492251237897,-0.1085732592175027,0.02522855252027512,0.07223139703273773,-0.05767764151096344,0.02109754085540771,-0.005266249179840088,0.00764620304107666,2,0.3069020900207359,-0.5644744579821269,-0.2897133219797096,-0.709398252461486,0.978701651096344,0.1083600744605064,-0.1743593811988831,20.52899169921875,-0.07165145874023438,14.35162353515625,2,9530.485518000001,2,0,1580905814.726684,1580903939.50652,1577,0.4102195,0,0,2131.439,1,0,1580905796.492468,9530.782652,0,-1.807343,97.22408
1580905817.628766,101,0,1580904337.000819,41.20701635159924,29.07533761282497,172.748,-1,-1,5.74967098236084,48.00724964208526,-9999,9533.405277625001,1.030990600585938,0.1035003662109375,-0.149139404296875,9533.400211625001,0.8659515713986085,1.394347607582456,-0.1094104434661801,0.02915565297007561,-0.01530458219349384,-0.08833116292953491,0.05409538745880127,-0.00616087019443512,0.02428203821182251,2,0.3070369920186776,-0.5643454687593328,-0.2893225845503064,-0.7096019030435613,0.978586733341217,0.1091922894120216,-0.1744849532842636,20.52899169921875,-0.07165145874023438,14.35162353515625,2,9530.485518000001,2,0,1580905814.726684,1580903939.50652,1577,0.4102195,0,0,2131.439,1,0,1580905796.492468,9530.782652,0,-1.807343,97.22408
1580905817.639408,102,0,1580904337.000819,41.20701635159924,29.07533761282497,172.748,-1,-1,5.74967098236084,48.00724964208526,-9999,9533.415317625,0.995697021484375,0.11541748046875,-0.152069091796875,9533.410251625,0.8652722949910131,1.393696103021298,-0.1104623298923742,0.05105628073215485,-0.05282885208725929,-0.1098945140838623,0.05102747678756714,-0.006918177008628845,0.02461040019989014,2,0.3071089534525229,-0.5640328185363884,-0.2888662214431803,-0.7100051592807519,0.9783592224121094,0.1102378219366074,-0.1751021444797516,20.39147186279297,-0.004299163818359375,14.44735717773438,2,9530.485518000001,2,0,1580905814.726684,1580903939.50652,1577,0.4102195,0,0,2131.439,1,0,1580905796.492468,9530.782652,0,-1.807343,97.22408
1580905817.673285,103,0,1580904337.000819,41.20701635159924,29.07533761282497,172.748,-1,-1,5.74967098236084,48.00724964208526,-9999,9533.425357625001,0.9949951171875,0.0966033935546875,-0.1732330322265625,9533.420291625001,0.8644221109367979,1.39267148217365,-0.1116611216314266,0.06547676026821136,-0.08700386434793472,-0.1279459446668625,0.01604515314102173,0.003805577754974365,0.02266120910644531,2,0.3071292722950082,-0.5635877336786395,-0.2883622940704316,-0.7105544367710253,0.9780485033988953,0.1114292293787003,-0.1760809570550919,20.39147186279297,-0.004299163818359375,14.44735717773438,2,9530.485518000001,2,0,1580905814.726684,1580903939.50652,1577,0.4102195,0,0,2131.439,1,0,1580905796.492468,9530.782652,0,-1.807343,97.22408
1580905817.674489,104,0,1580904337.000819,41.20701635159924,29.07533761282497,172.748,-1,-1,5.74967098236084,48.00724964208526,-9999,9533.435398625001,0.9647064208984375,0.101806640625,-0.1772613525390625,9533.430332625001,0.8635791442965397,1.391361623623718,-0.1128694511804628,0.05834266543388367,-0.118335135281086,-0.1320648938417435,0.01570838689804077,-0.01621125638484955,0.002755999565124512,2,0.307114442296401,-0.5630380552151983,-0.2879016976772969,-0.7111830595120516,0.9776837825775146,0.1126299500465393,-0.1773377358913422,20.38826751708984,-0.1107254028320312,14.45803833007812,2,9530.485518000001,2,0,1580905814.726684,1580903939.50652,1577,0.4102195,0,0,2131.439,1,0,1580905796.492468,9530.782652,0,-1.807343,97.22408
1580905817.675508,105,0,1580904337.000819,41.20701635159924,29.07533761282497,172.748,-1,-1,5.74967098236084,48.00724964208526,-9999,9533.445438625,0.9388275146484375,0.111663818359375,-0.1908721923828125,9533.440403625,0.8627806637844655,1.390089808723027,-0.1139581068050247,0.05877596139907837,-0.1084928885102272,-0.1220117285847664,-0.01423227787017822,-0.01209141314029694,-4.899501800537109e-05,2,0.3070775010965051,-0.5625157338332313,-0.2874867900835062,-0.7117800862249931,0.9773364663124084,0.1137116178870201,-0.1785589158535004,20.38826751708984,-0.1107254028320312,14.45803833007812,2,9530.485518000001,2,0,1580905814.726684,1580903939.50652,1577,0.4102195,0,0,2131.439,1,0,1580905796.492468,9530.782652,0,-1.807343,97.22408
1580905817.678988,106,0,1580904337.000819,41.20701635159924,29.07533761282497,172.748,-1,-1,5.74967098236084,48.00724964208526,-9999,9533.455478625001,0.9147491455078125,0.12066650390625,-0.2003631591796875,9533.450443625001,0.8621093664305925,1.389061816845093,-0.1147603470470476,0.05193669348955154,-0.08854687958955765,-0.09148311614990234,-0.03983652591705322,-0.003032565116882324,-0.01267015933990479,2,0.3070144236632309,-0.562110898570794,-0.2871653438216114,-0.7122566894363995,0.9770622849464417,0.1145086139440536,-0.1795469671487808,20.34685516357422,0.0862274169921875,14.30816650390625,2,9530.485518000001,2,0,1580905814.726684,1580903939.50652,1577,0.4102195,0,0,2131.439,1,0,1580905796.492468,9530.782652,0,-1.807343,97.22408
1580905817.689009,107,0,1580904337.000819,41.20701635159924,29.07533761282497,172.748,-1,-1,5.74967098236084,48.00724964208526,-9999,9533.465519625001,0.8787994384765625,0.124114990234375,-0.209014892578125,9533.460483625,0.8616388055172095,1.388683147432489,-0.1152193601972155,0.03608689084649086,-0.03110702335834503,-0.05559355765581131,-0.06379491090774536,0.005513414740562439,-0.02180039882659912,2,0.3069843302208058,-0.561967025796254,-0.286918393347352,-0.7124825376325167,0.9769423007965088,0.114964596927166,-0.1799073666334152,20.34685516357422,0.0862274169921875,14.30816650390625,2,9530.485518000001,2,0,1580905814.726684,1580903939.50652,1577,0.4102195,0,0,2131.439,1,0,1580905796.492468,9530.782652,0,-1.807343,97.22408
1580905817.69916,108,0,1580904337.000819,41.20701635159924,29.07533761282497,172.748,-1,-1,5.74967098236084,48.00724964208526,-9999,9533.475559625,0.90325927734375,0.1270294189453125,-0.204742431640625,9533.470523625001,0.8613312054421578,1.388957104679094,-0.1153117767073105,0.02920928224921227,0.0326266810297966,-0.01455129589885473,-0.09978359937667847,0.008869916200637817,-0.03072202205657959,2,0.3069686364756307,-0.5620954944648487,-0.2867390976355568,-0.7124602612896735,0.9769812226295471,0.1150564029812813,-0.1796378195285797,20.34586334228516,-0.03631210327148438,14.271484375,2,9530.485518000001,2,0,1580905814.726684,1580903939.50652,1577,0.4102195,0,0,2131.439,1,0,1580905796.492468,9530.782652,0,-1.807343,97.22408
1580905817.709858,109,0,1580904337.000819,41.20701635159924,29.07533761282497,172.748,-1,-1,5.74967098236084,48.00724964208526,-9999,9533.485599625001,0.9263458251953125,0.121551513671875,-0.187896728515625,9533.480564625001,0.8611346732584997,1.389568881079964,-0.1151842993355867,0.02120248973369598,0.06210281327366829,0.01129015535116196,-0.07544815540313721,0.01191116869449615,-0.02704566717147827,2,0.3069576251268867,-0.5623661128823427,-0.2866133909755153,-0.7123020407583729,0.9771053791046143,0.1149297654628754,-0.1790427416563034,20.34586334228516,-0.03631210327148438,14.271484375,2,9530.485518000001,2,0,1580905814.726684,1580903939.50652,1577,0.4102195,0,0,2131.439,1,0,1580905796.492468,9530.782652,0,-1.807343,97.22408
1580905817.734298,110,0,1580904337.000819,41.20701635159924,29.07533761282497,172.748,-1,-1,5.74967098236084,48.00724964208526,-9999,9533.495639625,0.9746856689453125,0.11767578125,-0.1794281005859375,9533.490604625,0.8609216195158267,1.390180893149228,-0.115068852993349,0.0237935446202755,0.06639117002487183,0.007023490034043789,-0.05248421430587769,0.006548166275024414,-0.01079666614532471,2,0.3069460650986933,-0.5626371580548281,-0.2864781859543611,-0.7121473131862034,0.9772278070449829,0.1148150861263275,-0.1784470826387405,20.414306640625,-0.0101470947265625,14.41363525390625,2,9530.485518000001,2,0,1580905814.726684,1580903939.50652,1577,0.4102195,0,0,2131.439,1,0,1580905796.492468,9530.782652,0,-1.807343,97.22408
1580905817.735583,111,0,1580904337.000819,41.20701635159924,29.07533761282497,172.748,-1,-1,5.74967098236084,48.00724964208526,-9999,9533.505680625001,1.016494750976562,0.1107940673828125,-0.160491943359375,9533.500644625001,0.8606643100930014,1.39019988278553,-0.1151453901098363,0.02384840324521065,0.004205292090773582,-0.01101356744766235,-0.0041390061378479,0.002596274018287659,-0.002348184585571289,2,0.3069024939299425,-0.5626698783324012,-0.2863607005945824,-0.7121874320487619,0.9772224426269531,0.1148911193013191,-0.1784269362688065,20.414306640625,-0.0101470947265625,14.41363525390625,2,9530.485518000001,2,0,1580905814.726684,1580903939.50652,1577,0.4102195,0,0,2131.439,1,0,1580905796.492468,9530.782652,0,-1.807343,97.22408
1580905817.739299,112,0,1580904337.000819,41.20701635159924,29.07533761282497,172.748,-1,-1,5.74967098236084,48.00724964208526,-9999,9533.515750625,1.03851318359375,0.1056671142578125,-0.16485595703125,9533.510685625,0.8603340544085988,1.389416697616333,-0.1155233240449811,0.02493299171328545,-0.07876547425985336,-0.04327704012393951,0.03785330057144165,-0.004661425948143005,0.01734685897827148,2,0.3068262468623711,-0.5623748332406332,-0.2862499705869841,-0.7124978769793811,0.9770397543907166,0.1152665391564369,-0.1791844069957733,20.37849426269531,0.04903030395507812,14.2755126953125,2,9530.485518000001,2,0,1580905814.726684,1580903939.50652,1577,0.4102195,0,0,2131.439,1,0,1580905796.492468,9530.782652,0,-1.807343,97.22408
1580905817.749444,113,0,1580904337.000819,41.20701635159924,29.07533761282497,172.748,-1,-1,5.74967098236084,48.00724964208526,-9999,9533.525791625001,1.028915405273438,0.10284423828125,-0.1666412353515625,9533.520725625001,0.8599295267940308,1.387992608355288,-0.116274474446151,0.02365867048501968,-0.1400536000728607,-0.08441435545682907,0.06021386384963989,-0.01053577661514282,0.01436030864715576,2,0.3067649320973467,-0.5617965661748845,-0.2860991986816137,-0.7130406708261314,0.9766979813575745,0.1160126477479935,-0.1805597841739655,20.37849426269531,0.04903030395507812,14.2755126953125,2,9530.485518000001,2,0,1580905814.726684,1580903939.50652,1577,0.4102195,0,0,2131.439,1,0,1580905796.492468,9530.782652,0,-1.807343,97.22408
1580905817.759452,114,0,1580904337.000819,41.20701635159924,29.07533761282497,172.748,-1,-1,5.74967098236084,48.00724964208526,-9999,9533.535831625,1.008682250976562,0.1188812255859375,-0.154205322265625,9533.530765625001,0.8593728413388335,1.386014292662691,-0.1172422917068189,0.03782973438501358,-0.1882813274860382,-0.1080754026770592,0.0510866641998291,-0.0143214613199234,0.01448935270309448,2,0.3066559280932755,-0.5610050504716809,-0.285914253023004,-0.7137846014673512,0.9762281179428101,0.116973876953125,-0.1824709475040436,20.49002838134766,-0.07723236083984375,14.39053344726562,2,9530.485518000001,2,0,1580905814.726684,1580903939.50652,1577,0.4102195,0,0,2131.439,1,0,1580905796.492468,9530.782652,0,-1.807343,97.22408
1580905817.769834,115,0,1580904337.000819,41.20701635159924,29.07533761282497,172.748,-1,-1,5.74967098236084,48.00724964208526,-9999,9533.545871625001,0.978973388671875,0.1195068359375,-0.177001953125,9533.540805625,0.8587470055065693,1.383635626992871,-0.1181289853924074,0.04354620724916458,-0.2318146973848343,-0.09795752167701721,0.03139352798461914,0.0008335411548614502,0.02923130989074707,2,0.3064433244616572,-0.5600945430781163,-0.2857901209976038,-0.7146401616298393,0.9756890535354614,0.1178544387221336,-0.184773176908493,20.49002838134766,-0.07723236083984375,14.39053344726562,2,9530.485518000001,2,0,1580905814.726684,1580903939.50652,1577,0.4102195,0,0,2131.439,1,0,1580905796.492468,9530.782652,0,-1.807343,97.22408
1580905817.79424,116,0,1580904337.000819,41.20701635159924,29.07533761282497,172.748,-1,-1,5.74967098236084,48.00724964208526,-9999,9533.555912625001,0.911376953125,0.118896484375,-0.1909942626953125,9533.550846625001,0.8581375720442591,1.38143326568228,-0.1187924090378335,0.04612595587968826,-0.2099447697401047,-0.07643349468708038,0.002171635627746582,0.0007992833852767944,0.00857168436050415,2,0.3061848624544495,-0.5592829581708195,-0.2857113036949338,-0.7154176994129637,0.9752027988433838,0.118513211607933,-0.1869067996740341,20.54543304443359,-0.01797866821289062,14.11801147460938,2,9530.485518000001,2,0,1580905814.726684,1580903939.50652,1577,0.4102195,0,0,2131.439,1,0,1580905796.492468,9530.782652,0,-1.807343,97.22408
1580905817.79562,117,0,1580904337.000819,41.20701635159924,29.07533761282497,172.748,-1,-1,5.74967098236084,48.00724964208526,-9999,9533.565952625,0.8815460205078125,0.116729736328125,-0.21258544921875,9533.560916625001,0.8576321224376843,1.379840561939534,-0.1191425739329265,0.04352564737200737,-0.1505336314439774,-0.0428028330206871,-0.06508463621139526,-0.000159338116645813,-0.003873169422149658,2,0.3059359116953808,-0.5587282763363597,-0.2856696038338682,-0.7159739300628865,0.9748629331588745,0.1188609004020691,-0.1884518563747406,20.54543304443359,-0.01797866821289062,14.11801147460938,2,9530.485518000001,2,0,1580905814.726684,1580903939.50652,1577,0.4102195,0,0,2131.439,1,0,1580905796.492468,9530.782652,0,-1.807343,97.22408
1580905817.799669,118,0,1580904337.000819,41.20701635159924,29.07533761282497,172.748,-1,-1,5.74967098236084,48.00724964208526,-9999,9533.575992625001,0.8719482421875,0.1129913330078125,-0.2235870361328125,9533.570957625001,0.8573253728890066,1.379151636019262,-0.1191542486513315,0.02960078790783882,-0.06392118334770203,-0.00588822178542614,-0.09478378295898438,-0.002337679266929626,-0.02479177713394165,2,0.3057557916633999,-0.5585264573995826,-0.2856616504180812,-0.7162115755758111,0.9747316241264343,0.1188724935054779,-0.1891231834888458,20.45124816894531,-0.06207656860351562,14.065185546875,2,9530.485518000001,2,0,1580905814.726684,1580903939.50652,1577,0.4102195,0,0,2131.439,1,0,1580905796.492468,9530.782652,0,-1.807343,97.22408
1580905817.809542,119,0,1580904337.000819,41.20701635159924,29.07533761282497,172.748,-1,-1,5.74967098236084,48.00724964208526,-9999,9533.586032625,0.8830413818359375,0.1177825927734375,-0.2167205810546875,9533.580997625,0.8571820385396353,1.379388088893197,-0.1188665325587459,0.01902590692043304,0.02730619721114635,0.02600046619772911,-0.1044599413871765,-0.005789905786514282,-0.03601771593093872,2,0.3056510135009922,-0.5586840370957258,-0.2856600317978716,-0.7161340787894185,0.9748098850250244,0.1185868158936501,-0.1888992041349411,20.45124816894531,-0.06207656860351562,14.065185546875,2,9530.485518000001,2,0,1580905814.726684,1580903939.50652,1577,0.4102195,0,0,2131.439,1,0,1580905796.492468,9530.782652,0,-1.807343,97.22408
1580905817.819719,120,0,1580904337.000819,41.20701635159924,29.07533761282497,172.748,-1,-1,5.74967098236084,48.00724964208526,-9999,9533.596073625,0.9062347412109375,0.123504638671875,-0.2032623291015625,9533.591037625001,0.8571151995251781,1.380292991202337,-0.1183822210205261,0.01501492131501436,0.0919584259390831,0.04697978496551514,-0.09359395503997803,-0.0005169659852981567,-0.03002393245697021,2,0.3055957819904098,-0.5591039939396089,-0.2856423681330452,-0.7158369157869238,0.9750367403030396,0.1181059032678604,-0.1880278885364532,20.44545745849609,0.08002471923828125,13.95980834960938,2,9530.485518000001,2,0,1580905814.726684,1580903939.50652,1577,0.4102195,0,0,2131.439,1,0,1580905796.492468,9530.782652,0,-1.807343,97.22408
1580905817.829944,121,0,1580904337.000819,41.20701635159924,29.07533761282497,172.748,-1,-1,5.74967098236084,48.00724964208526,-9999,9533.606113625001,0.9333038330078125,0.1132049560546875,-0.1879119873046875,9533.601078625001,0.8570246571646555,1.381358898578631,-0.1180008839032425,0.0174943245947361,0.1141891628503799,0.03921880200505257,-0.07064521312713623,0.005584359169006348,-0.01759856939315796,2,0.3055922092342765,-0.559566742323456,-0.2855609568472928,-0.7155091739488423,0.9752807021141052,0.1177272275090218,-0.1869969218969345,20.44545745849609,0.08002471923828125,13.95980834960938,2,9530.485518000001,2,0,1580905814.726684,1580903939.50652,1577,0.4102195,0,0,2131.439,1,0,1580905796.492468,9530.782652,0,-1.807343,97.22408
1580905817.849886,122,0,1580904337.000819,41.20701635159924,29.07533761282497,172.748,-1,-1,5.74967098236084,48.00724964208526,-9999,9533.616153625,0.8959197998046875,0.123687744140625,-0.18927001953125,9533.611118625,0.8570722690608626,1.382325176755569,-0.1172836549297582,0.005978424102067947,0.09045888483524323,0.08879613876342773,-0.04383951425552368,-0.004001915454864502,-0.003176450729370117,2,0.3054981654379733,-0.5600319315130435,-0.2856446178908739,-0.7151518760396656,0.9755435585975647,0.1170149594545364,-0.1860702186822891,20.47334289550781,0.08837890625,13.97552490234375,2,9530.485518000001,2,0,1580905814.726684,1580903939.50652,1577,0.4102195,0,0,2131.439,1,0,1580905796.492468,9530.782652,0,-1.807343,97.22408
1580905817.85123,123,0,1580904337.000819,41.20701635159924,29.07533761282497,172.748,-1,-1,5.74967098236084,48.00724964208526,-9999,9533.626224625001,0.9254608154296875,0.1150665283203125,-0.230010986328125,9533.621158625001,0.8571519155664729,1.384151119716436,-0.1161752790279242,0.01169543247669935,0.1848064213991165,0.1120063960552216,-0.08168941736221313,0.007583484053611755,-0.006295144557952881,2,0.3054022877354989,-0.5608682159430485,-0.2857255068107986,-0.7145048563280852,0.9760085940361023,0.1159141212701797,-0.18431256711483,20.47334289550781,0.08837890625,13.97552490234375,2,9530.485518000001,2,0,1580905814.726684,1580903939.50652,1577,0.4102195,0,0,2131.439,1,0,1580905796.492468,9530.782652,0,-1.807343,97.22408
1580905817.859815,124,0,1580904337.000819,41.20701635159924,29.07533761282497,172.748,-1,-1,5.74967098236084,48.00724964208526,-9999,9533.636264625,1.087509155273438,0.1063995361328125,-0.1800994873046875,9533.631198625,0.8571840708784438,1.386102235996386,-0.1153754800921706,0.01215003617107868,0.2056171447038651,0.07462846487760544,-0.05259770154953003,-0.0002419650554656982,-0.0489269495010376,2,0.305416720121686,-0.5617011557622387,-0.2856782987768309,-0.7138629170102659,0.9764571189880371,0.115119680762291,-0.1824248731136322,20.42744445800781,0.1803550720214844,14.029296875,2,9530.485518000001,2,0,1580905814.726684,1580903939.50652,1577,0.4102195,0,0,2131.439,1,0,1580905796.492468,9530.782652,0,-1.807343,97.22408
1580905817.869992,125,0,1580904337.000819,41.20701635159924,29.07533761282497,172.748,-1,-1,5.74967098236084,48.00724964208526,-9999,9533.646305625001,1.132247924804688,0.114410400390625,-0.120452880859375,9533.641239625,0.857163859543007,1.386317513000431,-0.1152685699926466,0.002610060386359692,0.02239219844341278,0.01390093564987183,0.1093991994857788,-0.00880257785320282,0.0007762908935546875,2,0.30540526237841,-0.5617999310534763,-0.2856702112214556,-0.7137933492421673,0.9765084981918335,0.1150134801864624,-0.1822169274091721,20.42744445800781,0.1803550720214844,14.029296875,2,9530.485518000001,2,0,1580905814.726684,1580903939.50652,1577,0.4102195,0,0,2131.439,1,0,1580905796.492468,9530.782652,0,-1.807343,97.22408
1580905817.87984,126,0,1580904337.000819,41.20701635159924,29.07533761282497,172.748,-1,-1,5.74967098236084,48.00724964208526,-9999,9533.656345625001,1.019256591796875,0.1262054443359375,-0.149993896484375,9533.651279625001,0.8569766194056493,1.384961763484185,-0.115600790103244,0.01141254883259535,-0.1423584818840027,-0.04022558405995369,0.1544240713119507,-0.001122236251831055,0.06174182891845703,2,0.3052725274130479,-0.5612859192421683,-0.2857109457606625,-0.7142381182430649,0.9762229919433594,0.1153434887528419,-0.1835336089134216,20.45683288574219,0.05902099609375,14.14508056640625,2,9530.485518000001,2,0,1580905814.726684,1580903939.50652,1577,0.4102195,0,0,2131.439,1,0,1580905796.492468,9530.782652,0,-1.807343,97.22408
1580905817.909297,127,0,1580904337.000819,41.20701635159924,29.07533761282497,172.748,-1,-1,5.74967098236084,48.00724964208526,-9999,9533.666385625,0.9256134033203125,0.1266632080078125,-0.194305419921875,9533.661319625,0.8565819454360836,1.383519308598622,-0.1157772990028679,0.03774375468492508,-0.1342355757951736,-0.02629192359745502,0.04171907901763916,0.01049718260765076,0.03360724449157715,2,0.3050161132936939,-0.5607996881601363,-0.2857372479910147,-0.7147188600245712,0.9759371280670166,0.1155188158154488,-0.1849377602338791,20.44976806640625,0.1957550048828125,13.95751953125,2,9530.485518000001,2,0,1580905814.726684,1580903939.50652,1577,0.4102195,0,0,2131.439,1,0,1580905796.492468,9530.782652,0,-1.807343,97.22408
1580905817.910625,128,0,1580904337.000819,41.20701635159924,29.07533761282497,172.748,-1,-1,5.74967098236084,48.00724964208526,-9999,9533.676426625001,0.831573486328125,0.1168212890625,-0.1949005126953125,9533.671390625001,0.8561866116534971,1.382723914612462,-0.1156605506438892,0.0393119603395462,-0.07267004996538162,0.003373364917933941,-0.05178970098495483,0.01107108592987061,-0.009924113750457764,2,0.3047516809757509,-0.5605962612326336,-0.2857520909961848,-0.7149853237646711,0.9758030772209167,0.1154028475284576,-0.1857164949178696,20.44976806640625,0.1957550048828125,13.95751953125,2,9530.485518000001,2,0,1580905814.726684,1580903939.50652,1577,0.4102195,0,0,2131.439,1,0,1580905796.492468,9530.782652,0,-1.807343,97.22408
1580905817.911622,129,0,1580904337.000819,41.20701635159924,29.07533761282497,172.748,-1,-1,5.74967098236084,48.00724964208526,-9999,9533.686466625,0.8648529052734375,0.091888427734375,-0.241302490234375,9533.681430625,0.8560362002000828,1.383143511950299,-0.1151497494710119,0.02125120162963867,0.05089476704597473,0.05069001764059067,-0.1459656357765198,0.001737430691719055,-0.01091843843460083,2,0.3045946548383029,-0.5608592418328596,-0.2857870400309904,-0.7148320657104479,0.9759387373924255,0.1148954480886459,-0.1853180080652237,20.43769073486328,0.1023025512695312,14.09286499023438,2,9530.485518000001,2,0,1580905814.726684,1580903939.50652,1577,0.4102195,0,0,2131.439,1,0,1580905796.492468,9530.782652,0,-1.807343,97.22408
1580905817.920126,130,0,1580904337.000819,41.20701635159924,29.07533761282497,172.748,-1,-1,5.74967098236084,48.00724964208526,-9999,9533.696506625001,0.932342529296875,0.1175994873046875,-0.2165985107421875,9533.691471625001,0.855998160145181,1.384501064960154,-0.1144185235738348,0.01829676702618599,0.1406419426202774,0.07358984649181366,-0.1130196452140808,-0.02246783673763275,-0.05863207578659058,2,0.3045278185813474,-0.5614789206217691,-0.2857852923043306,-0.7143745854001221,0.9762716889381409,0.1141690313816071,-0.184008464217186,20.43769073486328,0.1023025512695312,14.09286499023438,2,9530.485518000001,2,0,1580905814.726684,1580903939.50652,1577,0.4102195,0,0,2131.439,1,0,1580905796.492468,9530.782652,0,-1.807343,97.22408
1580905817.930104,131,0,1580904337.000819,41.20701635159924,29.07533761282497,172.748,-1,-1,5.74967098236084,48.00724964208526,-9999,9533.706546625001,0.976898193359375,0.11175537109375,-0.174957275390625,9533.701511625,0.8559958112305207,1.385925134734872,-0.11381954721535,0.01057413220405579,0.1511822044849396,0.06341283768415451,-0.04585850238800049,0.003839299082756042,-0.03530800342559814,2,0.3045257881399501,-0.5620932055279271,-0.2857467842121657,-0.7139076916091178,0.9765998721122742,0.1135739535093307,-0.1826305389404297,20.50867462158203,0.08446502685546875,14.0972900390625,2,9533.699344625,4,1,1580905817.940511,1580903939.50652,1577,0.4102195,0,0,2131.439,1,0,1580905796.492468,9530.782652,0,-1.807343,97.22408
1580905817.940824,132,0,1580904337.000819,41.20701635159924,29.07533761282497,172.748,-1,-1,5.74967098236084,48.00724964208526,-9999,9533.716587625,1.03131103515625,0.122039794921875,-0.1605987548828125,9533.711551625001,0.8558916317135491,1.386453281398948,-0.1134309217747981,0.01608232967555523,0.05499814450740814,0.03738307952880859,-0.00144273042678833,-0.001618057489395142,0.005824387073516846,2,0.3044391524282014,-0.5623659060656083,-0.2857454789076346,-0.7137302487025237,0.9767393469810486,0.1131878346204758,-0.1821227818727493,20.50867462158203,0.08446502685546875,14.0972900390625,2,9533.699344625,4,1,1580905817.940511,1580903939.50652,1577,0.4102195,0,0,2131.439,1,0,1580905796.492468,9530.782652,0,-1.807343,97.22408
1580905817.972611,133,0,1580904337.000819,41.20701635159924,29.07533761282497,172.748,-1,-1,5.74967098236084,48.00724964208526,-9999,9533.726627625001,0.991607666015625,0.1200714111328125,-0.182159423828125,9533.721592625001,0.8556288719785182,1.386506629499459,-0.1131579900641126,0.03204851225018501,0.002985274419188499,0.02023871429264545,0.05292993783950806,0.008937954902648926,0.02013641595840454,2,0.3042795802802487,-0.5624729086963886,-0.2857252744741883,-0.7137220705721364,0.9767794013023376,0.1129166483879089,-0.1820763349533081,20.32887268066406,-0.08306503295898438,14.10528564453125,2,9533.699344625,4,1,1580905817.940511,1580903939.50652,1577,0.4102195,0,0,2131.439,1,0,1580905796.492468,9530.782652,0,-1.807343,97.22408
1580905817.973901,134,0,1580904337.000819,41.20701635159924,29.07533761282497,172.748,-1,-1,5.74967098236084,48.00724964208526,-9999,9533.736698625,0.993194580078125,0.097869873046875,-0.1914215087890625,9533.731632625,0.8553945288293398,1.386515945344222,-0.1130438279797217,0.02497705444693565,0.001902677118778229,0.008047658950090408,0.01321220397949219,0.007083222270011902,-0.001431107521057129,2,0.3041759752209761,-0.562531939078025,-0.2856743946506775,-0.7137400661339082,0.9767937660217285,0.1128032207489014,-0.1820695847272873,20.32887268066406,-0.08306503295898438,14.10528564453125,2,9533.699344625,4,1,1580905817.940511,1580903939.50652,1577,0.4102195,0,0,2131.439,1,0,1580905796.492468,9530.782652,0,-1.807343,97.22408
1580905817.975105,135,0,1580904337.000819,41.20701635159924,29.07533761282497,172.748,-1,-1,5.74967098236084,48.00724964208526,-9999,9533.746738625001,1.01654052734375,0.092742919921875,-0.177703857421875,9533.741672625001,0.8552944113641796,1.385957290346239,-0.1132341966847621,0.005291766487061977,-0.05804161727428436,-0.02021726779639721,0.01492226123809814,-0.01530779898166656,-0.01015061140060425,2,0.304133115165801,-0.562314322481802,-0.2856666526076281,-0.7139328954771513,0.9766707420349121,0.1129923686385155,-0.1826113015413284,20.32203674316406,-0.05311965942382812,14.06256103515625,2,9533.699344625,4,1,1580905817.940511,1580903939.50652,1577,0.4102195,0,0,2131.439,1,0,1580905796.492468,9530.782652,0,-1.807343,97.22408
1580905817.980271,136,0,1580904337.000819,41.20701635159924,29.07533761282497,172.748,-1,-1,5.74967098236084,48.00724964208526,-9999,9533.756778625,1.02899169921875,0.1079254150390625,-0.181854248046875,9533.751712625,0.8552659162658932,1.384706194479353,-0.1136824274172432,-0.006717849988490343,-0.1242163330316544,-0.04347909241914749,0.03854799270629883,-0.02088078856468201,0.004781603813171387,2,0.3040997184305071,-0.5617931325122067,-0.2857126402322582,-0.7143389017126606,0.9763916730880737,0.113437719643116,-0.1838236749172211,20.32203674316406,-0.05311965942382812,14.06256103515625,2,9533.699344625,4,1,1580905817.940511,1580903939.50652,1577,0.4102195,0,0,2131.439,1,0,1580905796.492468,9530.782652,0,-1.807343,97.22408
1580905817.990316,137,0,1580904337.000819,41.20701635159924,29.07533761282497,172.748,-1,-1,5.74967098236084,48.00724964208526,-9999,9533.766819625,0.9931488037109375,0.1208953857421875,-0.1729736328125,9533.761753625,0.8551407230885409,1.383015605320658,-0.1142806622329478,0.002290292643010616,-0.1630420237779617,-0.05886737257242203,0.05137872695922852,-0.006293624639511108,0.002271652221679688,2,0.3040277683927199,-0.5611028573501377,-0.2857461155948832,-0.7148985083726971,0.9760127067565918,0.1140320748090744,-0.1854614019393921,20.42295837402344,-0.01569366455078125,13.96859741210938,2,9533.699344625,4,1,1580905817.940511,1580903939.50652,1577,0.4102195,0,0,2131.439,1,0,1580905796.492468,9530.782652,0,-1.807343,97.22408
1580905818.0004,138,0,1580904337.000819,41.20701635159924,29.07533761282497,172.748,-1,-1,5.74967098236084,48.00724964208526,-9999,9533.776859625001,0.9495849609375,0.122222900390625,-0.1631317138671875,9533.771793625001,0.8548742454254783,1.381058790486101,-0.1149673059028892,0.01189805194735527,-0.1836473643779755,-0.07340076565742493,0.01597809791564941,0.005992978811264038,0.01304972171783447,2,0.3039086676227366,-0.5603226524239828,-0.2857431480527173,-0.7155619003016734,0.9755707383155823,0.1147142127156258,-0.187356099486351,20.42295837402344,-0.01569366455078125,13.96859741210938,2,9533.699344625,4,1,1580905817.940511,1580903939.50652,1577,0.4102195,0,0,2131.439,1,0,1580905796.492468,9530.782652,0,-1.807343,97.22408
1580905818.035902,139,0,1580904337.000819,41.20701635159924,29.07533761282497,172.748,-1,-1,5.74967098236084,48.00724964208526,-9999,9533.786899625,0.93890380859375,0.1123199462890625,-0.19256591796875,9533.781864625,0.8545003157528359,1.379243600775592,-0.1156425758337752,0.02345270849764347,-0.1737819463014603,-0.0708574503660202,-0.02716720104217529,0.006648659706115723,0.0246502161026001,2,0.3037760787542199,-0.55961072793709,-0.2856835738380941,-0.7161988912305602,0.975152850151062,0.1153849959373474,-0.1891118586063385,20.46245574951172,-0.08020401000976562,14.013916015625,2,9533.699344625,4,1,1580905817.940511,1580903939.50652,1577,0.4102195,0,0,2131.439,1,0,1580905796.492468,9530.782652,0,-1.807343,97.22408
1580905818.03724,140,0,1580904337.000819,41.20701635159924,29.07533761282497,172.748,-1,-1,5.74967098236084,48.00724964208526,-9999,9533.796939625001,0.9003143310546875,0.1040496826171875,-0.199676513671875,9533.791904625001,0.8541400898687431,1.378006987187801,-0.1162049428963853,0.0247376374900341,-0.1188871264457703,-0.06212210655212402,-0.03754919767379761,-0.003813788294792175,-0.003588557243347168,2,0.3036915808282852,-0.5591232910932947,-0.2855746380628849,-0.7166587407178936,0.9748544096946716,0.1159435883164406,-0.1903051435947418,20.46245574951172,-0.08020401000976562,14.013916015625,2,9533.699344625,4,1,1580905817.940511,1580903939.50652,1577,0.4102195,0,0,2131.439,1,0,1580905796.492468,9530.782652,0,-1.807343,97.22408
1580905818.03823,141,0,1580904337.000819,41.20701635159924,29.07533761282497,172.748,-1,-1,5.74967098236084,48.00724964208526,-9999,9533.806980625001,0.9168548583984375,0.1035308837890625,-0.1940765380859375,9533.801944625,0.8538477762413219,1.377202013235451,-0.1167099497936212,0.01723045110702515,-0.0784400999546051,-0.05579842999577522,-0.0759272575378418,-0.01258645951747894,-0.009924471378326416,2,0.3036682257684523,-0.5587900729330799,-0.2854415645805768,-0.7169815006082468,0.974643349647522,0.1164451763033867,-0.1910785287618637,20.56882476806641,0.1136512756347656,13.85943603515625,2,9533.699344625,4,1,1580905817.940511,1580903939.50652,1577,0.4102195,0,0,2131.439,1,0,1580905796.492468,9530.782652,0,-1.807343,97.22408
1580905818.040557,142,0,1580904337.000819,41.20701635159924,29.07533761282497,172.748,-1,-1,5.74967098236084,48.00724964208526,-9999,9533.817034291667,0.9393768310546875,0.1114349365234375,-0.1999969482421875,9533.811985625001,0.8535739522099012,1.376579900941814,-0.1170747945560044,0.02091960981488228,-0.06027993559837341,-0.03963969647884369,-0.05922585725784302,-0.01346822082996368,-0.003725647926330566,2,0.3036281990909245,-0.5585441938430696,-0.2853291035348147,-0.7172346961809614,0.9744824767112732,0.1168075278401375,-0.19167660176754,20.56882476806641,0.1136512756347656,13.85943603515625,2,9533.699344625,4,1,1580905817.940511,1580903939.50652,1577,0.4102195,0,0,2131.439,1,0,1580905796.492468,9530.782652,0,-1.807343,97.22408
1580905818.050623,143,0,1580904337.000819,41.20701635159924,29.07533761282497,172.748,-1,-1,5.74967098236084,48.00724964208526,-9999,9533.827074291667,0.9337310791015625,0.11083984375,-0.2019805908203125,9533.822039291666,0.8533180670476171,1.376175627558964,-0.1173295578721845,0.0197366327047348,-0.03501053526997566,-0.03025764413177967,-0.03659701347351074,-0.005817577242851257,-0.009257256984710693,2,0.3035865106793976,-0.5583930806774701,-0.2852227941789321,-0.7174123350407383,0.9743757247924805,0.1170605421066284,-0.1920647919178009,20.51421356201172,0.1050338745117188,13.75369262695312,2,9533.699344625,4,1,1580905817.940511,1580903939.50652,1577,0.4102195,0,0,2131.439,1,0,1580905796.492468,9530.782652,0,-1.807343,97.22408
1580905818.060653,144,0,1580904337.000819,41.20701635159924,29.07533761282497,172.748,-1,-1,5.74967098236084,48.00724964208526,-9999,9533.837115291668,0.9549560546875,0.1116485595703125,-0.1995849609375,9533.832079291667,0.85304909646973,1.375816421213897,-0.1175919796339891,0.0198153629899025,-0.0338798388838768,-0.03249968588352203,-0.04214340448379517,-0.006673768162727356,-0.01089644432067871,2,0.3035503490591655,-0.5582587094464128,-0.2851026310131863,-0.7175798251495183,0.9742763638496399,0.1173211559653282,-0.1924088001251221,20.51421356201172,0.1050338745117188,13.75369262695312,2,9533.699344625,4,1,1580905817.940511,1580903939.50652,1577,0.4102195,0,0,2131.439,1,0,1580905796.492468,9530.782652,0,-1.807343,97.22408
1580905818.092213,145,0,1580904337.000819,41.20701635159924,29.07533761282497,172.748,-1,-1,5.74967098236084,48.00724964208526,-9999,9533.847155291667,0.9738311767578125,0.1169891357421875,-0.1956787109375,9533.842119291667,0.8527367360848183,1.375345648322544,-0.1179126477787766,0.02314963936805725,-0.04359771311283112,-0.0380992479622364,-0.02079051733016968,-0.006184026598930359,-0.008048713207244873,2,0.3035061811427864,-0.5580805782073262,-0.2849664684279579,-0.7177911632418532,0.9741488099098206,0.1176396086812019,-0.1928601264953613,20.50339508056641,0.1001396179199219,13.8521728515625,2,9533.699344625,4,1,1580905817.940511,1580903939.50652,1577,0.4102195,0,0,2131.439,1,0,1580905796.492468,9530.782652,0,-1.807343,97.22408
1580905818.09359,146,0,1580904337.000819,41.20701635159924,29.07533761282497,172.748,-1,-1,5.74967098236084,48.00724964208526,-9999,9533.857226291668,0.964508056640625,0.120269775390625,-0.1835784912109375,9533.852160291668,0.8523072392112933,1.374612516985673,-0.1183449654053326,0.03361458331346512,-0.06982961297035217,-0.05029882490634918,-0.001723825931549072,-0.001273483037948608,-0.003437399864196777,2,0.3034304335460086,-0.5578062467398317,-0.2847947715714773,-0.7181044953148921,0.9739571213722229,0.1180689111351967,-0.1935643255710602,20.50339508056641,0.1001396179199219,13.8521728515625,2,9533.699344625,4,1,1580905817.940511,1580903939.50652,1577,0.4102195,0,0,2131.439,1,0,1580905796.492468,9530.782652,0,-1.807343,97.22408
1580905818.094767,147,0,1580904337.000819,41.20701635159924,29.07533761282497,172.748,-1,-1,5.74967098236084,48.00724964208526,-9999,9533.867266291667,0.9658660888671875,0.123291015625,-0.1773834228515625,9533.862200291667,0.8517231889309789,1.373506226540173,-0.1188972186126613,0.04679190367460251,-0.1054171621799469,-0.06434513628482819,-0.01076745986938477,0.001457929611206055,0.009729385375976562,2,0.3032998624413341,-0.557399986300238,-0.2845883856064463,-0.7185568842686325,0.9736784100532532,0.1186172813177109,-0.194628894329071,20.59619903564453,0.1292991638183594,13.87588500976562,2,9533.699344625,4,1,1580905817.940511,1580903939.50652,1577,0.4102195,0,0,2131.439,1,0,1580905796.492468,9530.782652,0,-1.807343,97.22408
1580905818.100769,148,0,1580904337.000819,41.20701635159924,29.07533761282497,172.748,-1,-1,5.74967098236084,48.00724964208526,-9999,9533.877306291668,0.9674530029296875,0.122894287109375,-0.184600830078125,9533.872240291666,0.850957559819805,1.371964521596532,-0.1195079131674322,0.06328964233398438,-0.1454541981220245,-0.07457274198532104,-0.009036421775817871,0.003871798515319824,0.0174134373664856,2,0.3030772798212268,-0.5568540563509204,-0.2843651723354911,-0.719162195883799,0.9733060002326965,0.1192236468195915,-0.1961154490709305,20.59619903564453,0.1292991638183594,13.87588500976562,2,9533.699344625,4,1,1580905817.940511,1580903939.50652,1577,0.4102195,0,0,2131.439,1,0,1580905796.492468,9530.782652,0,-1.807343,97.22408
1580905818.110936,149,0,1580904337.000819,41.20701635159924,29.07533761282497,172.748,-1,-1,5.74967098236084,48.00724964208526,-9999,9533.887346291667,0.96649169921875,0.1162872314453125,-0.1972503662109375,9533.882281291668,0.8501288919075355,1.370245083592514,-0.1201469528268722,0.06684789061546326,-0.1557140350341797,-0.07715894281864166,-0.007035434246063232,0.002839550375938416,0.01185661554336548,2,0.3028222211530863,-0.5562481194380549,-0.2841374596244757,-0.7198282139391374,0.9728924632072449,0.1198581010103226,-0.1977734565734863,20.5262451171875,0.1470870971679688,13.64920043945312,2,9533.699344625,4,1,1580905817.940511,1580903939.50652,1577,0.4102195,0,0,2131.439,1,0,1580905796.492468,9530.782652,0,-1.807343,97.22408
1580905818.120921,150,0,1580904337.000819,41.20701635159924,29.07533761282497,172.748,-1,-1,5.74967098236084,48.00724964208526,-9999,9533.897387291667,0.971771240234375,0.122650146484375,-0.186065673828125,9533.892321291667,0.8492341737410153,1.368237560299178,-0.1209015613847364,0.07134339958429337,-0.1875865757465363,-0.09222373366355896,-0.00750809907913208,-0.004517883062362671,0.001144647598266602,2,0.3025483391144064,-0.5555272643046032,-0.2838948424387313,-0.7205954064415458,0.9724045991897583,0.1206072345376015,-0.1997079253196716,20.5262451171875,0.1470870971679688,13.64920043945312,2,9533.699344625,4,1,1580905817.940511,1580903939.50652,1577,0.4102195,0,0,2131.439,1,0,1580905796.492468,9530.782652,0,-1.807343,97.22408
1580905818.153205,151,0,1580904337.000819,41.20701635159924,29.07533761282497,172.748,-1,-1,5.74967098236084,48.00724964208526,-9999,9533.907427291668,0.978515625,0.1296539306640625,-0.188079833984375,9533.902392291668,0.8481890709605487,1.365839827134156,-0.1217643783981119,0.08152493089437485,-0.2216649204492569,-0.1058306246995926,-0.001643776893615723,0.0009871572256088257,0.01464289426803589,2,0.3022155385987327,-0.5546683120332422,-0.2836244004966413,-0.7215026850184969,0.9718207716941833,0.1214637085795403,-0.2020176649093628,20.52921295166016,0.3328475952148438,13.6971435546875,2,9533.699344625,4,1,1580905817.940511,1580903939.50652,1577,0.4102195,0,0,2131.439,1,0,1580905796.492468,9530.782652,0,-1.807343,97.22408
1580905818.154521,152,0,1580904337.000819,41.20701635159924,29.07533761282497,172.748,-1,-1,5.74967098236084,48.00724964208526,-9999,9533.917467291667,1.007171630859375,0.1403045654296875,-0.1714324951171875,9533.912432291667,0.846870379700505,1.362755106904626,-0.122708070187621,0.1073780506849289,-0.2872120141983032,-0.1181584820151329,0.005842268466949463,0.007052749395370483,0.01560670137405396,2,0.3017387291810878,-0.5535868324068016,-0.2833341972702873,-0.7226459182928302,0.9710803031921387,0.1224003583192825,-0.2049907147884369,20.52921295166016,0.3328475952148438,13.6971435546875,2,9533.699344625,4,1,1580905817.940511,1580903939.50652,1577,0.4102195,0,0,2131.439,1,0,1580905796.492468,9530.782652,0,-1.807343,97.22408
1580905818.155635,153,0,1580904337.000819,41.20701635159924,29.07533761282497,172.748,-1,-1,5.74967098236084,48.00724964208526,-9999,9533.927508291667,1.038177490234375,0.143646240234375,-0.1597137451171875,9533.922472291668,0.8451631820482921,1.358555677671097,-0.1238920756993399,0.1424148678779602,-0.3960713744163513,-0.1494519710540771,0.03551161289215088,0.01652643084526062,0.03630614280700684,2,0.3010816643620153,-0.5521156821243388,-0.282999002633558,-0.724175204869678,0.9700685739517212,0.1235753744840622,-0.2090362161397934,20.60491180419922,0.0590057373046875,13.53732299804688,2,9533.699344625,4,1,1580905817.940511,1580903939.50652,1577,0.4102195,0,0,2131.439,1,0,1580905796.492468,9530.782652,0,-1.807343,97.22408
1580905818.161039,154,0,1580904337.000819,41.20701635159924,29.07533761282497,172.748,-1,-1,5.74967098236084,48.00724964208526,-9999,9533.937548291668,1.03399658203125,0.1144561767578125,-0.1912384033203125,9533.932513291667,0.8431915391514988,1.353334859228048,-0.1254869002156058,0.1589389443397522,-0.5021302700042725,-0.1988169401884079,0.06781774759292603,0.01828305423259735,0.05305188894271851,2,0.3003527938421924,-0.5502369119704676,-0.2825979342764937,-0.726061914786154,0.9687702655792236,0.125157818198204,-0.2140550762414932,20.60491180419922,0.0590057373046875,13.53732299804688,2,9533.699344625,4,1,1580905817.940511,1580903939.50652,1577,0.4102195,0,0,2131.439,1,0,1580905796.492468,9530.782652,0,-1.807343,97.22408
1580905818.171137,155,0,1580904337.000819,41.20701635159924,29.07533761282497,172.748,-1,-1,5.74967098236084,48.00724964208526,-9999,9533.947588291667,0.9742584228515625,0.108673095703125,-0.2251129150390625,9533.942553291667,0.8411933560175797,1.347994044464424,-0.1273916719608506,0.1502740830183029,-0.5126314163208008,-0.22948057949543,0.06503051519393921,-0.01279965043067932,0.02665364742279053,2,0.2997116917301116,-0.5482576215000726,-0.2821112808521052,-0.7280108144018793,0.9673790335655212,0.1270473897457123,-0.2191729694604874,20.65985107421875,0.3437271118164062,13.16482543945312,2,9533.699344625,4,1,1580905817.940511,1580903939.50652,1577,0.4102195,0,0,2131.439,1,0,1580905796.492468,9530.782652,0,-1.807343,97.22408
1580905818.181451,156,0,1580904337.000819,41.20701635159924,29.07533761282497,172.748,-1,-1,5.74967098236084,48.00724964208526,-9999,9533.957628291668,0.97711181640625,0.13104248046875,-0.2162628173828125,9533.952593291668,0.8391423743062751,1.34290160730415,-0.1295105362122206,0.1514622569084167,-0.4827353656291962,-0.2527222335338593,0.006687700748443604,-0.02068758010864258,-0.002350807189941406,2,0.2991706301305789,-0.5463326697569373,-0.2815029763428737,-0.7299134585829022,0.9659859538078308,0.1291487962007523,-0.2240350991487503,20.65985107421875,0.3437271118164062,13.16482543945312,2,9533.699344625,4,1,1580905817.940511,1580903939.50652,1577,0.4102195,0,0,2131.439,1,0,1580905796.492468,9530.782652,0,-1.807343,97.22408
1580905818.214183,157,0,1580904337.000819,41.20701635159924,29.07533761282497,172.748,-1,-1,5.74967098236084,48.00724964208526,-9999,9533.967699291667,0.956268310546875,0.1321868896484375,-0.224151611328125,9533.962633291667,0.8370547954703279,1.337945512799463,-0.1317408590744675,0.1499546468257904,-0.4718656837940216,-0.2651584148406982,0.0109483003616333,-0.0005331486463546753,0.01122474670410156,2,0.2986828432345442,-0.5444374649102827,-0.2808262662564907,-0.7317875895753654,0.9645811319351196,0.1313601136207581,-0.2287528067827225,20.63230133056641,0.5016288757324219,12.88424682617188,2,9533.699344625,4,1,1580905817.940511,1580903939.50652,1577,0.4102195,0,0,2131.439,1,0,1580905796.492468,9530.782652,0,-1.807343,97.22408
1580905818.216509,158,0,1580904337.000819,41.20701635159924,29.07533761282497,172.748,-1,-1,5.74967098236084,48.00724964208526,-9999,9533.977740291668,0.9162750244140625,0.1360015869140625,-0.2374114990234375,9533.972674291666,0.8349763634338074,1.333523517930735,-0.1338980877554823,0.1485554128885269,-0.4156671166419983,-0.2600763142108917,-0.008594334125518799,-0.001530468463897705,0.007538914680480957,2,0.2982520955258372,-0.5427442284093442,-0.2800928471015264,-0.733500119760519,0.9632824659347534,0.133498340845108,-0.2329487800598145,20.63230133056641,0.5016288757324219,12.88424682617188,2,9533.699344625,4,1,1580905817.940511,1580903939.50652,1577,0.4102195,0,0,2131.439,1,0,1580905796.492468,9530.782652,0,-1.807343,97.22408
1580905818.218085,159,0,1580904337.000819,41.20701635159924,29.07533761282497,172.748,-1,-1,5.74967098236084,48.00724964208526,-9999,9533.987780291667,0.8861236572265625,0.1429595947265625,-0.239105224609375,9533.982714291667,0.832946469164486,1.329884043885612,-0.1358439224823789,0.1479562073945999,-0.3414163291454315,-0.2368474155664444,-0.04747772216796875,0.0003528743982315063,-0.0022735595703125,2,0.2978744745894395,-0.5413644502191235,-0.2793209043123512,-0.7349661683673622,0.9621742367744446,0.1354265064001083,-0.2363906651735306,20.83214569091797,0.5825309753417969,12.45474243164062,2,9533.699344625,4,1,1580905817.940511,1580903939.50652,1577,0.4102195,0,0,2131.439,1,0,1580905796.492468,9530.782652,0,-1.807343,97.22408
1580905818.221848,160,0,1580904337.000819,41.20701635159924,29.07533761282497,172.748,-1,-1,5.74967098236084,48.00724964208526,-9999,9533.997820291666,0.9033966064453125,0.1382293701171875,-0.244476318359375,9533.992754291667,0.8309508279206247,1.326940703910019,-0.1375944402449094,0.1489484459161758,-0.2679948210716248,-0.2174535542726517,-0.07669621706008911,0.005573868751525879,-0.001189589500427246,2,0.297538450794168,-0.5402674060185508,-0.2785136346341346,-0.7362147079208493,0.96124267578125,0.1371606886386871,-0.2391639947891235,20.83214569091797,0.5825309753417969,12.45474243164062,2,9533.699344625,4,1,1580905817.940511,1580903939.50652,1577,0.4102195,0,0,2131.439,1,0,1580905796.492468,9530.782652,0,-1.807343,97.22408
1580905818.23158,161,0,1580904337.000819,41.20701635159924,29.07533761282497,172.748,-1,-1,5.74967098236084,48.00724964208526,-9999,9534.007860291667,0.940673828125,0.151123046875,-0.2382659912109375,9534.002794291668,0.8289733686207715,1.324248922981571,-0.1391868913229167,0.1502517908811569,-0.2492320388555527,-0.2017715275287628,-0.05856156349182129,-0.0007362067699432373,-0.004023551940917969,2,0.2971897666302724,-0.5392863345170601,-0.2777205908049463,-0.7373735630684825,0.9603824019432068,0.1387379169464111,-0.2416969835758209,20.87575531005859,0.7325057983398438,12.37103271484375,2,9533.699344625,4,1,1580905817.940511,1580903939.50652,1577,0.4102195,0,0,2131.439,1,0,1580905796.492468,9530.782652,0,-1.807343,97.22408
