loggingTime,loggingSample,identifierForVendor,locationTimestamp_since1970,locationLatitude,locationLongitude,locationAltitude,locationSpeed,locationCourse,locationVerticalAccuracy,locationHorizontalAccuracy,locationFloor,accelerometerTimestamp_sinceReboot,accelerometerAccelerationX,accelerometerAccelerationY,accelerometerAccelerationZ,motionTimestamp_sinceReboot,motionYaw,motionRoll,motionPitch,motionRotationRateX,motionRotationRateY,motionRotationRateZ,motionUserAccelerationX,motionUserAccelerationY,motionUserAccelerationZ,motionAttitudeReferenceFrame,motionQuaternionX,motionQuaternionY,motionQuaternionZ,motionQuaternionW,motionGravityX,motionGravityY,motionGravityZ,motionMagneticFieldX,motionMagneticFieldY,motionMagneticFieldZ,motionMagneticFieldCalibrationAccuracy,activityTimestamp_sinceReboot,activity,activityActivityConfidence,activityActivityStartDate,pedometerStartDate,pedometerNumberofSteps,pedometerAverageActivePace,pedometerCurrentPace,pedometerCurrentCadence,pedometerDistance,pedometerFloorAscended,pedometerFloorDescended,pedometerEndDate,altimeterTimestamp_sinceReboot,altimeterReset,altimeterRelativeAltitude,altimeterPressure
1580908624.354361,1,0,1580907286.99823,41.20781296037784,29.0754925099451,275.2123,0.1345286,-1,23.46983528137207,200,-9999,12340.10610579167,0.960601806640625,0.0853271484375,-0.1739349365234375,12340.09603479167,1.063227064751117,1.402225305649374,-0.08510120709521181,0.00524864811450243,-0.007249894551932812,0.01143782585859299,-0.02411437034606934,0.0006590783596038818,-0.002668857574462891,2,0.3547234437200419,-0.5390621126428765,-0.3633504924324099,-0.6719819350440839,0.9822579026222229,0.08499852567911148,-0.1671666353940964,39.33496856689453,21.42560577392578,-6.593536376953125,2,12338.21939875,4,2,1580908622.460565,1580903939.50652,2875,0.4941365,0,0,3428.459,14,15,1580908583.647325,12337.300557,0,4.272644,97.15349
1580908624.355685,2,0,1580907286.99823,41.20781296037784,29.0754925099451,275.2123,0.1345286,-1,23.46983528137207,200,-9999,12340.11614579167,0.9570159912109375,0.086700439453125,-0.1755828857421875,12340.10610579167,1.063090311405541,1.402183201734001,-0.08498668393091828,-9.125657379627228e-05,-0.002719324082136154,0.01226899772882462,-0.02510881423950195,0.0002852678298950195,-0.009232819080352783,2,0.3546420340469661,-0.5390957359964564,-0.3633447689312017,-0.6720010606425831,0.9822604656219482,0.084884412586689,-0.1672096252441406,39.50115966796875,21.23816680908203,-6.429046630859375,2,12338.21939875,4,2,1580908622.460565,1580903939.50652,2875,0.4941365,0,0,3428.459,14,15,1580908583.647325,12337.300557,0,4.272644,97.15349
1580908624.356736,3,0,1580907286.99823,41.20781296037784,29.0754925099451,275.2123,0.1345286,-1,23.46983528137207,200,-9999,12340.12618579167,0.9633636474609375,0.0851287841796875,-0.172210693359375,12340.11614579167,1.063074761038716,1.402210561064027,-0.08487138028179012,0.004037638194859028,0.003083543851971626,0.01186938211321831,-0.02913618087768555,0.0015907883644104,-0.01182162761688232,2,0.3546056852211259,-0.5391313502998145,-0.3633676653022995,-0.6719792528758114,0.9822746515274048,0.08476952463388443,-0.1671843975782394,39.50115966796875,21.23816680908203,-6.429046630859375,2,12338.21939875,4,2,1580908622.460565,1580903939.50652,2875,0.4941365,0,0,3428.459,14,15,1580908583.647325,12337.300557,0,4.272644,97.15349
1580908624.357683,4,0,1580907286.99823,41.20781296037784,29.0754925099451,275.2123,0.1345286,-1,23.46983528137207,200,-9999,12340.13622679167,0.9632568359375,0.0834808349609375,-0.174346923828125,12340.12618579167,1.062930317128277,1.402276958959255,-0.08477909706528404,0.0009198756888508797,0.007956063374876976,0.008856547996401787,-0.02315831184387207,0.0002945363521575928,-0.00807112455368042,2,0.3545490834691766,-0.5391982082032534,-0.3633337549475049,-0.6719738067887278,0.982293426990509,0.08467757701873779,-0.167120486497879,39.36225891113281,21.59330368041992,-6.4654541015625,2,12338.21939875,4,2,1580908622.460565,1580903939.50652,2875,0.4941365,0,0,3428.459,14,15,1580908583.647325,12337.300557,0,4.272644,97.15349
1580908624.358871,5,0,1580907286.99823,41.20781296037784,29.0754925099451,275.2123,0.1345286,-1,23.46983528137207,200,-9999,12340.14626679167,0.96148681640625,0.0832061767578125,-0.174285888671875,12340.13622679167,1.062967898692558,1.402390082687942,-0.0847113560954101,-0.00367157906293869,0.01101247780025005,0.00786193460226059,-0.02220636606216431,-0.001148372888565063,-0.01008903980255127,2,0.3545579324873011,-0.539243460460119,-0.3633457064534196,-0.6719263990282219,0.9823180437088013,0.08461007475852966,-0.1670103222131729,39.36225891113281,21.59330368041992,-6.4654541015625,2,12338.21939875,4,2,1580908622.460565,1580903939.50652,2875,0.4941365,0,0,3428.459,14,15,1580908583.647325,12337.300557,0,4.272644,97.15349
1580908624.359881,6,0,1580907286.99823,41.20781296037784,29.0754925099451,275.2123,0.1345286,-1,23.46983528137207,200,-9999,12340.15630679167,0.964447021484375,0.084228515625,-0.1718902587890625,12340.14626679167,1.062852822427711,1.402582421149209,-0.08468334422812063,-0.003592216875404119,0.0206840131431818,0.003204864449799061,-0.02456033229827881,-0.00163915753364563,-0.01061379909515381,2,0.3545528090887836,-0.539334230264306,-0.3632809645585299,-0.6718912847059505,0.9823524951934814,0.08458216488361359,-0.1668217927217484,39.37639617919922,21.35863876342773,-6.4993896484375,2,12338.21939875,4,2,1580908622.460565,1580903939.50652,2875,0.4941365,0,0,3428.459,14,15,1580908583.647325,12337.300557,0,4.272644,97.15349
1580908624.385931,7,0,1580907286.99823,41.20781296037784,29.0754925099451,275.2123,0.1345286,-1,23.46983528137207,200,-9999,12340.16634679167,0.966796875,0.0874481201171875,-0.1692352294921875,12340.15630679167,1.062894832023658,1.402767379897994,-0.08466104230870733,-0.005870018620043993,0.01941821165382862,0.003092745319008827,-0.021770179271698,-0.0008538961410522461,-0.008644461631774902,2,0.3545905717445572,-0.5393934829368345,-0.3632686592342886,-0.6718303822016494,0.9823851585388184,0.08455994725227356,-0.1666404008865356,39.37639617919922,21.35863876342773,-6.4993896484375,2,12338.21939875,4,2,1580908622.460565,1580903939.50652,2875,0.4941365,0,0,3428.459,14,15,1580908583.647325,12337.300557,0,4.272644,97.15349
1580908624.387143,8,0,1580907286.99823,41.20781296037784,29.0754925099451,275.2123,0.1345286,-1,23.46983528137207,200,-9999,12340.17638779167,0.96148681640625,0.0884857177734375,-0.1696014404296875,12340.16634679167,1.062768475416469,1.402855007173434,-0.08460225991669287,-0.001050801482051611,0.007502429187297821,0.006036904640495777,-0.0191347599029541,0.002226084470748901,-0.006151318550109863,2,0.3545534853378738,-0.5394573744232412,-0.3632274927913148,-0.6718208829487786,0.9824045896530151,0.08450137078762054,-0.1665551364421844,39.37592315673828,21.27079391479492,-6.43218994140625,2,12338.21939875,4,2,1580908622.460565,1580903939.50652,2875,0.4941365,0,0,3428.459,14,15,1580908583.647325,12337.300557,0,4.272644,97.15349
1580908624.388478,9,0,1580907286.99823,41.20781296037784,29.0754925099451,275.2123,0.1345286,-1,23.46983528137207,200,-9999,12340.18642779167,0.95587158203125,0.0871734619140625,-0.173126220703125,12340.17638779167,1.062779248547156,1.40292346495337,-0.0844898988645776,0.0008198805153369904,0.006156466901302338,0.01151868514716625,-0.02358055114746094,0.003757566213607788,-0.005927324295043945,2,0.3545326400560771,-0.5395015063457826,-0.3632511206085071,-0.6717836553775008,0.982425332069397,0.08438941091299057,-0.1664894670248032,39.37592315673828,21.27079391479492,-6.43218994140625,2,12338.21939875,4,2,1580908622.460565,1580903939.50652,2875,0.4941365,0,0,3428.459,14,15,1580908583.647325,12337.300557,0,4.272644,97.15349
1580908624.398575,10,0,1580907286.99823,41.20781296037784,29.0754925099451,275.2123,0.1345286,-1,23.46983528137207,200,-9999,12340.19649879167,0.9621734619140625,0.0872344970703125,-0.17083740234375,12340.18642779167,1.062625867796145,1.403056030264836,-0.08432784704591617,0.002736557275056839,0.01556701399385929,0.01629852689802647,-0.03022313117980957,0.002622634172439575,-0.009687185287475586,2,0.354463116806102,-0.539606466015279,-0.363222478224136,-0.6717516019811218,0.9824609756469727,0.08422793447971344,-0.1663615256547928,39.12020874023438,21.39370727539062,-6.451904296875,2,12338.21939875,4,2,1580908622.460565,1580903939.50652,2875,0.4941365,0,0,3428.459,14,15,1580908583.647325,12337.300557,0,4.272644,97.15349
1580908624.408684,11,0,1580907286.99823,41.20781296037784,29.0754925099451,275.2123,0.1345286,-1,23.46983528137207,200,-9999,12340.20653879167,0.968414306640625,0.085906982421875,-0.1693572998046875,12340.19649879167,1.06260971704438,1.40317811595102,-0.08413580557983952,0.004374015145003796,0.01437046565115452,0.01975381560623646,-0.02470529079437256,0.002860486507415771,-0.008004188537597656,2,0.3544190705461799,-0.5396897119917463,-0.3632503663201633,-0.6716929019044524,0.9824972152709961,0.08403657376766205,-0.1662442684173584,39.12020874023438,21.39370727539062,-6.451904296875,2,12338.21939875,4,2,1580908622.460565,1580903939.50652,2875,0.4941365,0,0,3428.459,14,15,1580908583.647325,12337.300557,0,4.272644,97.15349
1580908624.418978,12,0,1580907286.99823,41.20781296037784,29.0754925099451,275.2123,0.1345286,-1,23.46983528137207,200,-9999,12340.21657879167,0.9708404541015625,0.084991455078125,-0.1697998046875,12340.20653879167,1.062444007741198,1.403230550563896,-0.08395909441925066,0.003466942347586155,0.00595940463244915,0.01824326999485493,-0.01812160015106201,0.001877516508102417,-0.00610041618347168,2,0.3543269925251863,-0.5397728934655577,-0.3632359719314925,-0.6716823197584887,0.9825204610824585,0.08386048674583435,-0.1661952137947083,39.10248565673828,21.44392776489258,-6.376434326171875,2,12338.21939875,4,2,1580908622.460565,1580903939.50652,2875,0.4941365,0,0,3428.459,14,15,1580908583.647325,12337.300557,0,4.272644,97.15349
1580908624.44616,13,0,1580907286.99823,41.20781296037784,29.0754925099451,275.2123,0.1345286,-1,23.46983528137207,200,-9999,12340.22661979167,0.9697113037109375,0.083709716796875,-0.16973876953125,12340.21657879167,1.062425005019219,1.403217353691833,-0.08382329807927262,0.004548539407551289,0.0007435902953147888,0.01376645918935537,-0.01549094915390015,0.001052051782608032,-0.006619572639465332,2,0.3542757109048351,-0.5397996660948104,-0.3632707857878146,-0.6716690613341885,0.9825295209884644,0.08372516930103302,-0.1662100851535797,39.10248565673828,21.44392776489258,-6.376434326171875,2,12338.21939875,4,2,1580908622.460565,1580903939.50652,2875,0.4941365,0,0,3428.459,14,15,1580908583.647325,12337.300557,0,4.272644,97.15349
1580908624.447159,14,0,1580907286.99823,41.20781296037784,29.0754925099451,275.2123,0.1345286,-1,23.46983528137207,200,-9999,12340.23665979167,0.96722412109375,0.0818023681640625,-0.171966552734375,12340.22661979167,1.062257786428549,1.403147928782118,-0.08374057119077481,0.00266009196639061,-0.006511658430099487,0.008343464694917202,-0.01620328426361084,9.721517562866211e-05,-0.006320953369140625,2,0.3541913117288022,-0.5398229234356917,-0.3632505935090857,-0.6717058166606993,0.9825248122215271,0.08364273607730865,-0.1662794500589371,39.17519378662109,21.44074058532715,-6.45477294921875,2,12338.21939875,4,2,1580908622.460565,1580903939.50652,2875,0.4941365,0,0,3428.459,14,15,1580908583.647325,12337.300557,0,4.272644,97.15349
1580908624.448606,15,0,1580907286.99823,41.20781296037784,29.0754925099451,275.2123,0.1345286,-1,23.46983528137207,200,-9999,12340.24669979167,0.9634552001953125,0.0831298828125,-0.171875,12340.23665979167,1.06224699563761,1.403079285684661,-0.08371913578069305,0.001146350987255573,-0.006299139000475407,0.001628303900361061,-0.01863497495651245,-0.00224640965461731,-0.008541703224182129,2,0.354168998679985,-0.5398061837909103,-0.3632652667851193,-0.6717231747191372,0.9825152158737183,0.08362137526273727,-0.1663472056388855,39.17519378662109,21.44074058532715,-6.45477294921875,2,12338.21939875,4,2,1580908622.460565,1580903939.50652,2875,0.4941365,0,0,3428.459,14,15,1580908583.647325,12337.300557,0,4.272644,97.15349
1580908624.458798,16,0,1580907286.99823,41.20781296037784,29.0754925099451,275.2123,0.1345286,-1,23.46983528137207,200,-9999,12340.25674079167,0.96258544921875,0.0844879150390625,-0.172393798828125,12340.24669979167,1.062080753623297,1.40304026465712,-0.08374051033789592,0.001129573211073875,-0.002362720668315887,-0.002738215029239655,-0.02216684818267822,-0.0009097754955291748,-0.008625626564025879,2,0.3541239698731657,-0.5398181178580598,-0.3632102116650913,-0.6717669791862874,0.9825068712234497,0.08364267647266388,-0.1663852334022522,39.35128784179688,21.34208106994629,-6.363433837890625,2,12338.21939875,4,2,1580908622.460565,1580903939.50652,2875,0.4941365,0,0,3428.459,14,15,1580908583.647325,12337.300557,0,4.272644,97.15349
1580908624.468934,17,0,1580907286.99823,41.20781296037784,29.0754925099451,275.2123,0.1345286,-1,23.46983528137207,200,-9999,12340.26678079167,0.9618072509765625,0.08349609375,-0.1726837158203125,12340.25674079167,1.062060525270625,1.403001177548404,-0.08379054511365454,0.0009249551221728325,-0.0040918979793787,-0.005794953554868698,-0.02384984493255615,0.0005354881286621094,-0.009152412414550781,2,0.3541275247431505,-0.5397983219155768,-0.3631960258157177,-0.6717887059342316,0.9824962615966797,0.08369253575801849,-0.1664229333400726,39.35128784179688,21.34208106994629,-6.363433837890625,2,12338.21939875,4,2,1580908622.460565,1580903939.50652,2875,0.4941365,0,0,3428.459,14,15,1580908583.647325,12337.300557,0,4.272644,97.15349
1580908624.478882,18,0,1580907286.99823,41.20781296037784,29.0754925099451,275.2123,0.1345286,-1,23.46983528137207,200,-9999,12340.27682079167,0.9586334228515625,0.0853271484375,-0.173919677734375,12340.26678079167,1.06189157419201,1.403007479705866,-0.08381770746392397,0.002526845782995224,0.001665588468313217,-0.002354682423174381,-0.02380275726318359,-0.0005444884300231934,-0.009052157402038574,2,0.3540918024066543,-0.5398247944276133,-0.3631303932775047,-0.6718217934377945,0.982495129108429,0.08371959626674652,-0.1664163768291473,39.45265197753906,21.26649475097656,-6.414520263671875,2,12338.21939875,4,2,1580908622.460565,1580903939.50652,2875,0.4941365,0,0,3428.459,14,15,1580908583.647325,12337.300557,0,4.272644,97.15349
1580908624.503442,19,0,1580907286.99823,41.20781296037784,29.0754925099451,275.2123,0.1345286,-1,23.46983528137207,200,-9999,12340.28689179167,0.961212158203125,0.0858917236328125,-0.172821044921875,12340.27682079167,1.061893262310689,1.403110482644109,-0.08381915022148163,-0.0002669142559170723,0.01182952709496021,0.0005027530714869499,-0.02734458446502686,0.00104096531867981,-0.01067942380905151,2,0.3541113972324948,-0.5398588101946376,-0.3631123195215117,-0.6717939759136031,0.9825122356414795,0.08372103422880173,-0.1663151681423187,39.45265197753906,21.26649475097656,-6.414520263671875,2,12338.21939875,4,2,1580908622.460565,1580903939.50652,2875,0.4941365,0,0,3428.459,14,15,1580908583.647325,12337.300557,0,4.272644,97.15349
1580908624.504882,20,0,1580907286.99823,41.20781296037784,29.0754925099451,275.2123,0.1345286,-1,23.46983528137207,200,-9999,12340.29693179167,0.9639739990234375,0.0859375,-0.170684814453125,12340.28689179167,1.061770366654497,1.403252073536251,-0.08376999929504379,-0.001744702458381653,0.01493637077510357,0.005999783985316753,-0.02515983581542969,0.001868307590484619,-0.009979248046875,2,0.3540881036798919,-0.5399381911394949,-0.363060031265496,-0.6717706794685682,0.9825397729873657,0.08367206156253815,-0.1661767363548279,39.37870788574219,21.40108108520508,-6.276885986328125,2,12338.21939875,4,2,1580908622.460565,1580903939.50652,2875,0.4941365,0,0,3428.459,14,15,1580908583.647325,12337.300557,0,4.272644,97.15349
1580908624.509028,21,0,1580907286.99823,41.20781296037784,29.0754925099451,275.2123,0.1345286,-1,23.46983528137207,200,-9999,12340.30697179167,0.9649658203125,0.0849761962890625,-0.1706695556640625,12340.29693179167,1.061659327492807,1.403351837092758,-0.08368789081091163,-0.002386828418821096,0.008657181635499001,0.008284042589366436,-0.02225351333618164,0.002103090286254883,-0.007863879203796387,2,0.3540497694179612,-0.5400081785534482,-0.3630285736256673,-0.6717516529433001,0.9825631380081177,0.08359023928642273,-0.1660798490047455,39.35179901123047,21.21730041503906,-6.371490478515625,2,12338.21939875,4,2,1580908622.460565,1580903939.50652,2875,0.4941365,0,0,3428.459,14,15,1580908583.647325,12337.300557,0,4.272644,97.15349
1580908624.519051,22,0,1580907286.99823,41.20781296037784,29.0754925099451,275.2123,0.1345286,-1,23.46983528137207,200,-9999,12340.31701279167,0.963043212890625,0.0856170654296875,-0.170074462890625,12340.30697179167,1.061708501053663,1.403438890558101,-0.08358196199282865,-0.002282698638737202,0.008493930101394653,0.01146864984184504,-0.02130031585693359,0.001110345125198364,-0.00784146785736084,2,0.3540447139429956,-0.5400504073457781,-0.3630599948399427,-0.6717033992706231,0.9825863242149353,0.08348467946052551,-0.165995791554451,39.35179901123047,21.21730041503906,-6.371490478515625,2,12338.21939875,4,2,1580908622.460565,1580903939.50652,2875,0.4941365,0,0,3428.459,14,15,1580908583.647325,12337.300557,0,4.272644,97.15349
1580908624.529161,23,0,1580907286.99823,41.20781296037784,29.0754925099451,275.2123,0.1345286,-1,23.46983528137207,200,-9999,12340.32705279167,0.964874267578125,0.08489990234375,-0.1701812744140625,12340.31701279167,1.061602035034148,1.403527243746291,-0.083462041382991,-0.001323162112385035,0.008937345817685127,0.0131656164303422,-0.02280509471893311,0.001871109008789062,-0.007164120674133301,2,0.3539933969744479,-0.540123467843461,-0.3630429077900014,-0.6716808415682556,0.9826107621192932,0.08336517959833145,-0.1659106314182281,39.29415893554688,21.34609985351562,-6.391876220703125,2,12338.21939875,4,2,1580908622.460565,1580903939.50652,2875,0.4941365,0,0,3428.459,14,15,1580908583.647325,12337.300557,0,4.272644,97.15349
1580908624.539163,24,0,1580907286.99823,41.20781296037784,29.0754925099451,275.2123,0.1345286,-1,23.46983528137207,200,-9999,12340.33709279167,0.9670867919921875,0.08367919921875,-0.17022705078125,12340.32705279167,1.061623849318266,1.403591749645009,-0.08336269194643675,-0.001926559489220381,0.006453689187765121,0.01028241403400898,-0.02180171012878418,0.001527994871139526,-0.007348537445068359,2,0.3539789927402532,-0.5401616084844865,-0.3630672476259197,-0.671644588492723,0.9826295971870422,0.08326617628335953,-0.1658486127853394,39.29415893554688,21.34609985351562,-6.391876220703125,2,12338.21939875,4,2,1580908622.460565,1580903939.50652,2875,0.4941365,0,0,3428.459,14,15,1580908583.647325,12337.300557,0,4.272644,97.15349
1580908624.567636,25,0,1580907286.99823,41.20781296037784,29.0754925099451,275.2123,0.1345286,-1,23.46983528137207,200,-9999,12340.34713379167,0.963287353515625,0.0854034423828125,-0.17059326171875,12340.33709279167,1.061483683996474,1.403622290695016,-0.0832690668737993,0.0003655068576335907,0.00304856151342392,0.009109891951084137,-0.01902198791503906,0.000111013650894165,-0.007529735565185547,2,0.3539165005425779,-0.5402158414801788,-0.3630415704238167,-0.6716478135040103,0.9826423525810242,0.08317287266254425,-0.16581991314888,39.30929565429688,21.42244720458984,-6.299896240234375,2,12338.21939875,4,2,1580908622.460565,1580903939.50652,2875,0.4941365,0,0,3428.459,14,15,1580908583.647325,12337.300557,0,4.272644,97.15349
1580908624.569327,26,0,1580907286.99823,41.20781296037784,29.0754925099451,275.2123,0.1345286,-1,23.46983528137207,200,-9999,12340.35717379167,0.962188720703125,0.0843505859375,-0.1712493896484375,12340.34713379167,1.061480542242513,1.403674014871694,-0.08315826449103157,0.002236377447843552,0.005239276215434074,0.01119141839444637,-0.02265596389770508,0.001824080944061279,-0.007792770862579346,2,0.3538893479344599,-0.540256442859841,-0.363063070743047,-0.6716178130973455,0.9826599955558777,0.08306245505809784,-0.1657706052064896,39.30929565429688,21.42244720458984,-6.299896240234375,2,12338.21939875,4,2,1580908622.460565,1580903939.50652,2875,0.4941365,0,0,3428.459,14,15,1580908583.647325,12337.300557,0,4.272644,97.15349
1580908624.570386,27,0,1580907286.99823,41.20781296037784,29.0754925099451,275.2123,0.1345286,-1,23.46983528137207,200,-9999,12340.36721379167,0.963409423828125,0.0850372314453125,-0.1692047119140625,12340.35717379167,1.061329288824831,1.403731581615817,-0.08304395069376441,0.003880996257066727,0.006246494129300117,0.0109332911670208,-0.02409398555755615,0.001267045736312866,-0.008656620979309082,2,0.3538221035414702,-0.5403259291258269,-0.3630348095739779,-0.6716126142462373,0.9826788902282715,0.08294853568077087,-0.1657156199216843,39.43159484863281,21.33143997192383,-6.067596435546875,2,12338.21939875,4,2,1580908622.460565,1580903939.50652,2875,0.4941365,0,0,3428.459,14,15,1580908583.647325,12337.300557,0,4.272644,97.15349
1580908624.579388,28,0,1580907286.99823,41.20781296037784,29.0754925099451,275.2123,0.1345286,-1,23.46983528137207,200,-9999,12340.37725379167,0.96002197265625,0.0868682861328125,-0.1702728271484375,12340.36721379167,1.061330285353141,1.403772124412102,-0.08289724258062786,0.002975520677864552,0.004566306248307228,0.01437116600573063,-0.02287662029266357,0.001642614603042603,-0.00687873363494873,2,0.3537824300510264,-0.5403693974006708,-0.3630699688539625,-0.6715796080853538,0.9826976656913757,0.08280233293771744,-0.1656778156757355,39.43159484863281,21.33143997192383,-6.067596435546875,2,12338.21939875,4,2,1580908622.460565,1580903939.50652,2875,0.4941365,0,0,3428.459,14,15,1580908583.647325,12337.300557,0,4.272644,97.15349
1580908624.589419,29,0,1580907286.99823,41.20781296037784,29.0754925099451,275.2123,0.1345286,-1,23.46983528137207,200,-9999,12340.38732479167,0.95745849609375,0.086639404296875,-0.172637939453125,12340.37725379167,1.061199651810999,1.403831441242841,-0.08267583175200981,0.002550066448748112,0.005740206688642502,0.02191736549139023,-0.02597171068191528,0.003954499959945679,-0.007285118103027344,2,0.3536865328074515,-0.5404577226988503,-0.363078985455813,-0.6715542119355327,0.9827256202697754,0.08258167654275894,-0.1656225770711899,39.41590881347656,21.26520156860352,-6.460174560546875,2,12338.21939875,4,2,1580908622.460565,1580903939.50652,2875,0.4941365,0,0,3428.459,14,15,1580908583.647325,12337.300557,0,4.272644,97.15349
1580908624.599538,30,0,1580907286.99823,41.20781296037784,29.0754925099451,275.2123,0.1345286,-1,23.46983528137207,200,-9999,12340.39736579167,0.9582366943359375,0.0868072509765625,-0.17352294921875,12340.38732479167,1.061220250877534,1.403968101696512,-0.08235126758021968,0.00311119481921196,0.01278107240796089,0.03305523842573166,-0.02887439727783203,0.004080832004547119,-0.01004016399383545,2,0.3536123597501333,-0.5405663276739752,-0.3631546095404162,-0.6714648295847574,0.9827744960784912,0.08225821703672409,-0.1654926836490631,39.41590881347656,21.26520156860352,-6.460174560546875,2,12338.21939875,4,2,1580908622.460565,1580903939.50652,2875,0.4941365,0,0,3428.459,14,15,1580908583.647325,12337.300557,0,4.272644,97.15349
1580908624.628158,31,0,1580907286.99823,41.20781296037784,29.0754925099451,275.2123,0.1345286,-1,23.46983528137207,200,-9999,12340.40740579167,0.96337890625,0.0864105224609375,-0.17095947265625,12340.39736579167,1.061076459733476,1.404209977224249,-0.08193494563553644,0.006625347770750523,0.02554481476545334,0.04216048493981361,-0.02833801507949829,0.004665076732635498,-0.01128005981445312,2,0.3534832021911622,-0.5407580772484052,-0.3631827399528272,-0.6713633033014723,0.9828482270240784,0.081843301653862,-0.1652606576681137,39.40259552001953,21.21915054321289,-6.441619873046875,2,12338.21939875,4,2,1580908622.460565,1580903939.50652,2875,0.4941365,0,0,3428.459,14,15,1580908583.647325,12337.300557,0,4.272644,97.15349
1580908624.629672,32,0,1580907286.99823,41.20781296037784,29.0754925099451,275.2123,0.1345286,-1,23.46983528137207,200,-9999,12340.41744579167,0.971954345703125,0.0863189697265625,-0.16485595703125,12340.40740579167,1.061045546007779,1.404445737850884,-0.08144952934237248,0.0116842882707715,0.02581778913736343,0.04768947511911392,-0.02396082878112793,0.004845410585403442,-0.009415864944458008,2,0.3533612419357881,-0.5409418593366078,-0.3632696171347852,-0.6712323407305094,0.9829261302947998,0.08135950565338135,-0.1650354713201523,39.40259552001953,21.21915054321289,-6.441619873046875,2,12338.21939875,4,2,1580908622.460565,1580903939.50652,2875,0.4941365,0,0,3428.459,14,15,1580908583.647325,12337.300557,0,4.272644,97.15349
1580908624.630772,33,0,1580907286.99823,41.20781296037784,29.0754925099451,275.2123,0.1345286,-1,23.46983528137207,200,-9999,12340.42748579167,0.97674560546875,0.0849456787109375,-0.1628265380859375,12340.41744579167,1.060815334961373,1.404532890053563,-0.08092511978631255,0.01703787967562675,0.0110620204359293,0.05071199685335159,-0.01548779010772705,0.005339533090591431,-0.003330230712890625,2,0.3531457532129835,-0.5411188879587485,-0.3633270472210757,-0.6711719903525482,0.9829825162887573,0.08083681762218475,-0.1649568527936935,39.41611480712891,21.36241149902344,-6.46832275390625,2,12338.21939875,4,2,1580908622.460565,1580903939.50652,2875,0.4941365,0,0,3428.459,14,15,1580908583.647325,12337.300557,0,4.272644,97.15349
1580908624.639642,34,0,1580907286.99823,41.20781296037784,29.0754925099451,275.2123,0.1345286,-1,23.46983528137207,200,-9999,12340.43752679167,0.97314453125,0.083648681640625,-0.1654510498046875,12340.42748579167,1.060688192839811,1.404406651468725,-0.08040721040840944,0.02157697081565857,-0.01095646247267723,0.04882381483912468,-0.009984493255615234,0.004545390605926514,-0.0006963014602661133,2,0.3529214556409603,-0.5412046974002114,-0.3634548589053785,-0.6711515291225669,0.983002781867981,0.08032059669494629,-0.1650878489017487,39.41611480712891,21.36241149902344,-6.46832275390625,2,12338.21939875,4,2,1580908622.460565,1580903939.50652,2875,0.4941365,0,0,3428.459,14,15,1580908583.647325,12337.300557,0,4.272644,97.15349
1580908624.649716,35,0,1580907286.99823,41.20781296037784,29.0754925099451,275.2123,0.1345286,-1,23.46983528137207,200,-9999,12340.44756679167,0.968109130859375,0.080810546875,-0.1693267822265625,12340.43752679167,1.060394323927384,1.404143433960331,-0.07989043040476287,0.02273949608206749,-0.02419659309089184,0.04865195602178574,-0.01282000541687012,0.003704339265823364,-0.002733826637268066,2,0.3526273994805776,-0.5412736717501038,-0.3635505225190725,-0.6711987318747745,0.9830001592636108,0.07980547100305557,-0.165353462100029,39.23080444335938,21.21560287475586,-6.433135986328125,2,12338.21939875,4,2,1580908622.460565,1580903939.50652,2875,0.4941365,0,0,3428.459,14,15,1580908583.647325,12337.300557,0,4.272644,97.15349
1580908624.659762,36,0,1580907286.99823,41.20781296037784,29.0754925099451,275.2123,0.1345286,-1,23.46983528137207,200,-9999,12340.45760679167,0.9663543701171875,0.0773162841796875,-0.171661376953125,12340.44756679167,1.060223359567654,1.403836091057146,-0.07939849589338091,0.02533821016550064,-0.02848348394036293,0.04595949873328209,-0.01802623271942139,0.00144997239112854,-0.006375968456268311,2,0.3523665024443377,-0.5413010246601118,-0.3636880293645188,-0.6712393230492082,0.9829879999160767,0.07931509613990784,-0.165662094950676,39.23080444335938,21.21560287475586,-6.433135986328125,2,12338.21939875,4,2,1580908622.460565,1580903939.50652,2875,0.4941365,0,0,3428.459,14,15,1580908583.647325,12337.300557,0,4.272644,97.15349
1580908624.689511,37,0,1580907286.99823,41.20781296037784,29.0754925099451,275.2123,0.1345286,-1,23.46983528137207,200,-9999,12340.46763841667,0.9638519287109375,0.076690673828125,-0.1724700927734375,12340.45760679167,1.059891380938263,1.40355800889467,-0.07896394332359702,0.02555897086858749,-0.02567523159086704,0.03941616788506508,-0.01990616321563721,-0.001563787460327148,-0.008827447891235352,2,0.3520858770462482,-0.5413547482225665,-0.363749824390705,-0.671309655138895,0.9829756617546082,0.07888190448284149,-0.1659411489963531,39.24326324462891,21.30817413330078,-6.44818115234375,2,12338.21939875,4,2,1580908622.460565,1580903939.50652,2875,0.4941365,0,0,3428.459,14,15,1580908583.647325,12337.300557,0,4.272644,97.15349
1580908624.691,38,0,1580907286.99823,41.20781296037784,29.0754925099451,275.2123,0.1345286,-1,23.46983528137207,200,-9999,12340.47770841667,0.9628753662109375,0.0777435302734375,-0.172821044921875,12340.46763841667,1.059724277391468,1.403330695555259,-0.07857552464217765,0.02358184009790421,-0.02113134600222111,0.03588321805000305,-0.02249264717102051,-0.002090692520141602,-0.009284734725952148,2,0.3518738929719161,-0.5413870340727277,-0.3638447869403951,-0.671343346961728,0.9829681515693665,0.07849469035863876,-0.1661696881055832,39.24326324462891,21.30817413330078,-6.44818115234375,2,12338.21939875,4,2,1580908622.460565,1580903939.50652,2875,0.4941365,0,0,3428.459,14,15,1580908583.647325,12337.300557,0,4.272644,97.15349
1580908624.692032,39,0,1580907286.99823,41.20781296037784,29.0754925099451,275.2123,0.1345286,-1,23.46983528137207,200,-9999,12340.48774941667,0.9645233154296875,0.0790557861328125,-0.1728363037109375,12340.47770841667,1.059419737736961,1.403141666108138,-0.07823054509742787,0.02096288651227951,-0.01826605014503002,0.0314466580748558,-0.02357125282287598,-0.0007384121417999268,-0.009353101253509521,2,0.3516456604693214,-0.5414474371092539,-0.3638744134764577,-0.6713981777863155,0.9829633831977844,0.07815077155828476,-0.166360005736351,39.25001525878906,21.05400085449219,-6.540863037109375,2,12338.21939875,4,2,1580908622.460565,1580903939.50652,2875,0.4941365,0,0,3428.459,14,15,1580908583.647325,12337.300557,0,4.272644,97.15349
1580908624.69987,40,0,1580907286.99823,41.20781296037784,29.0754925099451,275.2123,0.1345286,-1,23.46983528137207,200,-9999,12340.49778941667,0.9619903564453125,0.0796661376953125,-0.172271728515625,12340.48774941667,1.059292224705953,1.403014051616742,-0.07787283977904248,0.01788214221596718,-0.01106512919068336,0.03467840328812599,-0.02221953868865967,0.0008553862571716309,-0.009390652179718018,2,0.3514724343602398,-0.5414998519503335,-0.3639562545194342,-0.6714021180173559,0.9829694628715515,0.0777941569685936,-0.1664900779724121,39.25001525878906,21.05400085449219,-6.540863037109375,2,12338.21939875,4,2,1580908622.460565,1580903939.50652,2875,0.4941365,0,0,3428.459,14,15,1580908583.647325,12337.300557,0,4.272644,97.15349
1580908624.709859,41,0,1580907286.99823,41.20781296037784,29.0754925099451,275.2123,0.1345286,-1,23.46983528137207,200,-9999,12340.50782941667,0.9577178955078125,0.0815887451171875,-0.174713134765625,12340.49778941667,1.059037927366927,1.402963855615238,-0.07747249846877473,0.01709837466478348,-0.003985648974776268,0.038166344165802,-0.02385938167572021,0.002095252275466919,-0.008633971214294434,2,0.3512651056614577,-0.5416091949901184,-0.3639941095057001,-0.671401925801193,0.9829917550086975,0.07739502191543579,-0.1665446162223816,39.27059173583984,21.15281677246094,-6.5517578125,2,12338.21939875,4,2,1580908622.460565,1580903939.50652,2875,0.4941365,0,0,3428.459,14,15,1580908583.647325,12337.300557,0,4.272644,97.15349
1580908624.719879,42,0,1580907286.99823,41.20781296037784,29.0754925099451,275.2123,0.1345286,-1,23.46983528137207,200,-9999,12340.51786941667,0.95654296875,0.0817718505859375,-0.17510986328125,12340.50782941667,1.058950043185425,1.403051558920899,-0.07698137331803538,0.01690982282161713,0.009282486513257027,0.04846958443522453,-0.02864181995391846,0.004188865423202515,-0.01107931137084961,2,0.3510985699969567,-0.5417540286680667,-0.3640895454740895,-0.6713204760892978,0.9830437898635864,0.07690536230802536,-0.1664647310972214,39.27059173583984,21.15281677246094,-6.5517578125,2,12338.21939875,4,2,1580908622.460565,1580903939.50652,2875,0.4941365,0,0,3428.459,14,15,1580908583.647325,12337.300557,0,4.272644,97.15349
1580908624.7505,43,0,1580907286.99823,41.20781296037784,29.0754925099451,275.2123,0.1345286,-1,23.46983528137207,200,-9999,12340.52791041667,0.9536285400390625,0.0770721435546875,-0.1748046875,12340.51786941667,1.058716969636966,1.403291935776791,-0.07645550285176839,0.01698492467403412,0.02443480677902699,0.05062887445092201,-0.03004932403564453,0.005569577217102051,-0.01204204559326172,2,0.3509092487892326,-0.5419825859950765,-0.364119389535162,-0.6712188078367149,0.9831235408782959,0.07638103514909744,-0.1662351489067078,39.40743255615234,21.05023574829102,-6.48919677734375,2,12338.21939875,4,2,1580908622.460565,1580903939.50652,2875,0.4941365,0,0,3428.459,14,15,1580908583.647325,12337.300557,0,4.272644,97.15349
1580908624.752239,44,0,1580907286.99823,41.20781296037784,29.0754925099451,275.2123,0.1345286,-1,23.46983528137207,200,-9999,12340.53795041667,0.9524993896484375,0.0789794921875,-0.1741943359375,12340.52791041667,1.058635360862456,1.403697388544465,-0.07591155595400004,0.01723712682723999,0.04225002229213715,0.05178681761026382,-0.03298068046569824,0.001170098781585693,-0.01191651821136475,2,0.350785204072029,-0.5422435265050383,-0.3641762978619241,-0.6710419139687687,0.9832316040992737,0.07583867013454437,-0.1658433973789215,39.40743255615234,21.05023574829102,-6.48919677734375,2,12338.21939875,4,2,1580908622.460565,1580903939.50652,2875,0.4941365,0,0,3428.459,14,15,1580908583.647325,12337.300557,0,4.272644,97.15349
1580908624.753442,45,0,1580907286.99823,41.20781296037784,29.0754925099451,275.2123,0.1345286,-1,23.46983528137207,200,-9999,12340.54799041667,0.9508209228515625,0.07855224609375,-0.1748046875,12340.53795041667,1.058400586903892,1.40426080842407,-0.0753164320070647,0.0168650820851326,0.05577009171247482,0.0579799972474575,-0.03409552574157715,0.003032118082046509,-0.01193094253540039,2,0.3506317623401781,-0.5425946272874723,-0.3641688299511604,-0.6708424586946085,0.9833693504333496,0.07524524629116058,-0.165296882390976,39.37641143798828,21.10970306396484,-6.4071044921875,2,12338.21939875,4,2,1580908622.460565,1580903939.50652,2875,0.4941365,0,0,3428.459,14,15,1580908583.647325,12337.300557,0,4.272644,97.15349
1580908624.760015,46,0,1580907286.99823,41.20781296037784,29.0754925099451,275.2123,0.1345286,-1,23.46983528137207,200,-9999,12340.55803141667,0.95611572265625,0.0760955810546875,-0.1692657470703125,12340.54799041667,1.058298736193276,1.404993818717809,-0.07472053512394275,0.01891012489795685,0.07476375997066498,0.056746955960989,-0.03658062219619751,0.004284650087356567,-0.01347136497497559,2,0.3505450754040987,-0.5429792513518731,-0.3641765050966664,-0.6705722463132402,0.9835342168807983,0.07465102523565292,-0.1645833700895309,39.37641143798828,21.10970306396484,-6.4071044921875,2,12340.54591541667,2,0,1580908624.787082,1580903939.50652,2875,0.4941365,0,0,3428.459,14,15,1580908583.647325,12337.300557,0,4.272644,97.15349
1580908624.770072,47,0,1580907286.99823,41.20781296037784,29.0754925099451,275.2123,0.1345286,-1,23.46983528137207,200,-9999,12340.56810141667,0.96405029296875,0.0740203857421875,-0.1652679443359375,12340.55803141667,1.058006807236053,1.405771529682302,-0.07416976071481986,0.02365541085600853,0.07908052206039429,0.0524909645318985,-0.03156149387359619,0.001616328954696655,-0.009090185165405273,2,0.3504294400301285,-0.5434028322667674,-0.364099835882427,-0.6703311517780232,0.9837023019790649,0.0741017758846283,-0.1638251394033432,39.33754730224609,21.09726524353027,-6.4481201171875,2,12340.54591541667,2,0,1580908624.787082,1580903939.50652,2875,0.4941365,0,0,3428.459,14,15,1580908583.647325,12337.300557,0,4.272644,97.15349
1580908624.780162,48,0,1580907286.99823,41.20781296037784,29.0754925099451,275.2123,0.1345286,-1,23.46983528137207,200,-9999,12340.57814241667,0.97845458984375,0.0692138671875,-0.16046142578125,12340.56810141667,1.057806749245895,1.406462949754212,-0.07376639708253172,0.02660512924194336,0.07226310670375824,0.03582783043384552,-0.02467012405395508,0.0005705058574676514,-0.00543445348739624,2,0.3503706150793219,-0.5437513385354007,-0.3640270302270594,-0.6701188187943321,0.9838447570800781,0.07369951903820038,-0.1631498336791992,39.33754730224609,21.09726524353027,-6.4481201171875,2,12340.54591541667,2,0,1580908624.787082,1580903939.50652,2875,0.4941365,0,0,3428.459,14,15,1580908583.647325,12337.300557,0,4.272644,97.15349
1580908624.802745,49,0,1580907286.99823,41.20781296037784,29.0754925099451,275.2123,0.1345286,-1,23.46983528137207,200,-9999,12340.58818241667,0.9756927490234375,0.075958251953125,-0.1596832275390625,12340.57814241667,1.057438171252083,1.406884871698057,-0.07346321454810471,0.02645717188715935,0.04351690411567688,0.02481811866164207,-0.01000601053237915,-0.00432935357093811,-0.001300454139709473,2,0.3502492343301491,-0.5440186593737352,-0.3639163814742148,-0.6700253877378451,0.9839354753494263,0.07339715212583542,-0.1627383381128311,39.43639373779297,20.84383010864258,-6.533233642578125,2,12340.54591541667,2,0,1580908624.787082,1580903939.50652,2875,0.4941365,0,0,3428.459,14,15,1580908583.647325,12337.300557,0,4.272644,97.15349
1580908624.803809,50,0,1580907286.99823,41.20781296037784,29.0754925099451,275.2123,0.1345286,-1,23.46983528137207,200,-9999,12340.59822241667,0.9716949462890625,0.0789642333984375,-0.160125732421875,12340.58818241667,1.057228797100412,1.407068591377352,-0.07312931588593791,0.02635703608393669,0.02115114219486713,0.03009437397122383,-0.01100635528564453,0.001681059598922729,4.804134368896484e-05,2,0.3501178163039381,-0.5441844626585627,-0.363909624262804,-0.6699631621109866,0.9839895963668823,0.07306414842605591,-0.1625615656375885,39.43639373779297,20.84383010864258,-6.533233642578125,2,12340.54591541667,2,0,1580908624.787082,1580903939.50652,2875,0.4941365,0,0,3428.459,14,15,1580908583.647325,12337.300557,0,4.272644,97.15349
1580908624.810362,51,0,1580907286.99823,41.20781296037784,29.0754925099451,275.2123,0.1345286,-1,23.46983528137207,200,-9999,12340.60826341667,0.9608001708984375,0.0839996337890625,-0.1554718017578125,12340.59822241667,1.056820405832666,1.406986836022317,-0.07272323964518844,0.03288811072707176,-0.004175538197159767,0.03439733386039734,-0.01575249433517456,0.006024420261383057,-0.0008581876754760742,2,0.3498606293152391,-0.5443106884424466,-0.3639033115958282,-0.6699983363414057,0.9840053915977478,0.07265915721654892,-0.1626468300819397,39.60296630859375,21.06903457641602,-6.4315185546875,2,12340.54591541667,2,0,1580908624.787082,1580903939.50652,2875,0.4941365,0,0,3428.459,14,15,1580908583.647325,12337.300557,0,4.272644,97.15349
1580908624.820439,52,0,1580907286.99823,41.20781296037784,29.0754925099451,275.2123,0.1345286,-1,23.46983528137207,200,-9999,12340.61830341667,0.94415283203125,0.0962371826171875,-0.15753173828125,12340.60826341667,1.056541069093776,1.406636577072958,-0.07202442537473938,0.0373462401330471,-0.03219279274344444,0.06462368369102478,-0.02500736713409424,0.01059970259666443,0.004455208778381348,2,0.3494949665040578,-0.5443835001755911,-0.364070896195243,-0.6700390458307204,0.9839982986450195,0.07196217030286789,-0.1629997491836548,39.60296630859375,21.06903457641602,-6.4315185546875,2,12340.54591541667,2,0,1580908624.787082,1580903939.50652,2875,0.4941365,0,0,3428.459,14,15,1580908583.647325,12337.300557,0,4.272644,97.15349
1580908624.830484,53,0,1580907286.99823,41.20781296037784,29.0754925099451,275.2123,0.1345286,-1,23.46983528137207,200,-9999,12340.62834341667,0.9577484130859375,0.08880615234375,-0.148956298828125,12340.61830341667,1.056044619896008,1.406040520580446,-0.07090558915854306,0.05107890442013741,-0.05346344038844109,0.1054581701755524,-0.04259741306304932,0.02424719929695129,0.002905488014221191,2,0.3488894550505044,-0.5444965380453984,-0.3643285676036462,-0.6701226859664882,0.9839797616004944,0.07084619253873825,-0.1635993421077728,39.58411407470703,20.91455459594727,-6.561492919921875,2,12340.54591541667,2,0,1580908624.787082,1580903939.50652,2875,0.4941365,0,0,3428.459,14,15,1580908583.647325,12337.300557,0,4.272644,97.15349
1580908624.840566,54,0,1580907286.99823,41.20781296037784,29.0754925099451,275.2123,0.1345286,-1,23.46983528137207,200,-9999,12340.63838341667,1.004867553710938,0.0560455322265625,-0.12701416015625,12340.62834341667,1.055610135583076,1.404858375539045,-0.06956972331948297,0.06584534049034119,-0.1087474673986435,0.1283166110515594,-0.03311121463775635,0.0210680365562439,0.01144295930862427,2,0.3481233215124493,-0.5444457735751406,-0.3647706542000558,-0.6703217956247014,0.9838780760765076,0.06951361894607544,-0.1647779047489166,39.58411407470703,20.91455459594727,-6.561492919921875,2,12340.54591541667,2,0,1580908624.787082,1580903939.50652,2875,0.4941365,0,0,3428.459,14,15,1580908583.647325,12337.300557,0,4.272644,97.15349
1580908624.866427,55,0,1580907286.99823,41.20781296037784,29.0754925099451,275.2123,0.1345286,-1,23.46983528137207,200,-9999,12340.64842441667,1.02508544921875,0.0579986572265625,-0.1158599853515625,12340.63838341667,1.055084470262682,1.402327337257781,-0.06831228037521854,0.05796457827091217,-0.2466962933540344,0.1144541949033737,0.01316910982131958,-0.009701162576675415,0.03443372249603271,2,0.3471107414037918,-0.5439421580651687,-0.365393115652481,-0.6709164343072819,0.9835432171821594,0.06825916469097137,-0.1672821193933487,39.7177734375,20.93960189819336,-6.8070068359375,2,12340.54591541667,2,0,1580908624.787082,1580903939.50652,2875,0.4941365,0,0,3428.459,14,15,1580908583.647325,12337.300557,0,4.272644,97.15349
1580908624.867581,56,0,1580907286.99823,41.20781296037784,29.0754925099451,275.2123,0.1345286,-1,23.46983528137207,200,-9999,12340.65849441667,0.9705810546875,0.0825347900390625,-0.15380859375,12340.64842441667,1.054867283459194,1.398205601205964,-0.06681856911331231,0.04298616200685501,-0.4160451292991638,0.1416557133197784,0.03970980644226074,-0.01133343577384949,0.05371624231338501,2,0.3458124997159756,-0.5428975469836399,-0.3664595098355573,-0.671850782524689,0.9829448461532593,0.06676886230707169,-0.1713519394397736,39.7177734375,20.93960189819336,-6.8070068359375,2,12340.54591541667,2,0,1580908624.787082,1580903939.50652,2875,0.4941365,0,0,3428.459,14,15,1580908583.647325,12338.244579,0,4.272644,97.15349
1580908624.87057,57,0,1580907286.99823,41.20781296037784,29.0754925099451,275.2123,0.1345286,-1,23.46983528137207,200,-9999,12340.66853541667,0.8636932373046875,0.0367889404296875,-0.2400665283203125,12340.65849441667,1.054174296779088,1.393808369558857,-0.06573007273606447,0.06567336618900299,-0.4627774655818939,0.1134419292211533,-0.006165623664855957,0.01739025115966797,0.02560973167419434,2,0.3444637004816326,-0.5417584085596329,-0.3672943948346011,-0.6730061911437301,0.9822527170181274,0.06568275392055511,-0.1756851673126221,39.73884582519531,20.83770561218262,-7.018096923828125,2,12340.54591541667,2,0,1580908624.787082,1580903939.50652,2875,0.4941365,0,0,3428.459,14,15,1580908583.647325,12338.244579,0,4.272644,97.15349
1580908624.880691,58,0,1580907286.99823,41.20781296037784,29.0754925099451,275.2123,0.1345286,-1,23.46983528137207,200,-9999,12340.67857541667,0.919158935546875,0.0271759033203125,-0.2376708984375,12340.66853541667,1.052881942031674,1.391573487620734,-0.06631602649703817,0.1215531378984451,-0.206958994269371,-0.0988604873418808,-0.1157923340797424,-0.02505138516426086,-0.05858933925628662,2,0.3438945719415543,-0.5411099567210707,-0.3670777351246789,-0.6739365813390277,0.9818196892738342,0.06626743078231812,-0.1778730750083923,39.73884582519531,20.83770561218262,-7.018096923828125,2,12340.54591541667,2,0,1580908624.787082,1580903939.50652,2875,0.4941365,0,0,3428.459,14,15,1580908583.647325,12338.244579,0,4.272644,97.15349
1580908624.890797,59,0,1580907286.99823,41.20781296037784,29.0754925099451,275.2123,0.1345286,-1,23.46983528137207,200,-9999,12340.68861541667,0.9739837646484375,0.0583953857421875,-0.1893310546875,12340.67857541667,1.051596356382024,1.3909113449995,-0.06715152891836447,0.09762631356716156,-0.04610513895750046,-0.1035740822553635,-0.07631206512451172,-0.0419403612613678,-0.06717836856842041,2,0.3436980553632183,-0.5409390555239609,-0.3665214203523196,-0.674476574608921,0.9816468358039856,0.06710106879472733,-0.1785131692886353,39.54112243652344,20.7003173828125,-7.2205810546875,2,12340.54591541667,2,0,1580908624.787082,1580903939.50652,2875,0.4941365,0,0,3428.459,14,15,1580908583.647325,12338.244579,0,4.272644,97.15349
1580908624.900878,60,0,1580907286.99823,41.20781296037784,29.0754925099451,275.2123,0.1345286,-1,23.46983528137207,200,-9999,12340.69865641667,0.95843505859375,0.07122802734375,-0.201202392578125,12340.68861541667,1.050975159733877,1.390358152851784,-0.06772367422486335,0.04781189188361168,-0.05410554260015488,-0.06197097897529602,-0.01228606700897217,-0.01223975419998169,-0.01550787687301636,2,0.3436154978339419,-0.5407437002677373,-0.3662447869553632,-0.6748255572903687,0.9815101027488708,0.06767191737890244,-0.1790492832660675,39.54112243652344,20.7003173828125,-7.2205810546875,2,12340.54591541667,2,0,1580908624.787082,1580903939.50652,2875,0.4941365,0,0,3428.459,14,15,1580908583.647325,12338.244579,0,4.272644,97.15349
1580908624.924171,61,0,1580907286.99823,41.20781296037784,29.0754925099451,275.2123,0.1345286,-1,23.46983528137207,200,-9999,12340.70869641667,0.9069671630859375,0.08447265625,-0.2235870361328125,12340.69865641667,1.050371056992548,1.390169649041429,-0.06820538872830682,0.03327985852956772,-0.02529413998126984,-0.05286912620067596,-0.02264153957366943,0.001651674509048462,-0.0225149393081665,2,0.3435749893442689,-0.5406866197268259,-0.3659367620251366,-0.6750589472053399,0.9814441204071045,0.06815251708030701,-0.1792284101247787,39.68227386474609,20.5207691192627,-7.415557861328125,2,12340.54591541667,2,0,1580908624.787082,1580903939.50652,2875,0.4941365,0,0,3428.459,14,15,1580908583.647325,12338.244579,0,4.272644,97.15349
1580908624.925347,62,0,1580907286.99823,41.20781296037784,29.0754925099451,275.2123,0.1345286,-1,23.46983528137207,200,-9999,12340.71873641667,0.9095611572265625,0.070068359375,-0.216888427734375,12340.70869641667,1.049716408028466,1.391194025502437,-0.06868345798394937,0.06023211404681206,0.1097547560930252,-0.05483720079064369,-0.07387936115264893,0.01515007019042969,-0.04683017730712891,2,0.3437413628914296,-0.541048358920779,-0.365404207515747,-0.6749728328176586,0.981594979763031,0.06862946599721909,-0.1782170981168747,39.68227386474609,20.5207691192627,-7.415557861328125,2,12340.54591541667,2,0,1580908624.787082,1580903939.50652,2875,0.4941365,0,0,3428.459,14,15,1580908583.647325,12338.244579,0,4.272644,97.15349
1580908624.930843,63,0,1580907286.99823,41.20781296037784,29.0754925099451,275.2123,0.1345286,-1,23.46983528137207,200,-9999,12340.72877641667,0.97100830078125,0.0694427490234375,-0.188690185546875,12340.71873641667,1.048839131958429,1.393152637097633,-0.06925691281744967,0.0615902915596962,0.2016521990299225,-0.07381083071231842,-0.07977348566055298,0.00246042013168335,-0.04556268453598022,2,0.3440484710184131,-0.54174444336079,-0.3646085928034857,-0.6746882462006026,0.9819032549858093,0.06920155882835388,-0.1762872189283371,39.54778289794922,20.66123962402344,-7.44403076171875,2,12340.54591541667,2,0,1580908624.787082,1580903939.50652,2875,0.4941365,0,0,3428.459,14,15,1580908583.647325,12338.244579,0,4.272644,97.15349
1580908624.941137,64,0,1580907286.99823,41.20781296037784,29.0754925099451,275.2123,0.1345286,-1,23.46983528137207,200,-9999,12340.73881741667,1.017745971679688,0.07098388671875,-0.158233642578125,12340.72877641667,1.048310777942782,1.395158042599747,-0.06959063188423432,0.04777088016271591,0.2067819833755493,-0.04445107653737068,-0.02218103408813477,-0.00159686803817749,-0.02090167999267578,2,0.3443794154305216,-0.5424444481627672,-0.3639903512545445,-0.6742905434404198,0.9822319149971008,0.06953447312116623,-0.1743136793375015,39.54778289794922,20.66123962402344,-7.44403076171875,2,12340.54591541667,2,0,1580908624.787082,1580903939.50652,2875,0.4941365,0,0,3428.459,14,15,1580908583.647325,12338.244579,0,4.272644,97.15349
1580908624.951121,65,0,1580907286.99823,41.20781296037784,29.0754925099451,275.2123,0.1345286,-1,23.46983528137207,200,-9999,12340.74888841667,0.9999542236328125,0.0645751953125,-0.1709747314453125,12340.73881741667,1.047970730213758,1.396461236666862,-0.06962935169528139,0.01486193016171455,0.124594159424305,-0.003685035277158022,0.03049707412719727,0.00222480297088623,0.0104978084564209,2,0.3445367576660572,-0.5429345195043144,-0.3636402790041011,-0.6740047497510779,0.9824557900428772,0.06957310438156128,-0.1730330586433411,39.67543029785156,20.51114082336426,-7.4669189453125,2,12340.54591541667,2,0,1580908624.787082,1580903939.50652,2875,0.4941365,0,0,3428.459,14,15,1580908583.647325,12338.244579,0,4.272644,97.15349
1580908624.960885,66,0,1580907286.99823,41.20781296037784,29.0754925099451,275.2123,0.1345286,-1,23.46983528137207,200,-9999,12340.75892841667,0.9841766357421875,0.063018798828125,-0.1804351806640625,12340.74888841667,1.047769447342425,1.39744571274661,-0.06964530293665068,0.001916037872433662,0.1016643494367599,-0.003370249643921852,0.01642715930938721,-0.005039006471633911,0.0003259181976318359,2,0.344666268996757,-0.5432976923969252,-0.3633982761887786,-0.6737762671635326,0.9826244115829468,0.06958901137113571,-0.1720655560493469,39.57049560546875,20.90318298339844,-7.4755859375,2,12340.54591541667,2,0,1580908624.787082,1580903939.50652,2875,0.4941365,0,0,3428.459,14,15,1580908583.647325,12338.244579,0,4.272644,97.15349
1580908624.989129,67,0,1580907286.99823,41.20781296037784,29.0754925099451,275.2123,0.1345286,-1,23.46983528137207,200,-9999,12340.76896841667,0.9784698486328125,0.0644683837890625,-0.1772003173828125,12340.75892841667,1.047739076884088,1.398499134732138,-0.06978801874451394,-0.0002568131312727928,0.1094463914632797,-0.01758066564798355,-0.001337647438049316,-0.00693666934967041,-0.01223516464233398,2,0.3448958361235914,-0.5436290484825557,-0.3631657598813816,-0.6735168244525158,0.9827953577041626,0.06973138451576233,-0.1710286438465118,39.57049560546875,20.90318298339844,-7.4755859375,2,12340.54591541667,2,0,1580908624.787082,1580903939.50652,2875,0.4941365,0,0,3428.459,14,15,1580908583.647325,12338.244579,0,4.272644,97.15349
1580908624.990457,68,0,1580907286.99823,41.20781296037784,29.0754925099451,275.2123,0.1345286,-1,23.46983528137207,200,-9999,12340.77900841667,0.981781005859375,0.0672454833984375,-0.170867919921875,12340.76896841667,1.047569921132442,1.399721249522499,-0.07001153715080995,-0.002253384795039892,0.1249963343143463,-0.02350060641765594,-0.007924437522888184,-0.006107628345489502,-0.01078832149505615,2,0.345144424467576,-0.5440247705966762,-0.3628342040009583,-0.6732485192808972,0.9829881191253662,0.06995435804128647,-0.1698247492313385,39.64738464355469,20.64694213867188,-7.43121337890625,2,12340.54591541667,2,0,1580908624.787082,1580903939.50652,2875,0.4941365,0,0,3428.459,14,15,1580908583.647325,12338.244579,0,4.272644,97.15349
1580908624.991535,69,0,1580907286.99823,41.20781296037784,29.0754925099451,275.2123,0.1345286,-1,23.46983528137207,200,-9999,12340.78904941667,0.9838104248046875,0.072296142578125,-0.1635589599609375,12340.77900841667,1.047602843782609,1.40086441245939,-0.07019069620123891,-0.006307151168584824,0.1178576946258545,-0.01702277734875679,-0.005252480506896973,-0.003479301929473877,-0.00575333833694458,2,0.3454188998275285,-0.5443678555965683,-0.3625968004223661,-0.6729584873139047,0.9831694960594177,0.07013307511806488,-0.1686988472938538,39.64738464355469,20.64694213867188,-7.43121337890625,2,12340.54591541667,2,0,1580908624.787082,1580903939.50652,2875,0.4941365,0,0,3428.459,14,15,1580908583.647325,12338.244579,0,4.272644,97.15349
1580908625.001607,70,0,1580907286.99823,41.20781296037784,29.0754925099451,275.2123,0.1345286,-1,23.46983528137207,200,-9999,12340.79908941667,0.9746551513671875,0.070465087890625,-0.164794921875,12340.78904941667,1.047485603119639,1.40171051853484,-0.07028278148143627,-0.005876517854630947,0.08879062533378601,-0.006076653487980366,-0.003130793571472168,0.001402795314788818,0.0005362033843994141,2,0.3455703268583552,-0.544654247445582,-0.3623848708703828,-0.6727629886125359,0.9833053350448608,0.07022493332624435,-0.1678657978773117,39.77256774902344,20.69180107116699,-7.366485595703125,2,12340.54591541667,2,0,1580908624.787082,1580903939.50652,2875,0.4941365,0,0,3428.459,14,15,1580908583.647325,12338.244579,0,4.272644,97.15349
1580908625.011317,71,0,1580907286.99823,41.20781296037784,29.0754925099451,275.2123,0.1345286,-1,23.46983528137207,200,-9999,12340.80912941667,0.973297119140625,0.06951904296875,-0.162384033203125,12340.79908941667,1.04760920341675,1.402289989174658,-0.07031622865452307,-0.0118713341653347,0.06468954682350159,-0.001288790721446276,-0.01074862480163574,0.0003469586372375488,5.543231964111328e-05,2,0.3457198362367921,-0.5448210726428399,-0.3623167410137783,-0.6725878012368138,0.9834001660346985,0.07025829702615738,-0.1672955900430679,39.77256774902344,20.69180107116699,-7.366485595703125,2,12340.54591541667,2,0,1580908624.787082,1580903939.50652,2875,0.4941365,0,0,3428.459,14,15,1580908583.647325,12338.244579,0,4.272644,97.15349
1580908625.021385,72,0,1580907286.99823,41.20781296037784,29.0754925099451,275.2123,0.1345286,-1,23.46983528137207,200,-9999,12340.81917041667,0.9714202880859375,0.072357177734375,-0.1663055419921875,12340.80912941667,1.047674736443539,1.402525148172299,-0.07023965939428152,-0.02170079573988914,0.02029891684651375,0.01314101461321115,-0.01479125022888184,-0.001254796981811523,0.0008617639541625977,2,0.3457554224231654,-0.5449041907542893,-0.3623200106634959,-0.6725003746077001,0.9834447503089905,0.07018192112445831,-0.167065218091011,39.63935089111328,20.87410926818848,-7.361236572265625,2,12340.54591541667,2,0,1580908624.787082,1580903939.50652,2875,0.4941365,0,0,3428.459,14,15,1580908583.647325,12338.244579,0,4.272644,97.15349
1580908625.047998,73,0,1580907286.99823,41.20781296037784,29.0754925099451,275.2123,0.1345286,-1,23.46983528137207,200,-9999,12340.82921041667,0.95660400390625,0.0699005126953125,-0.17803955078125,12340.81917041667,1.047934942059904,1.40267263619747,-0.07017455682063076,-0.0248277373611927,0.01099200733006001,0.01131746172904968,-0.014057457447052,0.001984208822250366,-0.001159787178039551,2,0.3458318796432279,-0.5449218661446109,-0.362400611561852,-0.6724033237918123,0.9834738969802856,0.07011697441339493,-0.1669209450483322,39.63935089111328,20.87410926818848,-7.361236572265625,2,12340.54591541667,2,0,1580908624.787082,1580903939.50652,2875,0.4941365,0,0,3428.459,14,15,1580908583.647325,12338.244579,0,4.272644,97.15349
1580908625.049493,74,0,1580907286.99823,41.20781296037784,29.0754925099451,275.2123,0.1345286,-1,23.46983528137207,200,-9999,12340.83925041667,0.955322265625,0.0682830810546875,-0.177520751953125,12340.82921041667,1.047990821293736,1.402959858876268,-0.07021744177857664,-0.02311958558857441,0.02680213190615177,-0.00117036746814847,-0.0298038125038147,-0.0001796185970306396,-0.01404756307601929,2,0.3459130992880911,-0.5450001422256319,-0.3623574591529375,-0.6723212989809582,0.9835187792778015,0.07015975564718246,-0.1666379421949387,39.55881500244141,20.76711845397949,-7.314910888671875,2,12340.54591541667,2,0,1580908624.787082,1580903939.50652,2875,0.4941365,0,0,3428.459,14,15,1580908583.647325,12338.244579,0,4.272644,97.15349
1580908625.051608,75,0,1580907286.99823,41.20781296037784,29.0754925099451,275.2123,0.1345286,-1,23.46983528137207,200,-9999,12340.84932141667,0.9605865478515625,0.0728302001953125,-0.170623779296875,12340.83925041667,1.048193327804851,1.403376995659705,-0.07031916475269821,-0.02058074623346329,0.04367827996611595,-0.008734888397157192,-0.03229272365570068,-0.002341508865356445,-0.01470458507537842,2,0.3460768404293724,-0.5450849164540705,-0.362324293237883,-0.672186327938746,0.9835813641548157,0.07026122510433197,-0.1662265062332153,39.55881500244141,20.76711845397949,-7.314910888671875,2,12340.54591541667,2,0,1580908624.787082,1580903939.50652,2875,0.4941365,0,0,3428.459,14,15,1580908583.647325,12338.244579,0,4.272644,97.15349
1580908625.061498,76,0,1580907286.99823,41.20781296037784,29.0754925099451,275.2123,0.1345286,-1,23.46983528137207,200,-9999,12340.85936141667,0.9591827392578125,0.0712127685546875,-0.169952392578125,12340.84932141667,1.048288274864312,1.403767441409698,-0.07035331630058025,-0.02671986445784569,0.03629599884152412,0.00144797470420599,-0.02680134773254395,0.001789987087249756,-0.008636236190795898,2,0.3461845629822481,-0.5451928316953132,-0.3622788539212549,-0.6720677526034962,0.9836437106132507,0.0702952966094017,-0.1658420562744141,39.72850036621094,20.85349273681641,-7.197906494140625,2,12340.54591541667,2,0,1580908624.787082,1580903939.50652,2875,0.4941365,0,0,3428.459,14,15,1580908583.647325,12338.244579,0,4.272644,97.15349
1580908625.07147,77,0,1580907286.99823,41.20781296037784,29.0754925099451,275.2123,0.1345286,-1,23.46983528137207,200,-9999,12340.86940141667,0.967193603515625,0.0647735595703125,-0.1709442138671875,12340.85936141667,1.048534763373913,1.4041632604369,-0.07045307453325074,-0.02649102360010147,0.03949231654405594,-0.005959176458418369,-0.02824890613555908,0.001323878765106201,-0.007441282272338867,2,0.3463558242336947,-0.5452631246916217,-0.3622646112989628,-0.6719301948668464,0.9837024211883545,0.07039480656385422,-0.1654515415430069,39.72850036621094,20.85349273681641,-7.197906494140625,2,12340.54591541667,2,0,1580908624.787082,1580903939.50652,2875,0.4941365,0,0,3428.459,14,15,1580908583.647325,12338.244579,0,4.272644,97.15349
1580908625.081591,78,0,1580907286.99823,41.20781296037784,29.0754925099451,275.2123,0.1345286,-1,23.46983528137207,200,-9999,12340.87944241667,0.96343994140625,0.06781005859375,-0.177886962890625,12340.86940141667,1.048610304100571,1.404621124191751,-0.07067812238109966,-0.02780822291970253,0.0399107001721859,-0.01788774132728577,-0.02090859413146973,-0.005752682685852051,-0.008384227752685547,2,0.3465323574508735,-0.5453586656413804,-0.3621462877005253,-0.6718254663770108,0.9837625026702881,0.07061929255723953,-0.1649985015392303,39.75278472900391,20.84870529174805,-7.073944091796875,2,12340.54591541667,2,0,1580908624.787082,1580903939.50652,2875,0.4941365,0,0,3428.459,14,15,1580908583.647325,12338.244579,0,4.272644,97.15349
1580908625.111301,79,0,1580907286.99823,41.20781296037784,29.0754925099451,275.2123,0.1345286,-1,23.46983528137207,200,-9999,12340.88948241667,0.9716644287109375,0.070465087890625,-0.1662750244140625,12340.87944241667,1.048836910834512,1.405285286478683,-0.07098330857510508,-0.02865023724734783,0.06805790960788727,-0.02705147862434387,-0.02337741851806641,-0.00378456711769104,-0.01652061939239502,2,0.3468134597053011,-0.5454811400673164,-0.362019900480662,-0.6716489179756185,0.983850359916687,0.07092371582984924,-0.1643414944410324,39.75278472900391,20.84870529174805,-7.073944091796875,2,12340.54591541667,2,0,1580908624.787082,1580903939.50652,2875,0.4941365,0,0,3428.459,14,15,1580908583.647325,12338.244579,0,4.272644,97.15349
1580908625.112665,80,0,1580907286.99823,41.20781296037784,29.0754925099451,275.2123,0.1345286,-1,23.46983528137207,200,-9999,12340.89952241667,0.98992919921875,0.072845458984375,-0.1544189453125,12340.88948241667,1.048843715133687,1.405771551615582,-0.07130246625054244,-0.02148100733757019,0.04786156490445137,-0.02878492884337902,-0.01785039901733398,-0.001342266798019409,-0.007101595401763916,2,0.3470067893378231,-0.5455791518455986,-0.3618464560499574,-0.6715629832842445,0.9839078783988953,0.0712420642375946,-0.1638593524694443,39.76677703857422,20.75926971435547,-6.992034912109375,2,12340.54591541667,2,0,1580908624.787082,1580903939.50652,2875,0.4941365,0,0,3428.459,14,15,1580908583.647325,12338.244579,0,4.272644,97.15349
1580908625.113713,81,0,1580907286.99823,41.20781296037784,29.0754925099451,275.2123,0.1345286,-1,23.46983528137207,200,-9999,12340.90956341667,0.9815673828125,0.081756591796875,-0.1537017822265625,12340.89952241667,1.049009265610205,1.405900985773594,-0.07154499131288254,-0.0222756639122963,0.01219252310693264,-0.02216224372386932,0.001524150371551514,0.0005664229393005371,0.005569815635681152,2,0.3471540129551197,-0.5455451543288034,-0.3618101117724542,-0.6715340454191414,0.98391193151474,0.07148396968841553,-0.1637291461229324,39.76677703857422,20.75926971435547,-6.992034912109375,2,12340.54591541667,2,0,1580908624.787082,1580903939.50652,2875,0.4941365,0,0,3428.459,14,15,1580908583.647325,12338.244579,0,4.272644,97.15349
1580908625.121637,82,0,1580907286.99823,41.20781296037784,29.0754925099451,275.2123,0.1345286,-1,23.46983528137207,200,-9999,12340.91960341667,0.96697998046875,0.084625244140625,-0.16162109375,12340.90956341667,1.049014051824449,1.405621590769236,-0.07153235912771005,-0.01537088491022587,-0.02906303852796555,0.004778827540576458,-0.004076480865478516,0.00898665189743042,0.007676959037780762,2,0.3471006800330678,-0.5454530430913404,-0.3618638282930816,-0.67160747655771,0.9838670492172241,0.07147137075662613,-0.1640041917562485,39.795654296875,20.77814483642578,-6.80999755859375,2,12340.54591541667,2,0,1580908624.787082,1580903939.50652,2875,0.4941365,0,0,3428.459,14,15,1580908583.647325,12338.244579,0,4.272644,97.15349
1580908625.131758,83,0,1580907286.99823,41.20781296037784,29.0754925099451,275.2123,0.1345286,-1,23.46983528137207,200,-9999,12340.92964341667,0.9690093994140625,0.07635498046875,-0.1648712158203125,12340.91960341667,1.049153764415617,1.405119284534883,-0.07131198140591577,-0.008716793730854988,-0.04951263964176178,0.02411611005663872,-0.01971042156219482,0.01387643814086914,0.0008973479270935059,2,0.3469763725954703,-0.5453044140721612,-0.3620610196685203,-0.6716862246562494,0.9838001728057861,0.07125155627727509,-0.1645009815692902,39.795654296875,20.77814483642578,-6.80999755859375,2,12340.54591541667,2,0,1580908624.787082,1580903939.50652,2875,0.4941365,0,0,3428.459,14,15,1580908583.647325,12338.244579,0,4.272644,97.15349
1580908625.142326,84,0,1580907286.99823,41.20781296037784,29.0754925099451,275.2123,0.1345286,-1,23.46983528137207,200,-9999,12340.93971441667,0.9604949951171875,0.072662353515625,-0.1713104248046875,12340.92964341667,1.049151956800836,1.404497041987397,-0.07099935431389096,-0.008864332921802998,-0.06583994626998901,0.03409897163510323,-0.01859200000762939,0.005659818649291992,-0.002955436706542969,2,0.3467617794189201,-0.5451585691144446,-0.3622578151765562,-0.671809367609449,0.9837195873260498,0.07093971967697144,-0.1651168018579483,39.78945922851562,20.95281410217285,-6.9769287109375,2,12340.54591541667,2,0,1580908624.787082,1580903939.50652,2875,0.4941365,0,0,3428.459,14,15,1580908583.647325,12338.244579,0,4.272644,97.15349
1580908625.164791,85,0,1580907286.99823,41.20781296037784,29.0754925099451,275.2123,0.1345286,-1,23.46983528137207,200,-9999,12340.94975441667,0.9600830078125,0.0743560791015625,-0.17205810546875,12340.93971441667,1.049297444753241,1.404009296990645,-0.07069396547932599,-0.01001117005944252,-0.04599802196025848,0.03255797177553177,-0.02533793449401855,0.001906633377075195,-0.007521212100982666,2,0.3466140199434926,-0.5450308651091074,-0.3624785895974767,-0.6718700169973011,0.983660101890564,0.07063509523868561,-0.1656001508235931,39.78945922851562,20.95281410217285,-6.9769287109375,2,12340.54591541667,2,0,1580908624.787082,1580903939.50652,2875,0.4941365,0,0,3428.459,14,15,1580908583.647325,12338.244579,0,4.272644,97.15349
1580908625.16651,86,0,1580907286.99823,41.20781296037784,29.0754925099451,275.2123,0.1345286,-1,23.46983528137207,200,-9999,12340.95979541667,0.96697998046875,0.0774383544921875,-0.1640167236328125,12340.94975441667,1.049236151868201,1.403494006394771,-0.07037113449323933,-0.002796933054924011,-0.05053231865167618,0.03284532949328423,-0.02843332290649414,0.003328502178192139,-0.01035028696060181,2,0.3463990887461631,-0.5449332663421146,-0.362639608084979,-0.6719732463206445,0.9835972189903259,0.07031306624412537,-0.1661108136177063,39.59375,20.89974594116211,-6.929718017578125,2,12340.54591541667,2,0,1580908624.787082,1580903939.50652,2875,0.4941365,0,0,3428.459,14,15,1580908583.647325,12338.244579,0,4.272644,97.15349
1580908625.171949,87,0,1580907286.99823,41.20781296037784,29.0754925099451,275.2123,0.1345286,-1,23.46983528137207,200,-9999,12340.96983541667,0.96405029296875,0.0724029541015625,-0.1677093505859375,12340.95979541667,1.049295392597894,1.402812800721874,-0.07002028958977576,0.0006707841530442238,-0.06487137824296951,0.03595075756311417,-0.0199819803237915,0.007280826568603516,-0.000121772289276123,2,0.3461777770217161,-0.5447646193908097,-0.3628777449635204,-0.6720954251714065,0.9835080504417419,0.06996309012174606,-0.1667849123477936,39.59375,20.89974594116211,-6.929718017578125,2,12340.54591541667,2,0,1580908624.787082,1580903939.50652,2875,0.4941365,0,0,3428.459,14,15,1580908583.647325,12338.244579,0,4.272644,97.15349
1580908625.182004,88,0,1580907286.99823,41.20781296037784,29.0754925099451,275.2123,0.1345286,-1,23.46983528137207,200,-9999,12340.97987541667,0.9555816650390625,0.06976318359375,-0.1785430908203125,12340.96983541667,1.049181859384908,1.402072270113431,-0.06971995135357148,-2.536550164222717e-05,-0.07618767768144608,0.03005771338939667,-0.02250325679779053,0.003049701452255249,-0.002454280853271484,2,0.3459148737319466,-0.5445957558575532,-0.363053536744782,-0.6722727867898545,0.9834050536155701,0.06966347992420197,-0.1675167232751846,39.70038604736328,20.93636131286621,-6.9879150390625,2,12340.54591541667,2,0,1580908624.787082,1580903939.50652,2875,0.4941365,0,0,3428.459,14,15,1580908583.647325,12338.244579,0,4.272644,97.15349
1580908625.192121,89,0,1580907286.99823,41.20781296037784,29.0754925099451,275.2123,0.1345286,-1,23.46983528137207,200,-9999,12340.98991541667,0.95050048828125,0.0679168701171875,-0.185821533203125,12340.97987541667,1.049182683743714,1.401562229258042,-0.06953941032364423,0.002716239541769028,-0.05330578982830048,0.01903712563216686,-0.03034907579421997,-4.440546035766602e-06,-0.0124470591545105,2,0.3457639111027954,-0.54446041215873,-0.3631935466575433,-0.672384218718193,0.9833316206932068,0.06948337703943253,-0.1680203527212143,39.70038604736328,20.93636131286621,-6.9879150390625,2,12340.54591541667,2,0,1580908624.787082,1580903939.50652,2875,0.4941365,0,0,3428.459,14,15,1580908583.647325,12338.244579,0,4.272644,97.15349
1580908625.202147,90,0,1580907286.99823,41.20781296037784,29.0754925099451,275.2123,0.1345286,-1,23.46983528137207,200,-9999,12340.99995641667,0.9608917236328125,0.074188232421875,-0.1773529052734375,12340.98991541667,1.048989446831367,1.401432322746098,-0.06949676069911509,0.004595099948346615,-0.009787078015506268,0.002093561924993992,-0.03679978847503662,-0.001716524362564087,-0.0207563042640686,2,0.3456738018495228,-0.5444587325393934,-0.3631632286225545,-0.6724484347213094,0.9833128452301025,0.06944083422422409,-0.1681486219167709,39.82663726806641,21.00747680664062,-7.2147216796875,2,12340.54591541667,2,0,1580908624.787082,1580903939.50652,2875,0.4941365,0,0,3428.459,14,15,1580908583.647325,12338.244579,0,4.272644,97.15349
1580908625.228108,91,0,1580907286.99823,41.20781296037784,29.0754925099451,275.2123,0.1345286,-1,23.46983528137207,200,-9999,12341.00999641667,0.9636688232421875,0.0741119384765625,-0.1743621826171875,12340.99995641667,1.048953633205169,1.40144717102686,-0.06940386466667868,0.005147314630448818,0.0009630639106035233,0.01086052693426609,-0.02704310417175293,0.004052788019180298,-0.01329326629638672,2,0.3456366023769497,-0.5444885647082559,-0.3631751314016142,-0.6724368432324013,0.9833216071128845,0.06934815645217896,-0.1681350767612457,39.82663726806641,21.00747680664062,-7.2147216796875,2,12340.54591541667,2,0,1580908624.787082,1580903939.50652,2875,0.4941365,0,0,3428.459,14,15,1580908583.647325,12338.244579,0,4.272644,97.15349
1580908625.22936,92,0,1580907286.99823,41.20781296037784,29.0754925099451,275.2123,0.1345286,-1,23.46983528137207,200,-9999,12341.02003641667,0.975250244140625,0.0724029541015625,-0.1658935546875,12341.00999641667,1.048697143658983,1.401485506995425,-0.06931433283836536,0.01234876830130816,0.006832938641309738,0.006391475908458233,-0.02371394634246826,0.005073219537734985,-0.009545564651489258,2,0.3455445708444473,-0.5445637864749763,-0.3631078512174083,-0.6724597272162713,0.9833343029022217,0.06925884634256363,-0.1680984646081924,39.69645690917969,20.95280647277832,-6.99505615234375,2,12340.54591541667,2,0,1580908624.787082,1580903939.50652,2875,0.4941365,0,0,3428.459,14,15,1580908583.647325,12338.244579,0,4.272644,97.15349
1580908625.232315,93,0,1580907286.99823,41.20781296037784,29.0754925099451,275.2123,0.1345286,-1,23.46983528137207,200,-9999,12341.03010741667,0.970123291015625,0.071563720703125,-0.1667633056640625,12341.02003641667,1.048505677604162,1.40134857453961,-0.06921444422989374,0.02090447023510933,-0.01199103053659201,0.007237909361720085,-0.01307761669158936,0.002747058868408203,-0.001886904239654541,2,0.3454351550033592,-0.5445708650483295,-0.3630956333521583,-0.6725166698628409,0.9833179712295532,0.06915919482707977,-0.168234258890152,39.69645690917969,20.95280647277832,-6.99505615234375,2,12340.54591541667,2,0,1580908624.787082,1580903939.50652,2875,0.4941365,0,0,3428.459,14,15,1580908583.647325,12338.244579,0,4.272644,97.15349
1580908625.242806,94,0,1580907286.99823,41.20781296037784,29.0754925099451,275.2123,0.1345286,-1,23.46983528137207,200,-9999,12341.04014741667,0.9561309814453125,0.068572998046875,-0.17938232421875,12341.03010741667,1.048111015225835,1.401157098049462,-0.06916407370116784,0.02551040798425674,-0.020272396504879,0.0005579022690653801,-0.01483416557312012,0.002736419439315796,-0.0001868009567260742,2,0.3452765485679473,-0.5445847430434584,-0.3630103618190129,-0.6726329300891767,0.9832891821861267,0.06910894066095352,-0.168423131108284,39.90297698974609,20.74436569213867,-7.04388427734375,2,12340.54591541667,2,0,1580908624.787082,1580903939.50652,2875,0.4941365,0,0,3428.459,14,15,1580908583.647325,12338.244579,0,4.272644,97.15349
1580908625.252368,95,0,1580907286.99823,41.20781296037784,29.0754925099451,275.2123,0.1345286,-1,23.46983528137207,200,-9999,12341.05018841667,0.967620849609375,0.07659912109375,-0.17193603515625,12341.04014741667,1.047855203964817,1.401157853143672,-0.06912273741992749,0.02720476314425468,0.005269911140203476,-0.002247623167932034,-0.03099620342254639,-0.001067370176315308,-0.01366055011749268,2,0.3451935770219514,-0.5446374571620785,-0.3629360004149047,-0.6726729841492168,0.9832921624183655,0.06906770914793015,-0.1684228628873825,39.90297698974609,20.74436569213867,-7.04388427734375,2,12340.54591541667,2,0,1580908624.787082,1580903939.50652,2875,0.4941365,0,0,3428.459,14,15,1580908583.647325,12338.244579,0,4.272644,97.15349
1580908625.262387,96,0,1580907286.99823,41.20781296037784,29.0754925099451,275.2123,0.1345286,-1,23.46983528137207,200,-9999,12341.06022841667,0.968109130859375,0.07550048828125,-0.1723175048828125,12341.05018841667,1.0474705463556,1.401138518457626,-0.06892518590559406,0.02555786445736885,-0.001360028982162476,0.0156640000641346,-0.02009642124176025,0.006759792566299438,-0.006925463676452637,2,0.345021091491954,-0.5447369673642167,-0.3628663574759556,-0.6727183858843384,0.9833022356033325,0.06887062638998032,-0.1684441715478897,39.79570007324219,20.86026954650879,-7.085418701171875,2,12340.54591541667,2,0,1580908624.787082,1580903939.50652,2875,0.4941365,0,0,3428.459,14,15,1580908583.647325,12338.244579,0,4.272644,97.15349
1580908625.29267,97,0,1580907286.99823,41.20781296037784,29.0754925099451,275.2123,0.1345286,-1,23.46983528137207,200,-9999,12341.07026841667,0.96710205078125,0.0692291259765625,-0.171722412109375,12341.06022841667,1.047230348091431,1.401119716542728,-0.06861616711937442,0.02939322590827942,0.0005750451236963272,0.02790159732103348,-0.01872563362121582,0.007465988397598267,-0.006918370723724365,2,0.3448516916321692,-0.544834084474302,-0.3628770559440349,-0.6727209483036649,0.9833201169967651,0.0685623362660408,-0.168466255068779,39.79570007324219,20.86026954650879,-7.085418701171875,2,12340.54591541667,2,0,1580908624.787082,1580903939.50652,2875,0.4941365,0,0,3428.459,14,15,1580908583.647325,12338.244579,0,4.272644,97.15349
1580908625.294308,98,0,1580907286.99823,41.20781296037784,29.0754925099451,275.2123,0.1345286,-1,23.46983528137207,200,-9999,12341.08030841667,0.96112060546875,0.0722808837890625,-0.176788330078125,12341.07026841667,1.046791957613875,1.401230540690556,-0.06834982997742345,0.03150910511612892,0.01406821608543396,0.02202346920967102,-0.01923537254333496,0.000805199146270752,-0.006048202514648438,2,0.3446657294987465,-0.5450003306452287,-0.362786537431884,-0.672730344384909,0.9833567142486572,0.06829662621021271,-0.1683603525161743,39.62992095947266,20.91056442260742,-7.09844970703125,2,12340.54591541667,2,0,1580908624.787082,1580903939.50652,2875,0.4941365,0,0,3428.459,14,15,1580908583.647325,12338.244579,0,4.272644,97.15349
1580908625.295408,99,0,1580907286.99823,41.20781296037784,29.0754925099451,275.2123,0.1345286,-1,23.46983528137207,200,-9999,12341.09034941667,0.9644012451171875,0.076995849609375,-0.1699371337890625,12341.08030841667,1.046313617708568,1.401588506065143,-0.06818624397907044,0.05022021010518074,0.04080608859658241,0.007900458760559559,-0.02560865879058838,0.003456145524978638,-0.01166379451751709,2,0.3445470383523535,-0.5452359410936429,-0.3626106878134971,-0.6726950558169861,0.9834279417991638,0.06813342124223709,-0.1680102199316025,39.62992095947266,20.91056442260742,-7.09844970703125,2,12340.54591541667,2,0,1580908624.787082,1580903939.50652,2875,0.4941365,0,0,3428.459,14,15,1580908583.647325,12338.244579,0,4.272644,97.15349
1580908625.30259,100,0,1580907286.99823,41.20781296037784,29.0754925099451,275.2123,0.1345286,-1,23.46983528137207,200,-9999,12341.10038941667,0.960174560546875,0.0815277099609375,-0.171478271484375,12341.09034941667,1.045455496742051,1.402027228835667,-0.06805775964984068,0.0719476118683815,0.05028853937983513,-2.244487404823303e-05,-0.02314305305480957,0.008162409067153931,-0.006556391716003418,2,0.3443507052417032,-0.5455570345102388,-0.362283213650962,-0.6727117690791051,0.9835102558135986,0.06800523400306702,-0.1675802320241928,39.55510711669922,20.80759048461914,-7.1177978515625,2,12340.54591541667,2,0,1580908624.787082,1580903939.50652,2875,0.4941365,0,0,3428.459,14,15,1580908583.647325,12338.244579,0,4.272644,97.15349
1580908625.312394,101,0,1580907286.99823,41.20781296037784,29.0754925099451,275.2123,0.1345286,-1,23.46983528137207,200,-9999,12341.11042941667,0.9329681396484375,0.084991455078125,-0.1966400146484375,12341.10038941667,1.044508291687681,1.402716822209738,-0.06794604606271068,0.09263117611408234,0.06931784749031067,-0.004577860701829195,-0.0252801775932312,0.01271465420722961,-0.00618278980255127,2,0.3441807241689704,-0.545974369321096,-0.3618778538595322,-0.6726783503364668,0.9836330413818359,0.06789378076791763,-0.1669032275676727,39.55510711669922,20.80759048461914,-7.1177978515625,2,12340.54591541667,2,0,1580908624.787082,1580903939.50652,2875,0.4941365,0,0,3428.459,14,15,1580908583.647325,12338.244579,0,4.272644,97.15349
1580908625.322511,102,0,1580907286.99823,41.20781296037784,29.0754925099451,275.2123,0.1345286,-1,23.46983528137207,200,-9999,12341.12050041667,0.918853759765625,0.09234619140625,-0.20672607421875,12341.11042941667,1.042940007627657,1.404323113070034,-0.06792614409466476,0.1394514143466949,0.1695557832717896,-0.02232010662555695,-0.05208426713943481,0.01685446500778198,-0.03230470418930054,2,0.3440361830912118,-0.5467883481606377,-0.3610797493367494,-0.672519844584835,0.9839010238647461,0.06787392497062683,-0.1653232127428055,39.60749816894531,20.89265823364258,-7.205413818359375,2,12341.11424441667,4,2,1580908625.355411,1580903939.50652,2875,0.4941365,0,0,3428.459,14,15,1580908583.647325,12338.244579,0,4.272644,97.15349
1580908625.350127,103,0,1580907286.99823,41.20781296037784,29.0754925099451,275.2123,0.1345286,-1,23.46983528137207,200,-9999,12341.13054041667,0.9087982177734375,0.122406005859375,-0.2222747802734375,12341.12050041667,1.040959126286784,1.407206643943252,-0.06787535506638762,0.1926242560148239,0.2943558096885681,-0.02992365509271622,-0.06791222095489502,0.02238321304321289,-0.04624533653259277,2,0.3439971882399767,-0.548108507647677,-0.3599324489443202,-0.6720800926365535,0.9843771457672119,0.06782324612140656,-0.1624860018491745,39.60749816894531,20.89265823364258,-7.205413818359375,2,12341.11424441667,4,2,1580908625.355411,1580903939.50652,2875,0.4941365,0,0,3428.459,14,15,1580908583.647325,12338.244579,0,4.272644,97.15349
1580908625.351502,104,0,1580907286.99823,41.20781296037784,29.0754925099451,275.2123,0.1345286,-1,23.46983528137207,200,-9999,12341.14058141667,0.91729736328125,0.1630706787109375,-0.2156524658203125,12341.13054041667,1.038119751893558,1.411712617117907,-0.06747938935839944,0.2692210376262665,0.466966450214386,-0.005275832954794168,-0.07963442802429199,0.05100849270820618,-0.06628859043121338,2,0.3438979677353479,-0.5501887549021283,-0.3583177529612889,-0.6712935669640097,0.9851258397102356,0.06742818653583527,-0.1580530405044556,39.72327423095703,20.58482360839844,-7.323211669921875,2,12341.11424441667,4,2,1580908625.355411,1580903939.50652,2875,0.4941365,0,0,3428.459,14,15,1580908583.647325,12338.244579,0,4.272644,97.15349
1580908625.352776,105,0,1580907286.99823,41.20781296037784,29.0754925099451,275.2123,0.1345286,-1,23.46983528137207,200,-9999,12341.15062141667,0.95074462890625,0.2467041015625,-0.177398681640625,12341.14058141667,1.034306397634305,1.417835976558775,-0.06649375438897022,0.3761123418807983,0.6412191987037659,0.03823864459991455,-0.07427465915679932,0.09172940254211426,-0.06826198101043701,2,0.3436202203146964,-0.5530924079874193,-0.356270695577442,-0.6701380948430002,0.9861401915550232,0.0664447620511055,-0.1520278602838516,39.72327423095703,20.58482360839844,-7.323211669921875,2,12341.11424441667,4,2,1580908625.355411,1580903939.50652,2875,0.4941365,0,0,3428.459,14,15,1580908583.647325,12338.244579,0,4.272644,97.15349
1580908625.362858,106,0,1580907286.99823,41.20781296037784,29.0754925099451,275.2123,0.1345286,-1,23.46983528137207,200,-9999,12341.16066141667,0.9931488037109375,0.385589599609375,-0.0973663330078125,12341.15062141667,1.027184164623993,1.424923645645295,-0.06469231720690984,0.6915427446365356,0.7540871500968933,0.07529200613498688,-0.04464095830917358,0.1701326370239258,-0.04195350408554077,2,0.3423164739654427,-0.5570399548207992,-0.353192582175533,-0.669164351706756,0.9873098134994507,0.06464720517396927,-0.1450518369674683,39.69598388671875,20.66388702392578,-7.398956298828125,2,12341.11424441667,4,2,1580908625.355411,1580903939.50652,2875,0.4941365,0,0,3428.459,14,15,1580908583.647325,12338.244579,0,4.272644,97.15349
1580908625.373296,107,0,1580907286.99823,41.20781296037784,29.0754925099451,275.2123,0.1345286,-1,23.46983528137207,200,-9999,12341.17070241667,1.045379638671875,0.44793701171875,-0.053070068359375,12341.16066141667,1.014286219656211,1.432518038363997,-0.06142031177956472,1.307183146476746,0.8260005116462708,0.1209363639354706,-0.003213644027709961,0.310464471578598,0.0301353931427002,2,0.3389776263089471,-0.5624100817579807,-0.348538537256425,-0.6688123946577105,0.9885872006416321,0.06138170138001442,-0.1375781446695328,39.69598388671875,20.66388702392578,-7.398956298828125,2,12341.11424441667,4,2,1580908625.355411,1580903939.50652,2875,0.4941365,0,0,3428.459,14,15,1580908583.647325,12338.244579,0,4.272644,97.15349
1580908625.383175,108,0,1580907286.99823,41.20781296037784,29.0754925099451,275.2123,0.1345286,-1,23.46983528137207,200,-9999,12341.18074241667,1.05340576171875,0.332244873046875,0.0168914794921875,12341.17070241667,0.9933912379244421,1.440946637814995,-0.05533581709993013,2.113229036331177,0.966009259223938,0.3346526324748993,0.04721474647521973,0.393587201833725,0.06780385971069336,2,0.332538603275101,-0.5698900051537018,-0.3419210977084907,-0.66912895091462,0.9900637269020081,0.05530758202075958,-0.129286915063858,39.89861297607422,20.47794342041016,-7.4969482421875,2,12341.11424441667,4,2,1580908625.355411,1580903939.50652,2875,0.4941365,0,0,3428.459,14,15,1580908583.647325,12338.244579,0,4.272644,97.15349
1580908625.410007,109,0,1580907286.99823,41.20781296037784,29.0754925099451,275.2123,0.1345286,-1,23.46983528137207,200,-9999,12341.19078241667,0.9944000244140625,0.061431884765625,-0.016326904296875,12341.18074241667,0.9634459190428989,1.449221767110006,-0.04791314401114524,3.032449722290039,0.9792540073394775,0.3789860308170319,0.06114375591278076,0.3040116429328918,0.1300728321075439,2,0.3229068611439505,-0.5789327293384858,-0.3327337959054646,-0.6707131921435385,0.9914796948432922,0.04789481312036514,-0.1211361065506935,40.11779022216797,20.0360107421875,-7.825927734375,2,12341.11424441667,4,2,1580908625.355411,1580903939.50652,2875,0.4941365,0,0,3428.459,14,15,1580908583.647325,12338.244579,0,4.272644,97.15349
1580908625.411378,110,0,1580907286.99823,41.20781296037784,29.0754925099451,275.2123,0.1345286,-1,23.46983528137207,200,-9999,12341.20082241667,0.9576873779296875,-0.1988677978515625,-0.0137176513671875,12341.19078241667,0.9246014469454124,1.456370847052759,-0.04187283902044042,3.932566165924072,0.8818743824958801,0.1465261727571487,0.004396319389343262,0.04934084415435791,0.1007397174835205,2,0.3107461310511336,-0.5885566329048378,-0.3203503228357025,-0.6741020671907246,0.9925897121429443,0.04186060279607773,-0.1140758618712425,40.11779022216797,20.0360107421875,-7.825927734375,2,12341.11424441667,4,2,1580908625.355411,1580903939.50652,2875,0.4941365,0,0,3428.459,14,15,1580908583.647325,12338.244579,0,4.272644,97.15349
1580908625.413001,111,0,1580907286.99823,41.20781296037784,29.0754925099451,275.2123,0.1345286,-1,23.46983528137207,200,-9999,12341.21089341667,1.010711669921875,-0.4300079345703125,0.074951171875,12341.20082241667,0.87843789212667,1.462771392483747,-0.03818792065935809,4.600319862365723,0.819183349609375,-0.1573299914598465,-0.03822672367095947,-0.2152589857578278,0.08377194404602051,2,0.2968228781730423,-0.5983544116884968,-0.3048798297680989,-0.67890828443856,0.9934461712837219,0.03817864134907722,-0.1077363565564156,40.25101470947266,20.11137580871582,-8.988800048828125,2,12341.11424441667,4,2,1580908625.355411,1580903939.50652,2875,0.4941365,0,0,3428.459,14,15,1580908583.647325,12338.244579,0,4.272644,97.15349
1580908625.423006,112,0,1580907286.99823,41.20781296037784,29.0754925099451,275.2123,0.1345286,-1,23.46983528137207,200,-9999,12341.22093341667,1.071548461914062,-0.6132659912109375,0.05078125,12341.21089341667,0.8275361835219217,1.468683657333457,-0.03511805611136817,5.069315433502197,0.7700416445732117,-0.2350194603204727,0.002420902252197266,-0.4398564100265503,0.1682034730911255,2,0.2813130002528803,-0.6082160545771476,-0.2876207507720238,-0.6842590892025516,0.9941776394844055,0.03511083871126175,-0.1018724516034126,40.25101470947266,20.11137580871582,-8.988800048828125,2,12341.11424441667,4,2,1580908625.355411,1580903939.50652,2875,0.4941365,0,0,3428.459,14,15,1580908583.647325,12338.244579,0,4.272644,97.15349
1580908625.433156,113,0,1580907286.99823,41.20781296037784,29.0754925099451,275.2123,0.1345286,-1,23.46983528137207,200,-9999,12341.23097441667,0.986846923828125,-0.9525604248046875,0.0305023193359375,12341.22093341667,0.774090470098087,1.474486173010828,-0.0317103401356134,5.325644016265869,0.7400400638580322,-0.1873321831226349,0.07604098320007324,-0.6349701881408691,0.1478356122970581,2,0.2645804942406228,-0.6180134824389731,-0.2695335242820582,-0.6894985418999025,0.9948654174804688,0.03170502558350563,-0.09611299633979797,40.15823364257812,19.45188903808594,-10.5849609375,2,12341.11424441667,4,2,1580908625.355411,1580903939.50652,2875,0.4941365,0,0,3428.459,14,15,1580908583.647325,12338.244579,0,4.272644,97.15349
1580908625.443114,114,0,1580907286.99823,41.20781296037784,29.0754925099451,275.2123,0.1345286,-1,23.46983528137207,200,-9999,12341.24101441667,1.016311645507812,-1.732284545898438,-0.1829833984375,12341.23097441667,0.7212292131554566,1.481359611241658,-0.02851333552820017,5.296616077423096,0.8559905886650085,-0.1737969368696213,-0.00799250602722168,-0.9142184257507324,0.121371328830719,2,0.2479194201427557,-0.6276108234332689,-0.2513787317413314,-0.6938655663295716,0.9955984354019165,0.028509471565485,-0.08928123116493225,40.15823364257812,19.45188903808594,-10.5849609375,2,12341.11424441667,4,2,1580908625.355411,1580903939.50652,2875,0.4941365,0,0,3428.459,14,15,1580908583.647325,12338.244579,0,4.272644,97.15349
1580908625.470702,115,0,1580907286.99823,41.20781296037784,29.0754925099451,275.2123,0.1345286,-1,23.46983528137207,200,-9999,12341.25105441667,1.07904052734375,-2.176239013671875,-0.72857666015625,12341.24101441667,0.6721106679440251,1.488629634932016,-0.02452264235718717,4.914642333984375,0.8627321720123291,-0.034187912940979,0.009800910949707031,-1.68725323677063,-0.0680462121963501,2,0.2319030342000656,-0.6365502260463035,-0.2346998341961097,-0.6970944790455669,0.9963265061378479,0.02452018484473228,-0.08204958587884903,40.23980712890625,19.17251586914062,-12.11282348632812,2,12341.11424441667,4,2,1580908625.355411,1580903939.50652,2875,0.4941365,0,0,3428.459,14,15,1580908583.647325,12338.244579,0,4.272644,97.15349
1580908625.472352,116,0,1580907286.99823,41.20781296037784,29.0754925099451,275.2123,0.1345286,-1,23.46983528137207,200,-9999,12341.26109541667,0.9416961669921875,-2.05450439453125,-1.325851440429688,12341.25105441667,0.631365073313364,1.497690230490025,-0.01916833399924276,4.10821008682251,0.9552162885665894,0.2403421849012375,0.07727706432342529,-2.174571514129639,-0.5902845859527588,2,0.2180261724784897,-0.6449424765608303,-0.22119553559788,-0.6982738581426404,0.9971457719802856,0.01916716061532497,-0.07302758097648621,40.23980712890625,19.17251586914062,-12.11282348632812,2,12341.11424441667,4,2,1580908625.355411,1580903939.50652,2875,0.4941365,0,0,3428.459,14,15,1580908583.647325,12338.244579,0,4.272644,97.15349
1580908625.473677,117,0,1580907286.99823,41.20781296037784,29.0754925099451,275.2123,0.1345286,-1,23.46983528137207,200,-9999,12341.27113541667,0.969970703125,-1.570785522460938,-1.5286865234375,12341.26109541667,0.6021814313532975,1.512861317964216,-0.01545730381152101,2.907841444015503,1.570674180984497,0.1753522008657455,-0.04434394836425781,-2.107142210006714,-1.232821822166443,2,0.2089013446419357,-0.6537678354901206,-0.2106145447020642,-0.696124572131242,0.9982030391693115,0.01545668859034777,-0.05789569020271301,40.59627532958984,18.48089599609375,-12.66717529296875,2,12341.11424441667,4,2,1580908625.355411,1580903939.50652,2875,0.4941365,0,0,3428.459,14,15,1580908583.647325,12338.244579,0,4.272644,97.15349
1580908625.483463,118,0,1580907286.99823,41.20781296037784,29.0754925099451,275.2123,0.1345286,-1,23.46983528137207,200,-9999,12341.28117541667,1.287933349609375,-1.1810302734375,-1.7774658203125,12341.27113541667,0.5847923309125813,1.532786635125229,-0.01333240646195187,1.730419874191284,2.030995845794678,0.09924463927745819,-0.0518794059753418,-1.632979154586792,-1.475693464279175,2,0.2045057359076845,-0.6627056838098988,-0.2032266927545225,-0.6911566050018902,0.9991888403892517,0.01333201117813587,-0.03799716010689735,40.59627532958984,18.48089599609375,-12.66717529296875,2,12341.11424441667,4,2,1580908625.355411,1580903939.50652,2875,0.4941365,0,0,3428.459,14,15,1580908583.647325,12338.244579,0,4.272644,97.15349
1580908625.49331,119,0,1580907286.99823,41.20781296037784,29.0754925099451,275.2123,0.1345286,-1,23.46983528137207,200,-9999,12341.29121541667,2.42144775390625,-0.82666015625,-2.056808471679688,12341.28117541667,0.5761924942505917,1.549941188493348,-0.01058342936908016,0.7515892386436462,1.840993404388428,0.2996383309364319,0.2322794198989868,-1.226426839828491,-1.731136322021484,2,0.2024245841785008,-0.6697746326093413,-0.1994396556737574,-0.6860393887862334,0.9997265338897705,0.01058323215693235,-0.0208524577319622,41.08356475830078,18.13251495361328,-11.65524291992188,2,12341.11424441667,4,2,1580908625.355411,1580903939.50652,2875,0.4941365,0,0,3428.459,14,15,1580908583.647325,12338.244579,0,4.272644,97.15349
1580908625.503539,120,0,1580907286.99823,41.20781296037784,29.0754925099451,275.2123,0.1345286,-1,23.46983528137207,200,-9999,12341.30125641667,2.92572021484375,-0.6753997802734375,-2.004241943359375,12341.29121541667,0.5685249311473946,1.551359317582305,-0.007749796373627016,0.7630687952041626,0.1888439804315567,0.2706364989280701,1.281037449836731,-0.8673361539840698,-2.020141124725342,2,0.1990251709716568,-0.6713206238134715,-0.1976198471531882,-0.6860495976555091,0.9997811317443848,0.007749718613922596,-0.01943520270287991,41.08356475830078,18.13251495361328,-11.65524291992188,2,12341.11424441667,4,2,1580908625.355411,1580903939.50652,2875,0.4941365,0,0,3428.459,14,15,1580908583.647325,12338.244579,0,4.272644,97.15349
1580908625.526242,121,0,1580907286.99823,41.20781296037784,29.0754925099451,275.2123,0.1345286,-1,23.46983528137207,200,-9999,12341.31132741667,1.854263305664062,-0.897857666015625,-1.351181030273438,12341.30125641667,0.5586502902008043,1.531996337985322,-0.00337503927277867,0.964192807674408,-1.966395974159241,0.3714571297168732,1.962059855461121,-0.6729429960250854,-2.001478672027588,2,0.1923045054885943,-0.6660510192121163,-0.1975746642083621,-0.693079564415314,0.9992417097091675,0.003375032916665077,-0.0387900322675705,41.04346466064453,17.49728202819824,-12.36740112304688,2,12341.11424441667,4,2,1580908625.355411,1580903939.50652,2875,0.4941365,0,0,3428.459,14,15,1580908583.647325,12338.244579,0,4.272644,97.15349
1580908625.527709,122,0,1580907286.99823,41.20781296037784,29.0754925099451,275.2123,0.1345286,-1,23.46983528137207,200,-9999,12341.32136741667,0.5170135498046875,-0.988739013671875,-0.3884124755859375,12341.31132741667,0.5460790788712567,1.498632836435095,0.005909014733754106,1.292878866195679,-3.421685695648193,0.8420481085777283,0.9908143281936646,-0.8691610097885132,-1.368193864822388,2,0.1815916993843547,-0.6564865920024688,-0.1993695607322102,-0.7044867895086182,0.9973799586296082,-0.005908980499953032,-0.07209961861371994,41.04346466064453,17.49728202819824,-12.36740112304688,2,12341.11424441667,4,2,1580908625.355411,1580903939.50652,2875,0.4941365,0,0,3428.459,14,15,1580908583.647325,12338.244579,0,4.272644,97.15349
1580908625.533933,123,0,1580907286.99823,41.20781296037784,29.0754925099451,275.2123,0.1345286,-1,23.46983528137207,200,-9999,12341.33140741667,-0.2562408447265625,-0.93670654296875,0.3846435546875,12341.32136741667,0.5311385689603654,1.466611461081822,0.02108385166177508,1.62633216381073,-3.220909118652344,1.408561944961548,-0.3623373508453369,-0.9679001569747925,-0.3874887228012085,2,0.1681039259040065,-0.6478845437550032,-0.201795500945848,-0.7150281624839169,0.994356632232666,-0.02108228951692581,-0.1039733737707138,40.87255096435547,16.66679763793945,-15.32659912109375,2,12341.11424441667,4,2,1580908625.355411,1580903939.50652,2875,0.4941365,0,0,3428.459,14,15,1580908583.647325,12338.244579,0,4.272644,97.15349
1580908625.543548,124,0,1580907286.99823,41.20781296037784,29.0754925099451,275.2123,0.1345286,-1,23.46983528137207,200,-9999,12341.34144741667,-0.282379150390625,-0.8091583251953125,0.623992919921875,12341.33140741667,0.5162605849511654,1.444156024657213,0.03841201109050916,1.677417397499084,-2.306175947189331,1.550759077072144,-1.2116619348526,-0.9064339995384216,0.4575207233428955,2,0.1547561423971441,-0.6426088193843247,-0.203803160755656,-0.7221970250501847,0.9912599325180054,-0.03840256482362747,-0.1262088865041733,40.87255096435547,16.66679763793945,-15.32659912109375,2,12341.11424441667,4,2,1580908625.355411,1580903939.50652,2875,0.4941365,0,0,3428.459,14,15,1580908583.647325,12338.244579,0,4.272644,97.15349
1580908625.553755,125,0,1580907286.99823,41.20781296037784,29.0754925099451,275.2123,0.1345286,-1,23.46983528137207,200,-9999,12341.35148841667,-0.0027618408203125,-0.6998138427734375,0.6428070068359375,12341.34144741667,0.5019125527730258,1.432706695904924,0.05575499150942784,1.646183848381042,-1.162314772605896,1.513208985328674,-1.294799327850342,-0.7684264779090881,0.7474005222320557,2,0.1426358961435038,-0.6410431818996731,-0.2049490560930101,-0.7257509733786806,0.9889416098594666,-0.05572611093521118,-0.1374372839927673,41.23634338378906,15.20580673217773,-17.41973876953125,2,12341.11424441667,4,2,1580908625.355411,1580903939.50652,2875,0.4941365,0,0,3428.459,14,15,1580908583.647325,12338.244579,0,4.272644,97.15349
1580908625.588701,126,0,1580907286.99823,41.20781296037784,29.0754925099451,275.2123,0.1345286,-1,23.46983528137207,200,-9999,12341.36152841667,0.16619873046875,-0.6371002197265625,0.5536651611328125,12341.35148841667,0.4906047904752693,1.426537918454098,0.07384629400572595,1.367510199546814,-0.6678786277770996,1.611373543739319,-1.020610094070435,-0.6322959661483765,0.7891795635223389,2,0.1317102531455476,-0.6410686496489465,-0.2069549168667956,-0.7272228952151553,0.9869157671928406,-0.07377919554710388,-0.1433667838573456,41.23634338378906,15.20580673217773,-17.41973876953125,2,12341.11424441667,4,2,1580908625.355411,1580903939.50652,2875,0.4941365,0,0,3428.459,14,15,1580908583.647325,12338.244579,0,4.272644,97.15349
1580908625.58996,127,0,1580907286.99823,41.20781296037784,29.0754925099451,275.2123,0.1345286,-1,23.46983528137207,200,-9999,12341.37156841667,0.200653076171875,-0.4450531005859375,0.5757598876953125,12341.36152841667,0.482785198470609,1.422448358325056,0.09464565390183996,1.055383086204529,-0.4787696897983551,1.93077027797699,-0.8303638696670532,-0.5514975786209106,0.7027902603149414,2,0.1210736791635662,-0.6416928337863617,-0.2108803153839041,-0.7273932748248887,0.9845902323722839,-0.09450441598892212,-0.1471429467201233,41.53420257568359,13.25249671936035,-18.63967895507812,2,12341.11424441667,4,2,1580908625.355411,1580903939.50652,2875,0.4941365,0,0,3428.459,14,15,1580908583.647325,12338.244579,0,4.272644,97.15349
1580908625.590951,128,0,1580907286.99823,41.20781296037784,29.0754925099451,275.2123,0.1345286,-1,23.46983528137207,200,-9999,12341.38160841667,0.28424072265625,-0.0517425537109375,0.4986114501953125,12341.37156841667,0.4793224265902921,1.421474463137958,0.1189436057907473,0.6954150199890137,-0.1501531600952148,2.351599454879761,-0.7870150804519653,-0.3548565208911896,0.7176631093025208,2,0.1108284971583168,-0.6433186014170447,-0.2172506977263672,-0.7257135608993126,0.9818851947784424,-0.1186633408069611,-0.1477164477109909,41.53420257568359,13.25249671936035,-18.63967895507812,2,12341.11424441667,4,2,1580908625.355411,1580903939.50652,2875,0.4941365,0,0,3428.459,14,15,1580908583.647325,12338.244579,0,4.272644,97.15349
1580908625.593828,129,0,1580907286.99823,41.20781296037784,29.0754925099451,275.2123,0.1345286,-1,23.46983528137207,200,-9999,12341.39164941667,0.6355743408203125,0.5040130615234375,0.2652587890625,12341.38160841667,0.4794937747946857,1.425455135804284,0.145380623879545,0.3498607873916626,0.4168984889984131,2.631319999694824,-0.7155495882034302,0.04700940847396851,0.6553716063499451,2,0.1014867973799913,-0.6465673436803885,-0.2253128957949623,-0.7217237908402553,0.9790186285972595,-0.1448690444231033,-0.1433022022247314,42.04438018798828,11.42363739013672,-18.72811889648438,2,12341.11424441667,4,2,1580908625.355411,1580903939.50652,2875,0.4941365,0,0,3428.459,14,15,1580908583.647325,12338.244579,0,4.272644,97.15349
1580908625.604026,130,0,1580907286.99823,41.20781296037784,29.0754925099451,275.2123,0.1345286,-1,23.46983528137207,200,-9999,12341.40172041667,1.243209838867188,1.188140869140625,-0.0298004150390625,12341.39164941667,0.482415652048496,1.432349281327889,0.1710125919782001,0.06978227943181992,0.7659757733345032,2.589464902877808,-0.3940377235412598,0.6121315956115723,0.425546407699585,2,0.09369406382522699,-0.6505577377242664,-0.2339747112874197,-0.7164160398664521,0.9759840965270996,-0.1701802611351013,-0.1359921097755432,42.04438018798828,11.42363739013672,-18.72811889648438,2,12341.11424441667,4,2,1580908625.355411,1580903939.50652,2875,0.4941365,0,0,3428.459,14,15,1580908583.647325,12338.244579,0,4.272644,97.15349
1580908625.613913,131,0,1580907286.99823,41.20781296037784,29.0754925099451,275.2123,0.1345286,-1,23.46983528137207,200,-9999,12341.41176041667,1.939620971679688,2.204238891601562,-0.0258331298828125,12341.40172041667,0.4860532847819294,1.437974411427758,0.1927114256127873,-0.0845678374171257,0.5999612808227539,2.205680131912231,0.2024826407432556,1.309773921966553,0.1256588697433472,2,0.08749116033359036,-0.6537240899022777,-0.2417381889260589,-0.7117251943256793,0.9728437066078186,-0.1915208250284195,-0.1299802213907242,42.72519683837891,9.630403518676758,-18.19512939453125,2,12341.11424441667,4,2,1580908625.355411,1580903939.50652,2875,0.4941365,0,0,3428.459,14,15,1580908583.647325,12338.244579,0,4.272644,97.15349
1580908625.65468,132,0,1580907286.99823,41.20781296037784,29.0754925099451,275.2123,0.1345286,-1,23.46983528137207,200,-9999,12341.42180041667,1.844772338867188,3.199554443359375,0.37091064453125,12341.41176041667,0.4859580918753177,1.453582385467302,0.1973574465961632,0.007158082909882069,2.054583072662354,0.09469011425971985,0.8881238102912903,2.246507883071899,0.05844897031784058,2,0.0876304680659046,-0.6595324946311518,-0.2424648852914802,-0.7060796442668513,0.9738595485687256,-0.1960787624120712,-0.1146755814552307,42.72519683837891,9.630403518676758,-18.19512939453125,2,12341.11424441667,4,2,1580908625.355411,1580903939.50652,2875,0.4941365,0,0,3428.459,14,15,1580908583.647325,12338.244579,0,4.272644,97.15349
1580908625.656006,133,0,1580907286.99823,41.20781296037784,29.0754925099451,275.2123,0.1345286,-1,23.46983528137207,200,-9999,12341.43184041667,1.467697143554688,3.360183715820312,0.270538330078125,12341.42180041667,0.481075447204023,1.466665669271749,0.1946207988498487,0.316220611333847,1.170744061470032,-0.1686371862888336,0.9443819522857666,3.358544588088989,0.4347759485244751,2,0.08859697836335839,-0.6641991036229062,-0.2393109722185249,-0.7026524049342052,0.9758066534996033,-0.1933945119380951,-0.1019802540540695,43.54225921630859,9.333744049072266,-17.11822509765625,2,12341.11424441667,4,2,1580908625.355411,1580903939.50652,2875,0.4941365,0,0,3428.459,14,15,1580908583.647325,12338.244579,0,4.272644,97.15349
1580908625.657049,134,0,1580907286.99823,41.20781296037784,29.0754925099451,275.2123,0.1345286,-1,23.46983528137207,200,-9999,12341.44188141667,1.755569458007812,3.203704833984375,0.26080322265625,12341.43184041667,0.4685616646321787,1.478595120316491,0.1871232284190499,1.173793315887451,0.9887024164199829,-0.8687998056411743,0.4654601812362671,3.544439554214478,0.3892052173614502,2,0.08857716770219043,-0.6685225377762946,-0.2320177033810956,-0.700999001499145,0.978370189666748,-0.1860331147909164,-0.09046340733766556,43.54225921630859,9.333744049072266,-17.11822509765625,2,12341.11424441667,4,2,1580908625.355411,1580903939.50652,2875,0.4941365,0,0,3428.459,14,15,1580908583.647325,12338.244579,0,4.272644,97.15349
1580908625.65824,135,0,1580907286.99823,41.20781296037784,29.0754925099451,275.2123,0.1345286,-1,23.46983528137207,200,-9999,12341.45192141667,1.417495727539062,2.874435424804688,0.3896331787109375,12341.44188141667,0.4492649956216681,1.487640762822135,0.1754250555577046,1.74767792224884,0.5113064646720886,-1.375442504882812,0.7616114020347595,3.403420209884644,0.3186357021331787,2,0.08739967337515409,-0.671914278942095,-0.2211115091928415,-0.7014286807629397,0.9812500476837158,-0.1745266914367676,-0.08178500086069107,43.70877838134766,9.59906005859375,-16.57034301757812,2,12341.11424441667,4,2,1580908625.355411,1580903939.50652,2875,0.4941365,0,0,3428.459,14,15,1580908583.647325,12338.244579,0,4.272644,97.15349
1580908625.664262,136,0,1580907286.99823,41.20781296037784,29.0754925099451,275.2123,0.1345286,-1,23.46983528137207,200,-9999,12341.461968875,1.354095458984375,1.234603881835938,0.114227294921875,12341.45192141667,0.4244214118147431,1.494589884171817,0.1604921300412134,2.385295629501343,0.3917792737483978,-1.654734373092651,0.4882113933563232,3.092134952545166,0.4661860466003418,2,0.08520902233801839,-0.6746571530505694,-0.2072592005965994,-0.7032927361561052,0.9842836856842041,-0.159804031252861,-0.07515429705381393,43.70877838134766,9.59906005859375,-16.57034301757812,2,12341.11424441667,4,2,1580908625.355411,1580903939.50652,2875,0.4941365,0,0,3428.459,14,15,1580908583.647325,12338.244579,0,4.272644,97.15349
1580908625.674301,137,0,1580907286.99823,41.20781296037784,29.0754925099451,275.2123,0.1345286,-1,23.46983528137207,200,-9999,12341.472009875,1.295822143554688,-0.095550537109375,0.1420135498046875,12341.461968875,0.3968803734528801,1.493057346405508,0.1438702942253932,2.605708599090576,-0.6670535802841187,-1.921824336051941,0.3246737718582153,1.592170834541321,0.2115790843963623,2,0.08180760789115649,-0.674446690812804,-0.1921875630237513,-0.7081617930839028,0.9866795539855957,-0.1433744877576828,-0.07685835659503937,43.38352203369141,10.16562843322754,-16.99783325195312,2,12341.11424441667,4,2,1580908625.355411,1580903939.50652,2875,0.4941365,0,0,3428.459,14,15,1580908583.647325,12338.244579,0,4.272644,97.15349
1580908625.708634,138,0,1580907286.99823,41.20781296037784,29.0754925099451,275.2123,0.1345286,-1,23.46983528137207,200,-9999,12341.482049875,0.68707275390625,-0.662109375,0.2867584228515625,12341.472009875,0.3700582452358859,1.487058475836334,0.1283669281655173,2.526610851287842,-1.011923670768738,-1.706886768341064,0.3632419109344482,0.100909560918808,0.209317684173584,2,0.07786838226859066,-0.6726519069506105,-0.1778166349744602,-0.714042820012072,0.9882971048355103,-0.1280146837234497,-0.08295185118913651,43.38352203369141,10.16562843322754,-16.99783325195312,2,12341.11424441667,4,2,1580908625.355411,1580903939.50652,2875,0.4941365,0,0,3428.459,14,15,1580908583.647325,12338.244579,0,4.272644,97.15349
1580908625.709918,139,0,1580907286.99823,41.20781296037784,29.0754925099451,275.2123,0.1345286,-1,23.46983528137207,200,-9999,12341.492120875,0.7365570068359375,-1.370864868164062,0.5625,12341.482049875,0.3476315501183204,1.48201269085066,0.1088250987900152,2.091926574707031,-0.775648295879364,-2.132830858230591,-0.2753707766532898,-0.486009418964386,0.3491098880767822,2,0.07704770405605418,-0.6708147214883364,-0.1635647278427873,-0.7192481005703567,0.9901689887046814,-0.1086104214191437,-0.0881425216794014,42.89421081542969,10.91309356689453,-18.39437866210938,2,12341.11424441667,4,2,1580908625.355411,1580903939.50652,2875,0.4941365,0,0,3428.459,14,15,1580908583.647325,12338.244579,0,4.272644,97.15349
1580908625.711003,140,0,1580907286.99823,41.20781296037784,29.0754925099451,275.2123,0.1345286,-1,23.46983528137207,200,-9999,12341.502160875,1.395797729492188,-1.1285400390625,0.5366363525390625,12341.492120875,0.3372613345774706,1.479961250922131,0.08362046633812324,0.7855241298675537,-0.2557968497276306,-2.580556631088257,-0.2798964381217957,-1.232257723808289,0.6286210417747498,2,0.08263691959750832,-0.6693089760775806,-0.1516165280961673,-0.7226404225710057,0.992397665977478,-0.08352304995059967,-0.09039326757192612,42.89421081542969,10.91309356689453,-18.39437866210938,2,12341.11424441667,4,2,1580908625.355411,1580903939.50652,2875,0.4941365,0,0,3428.459,14,15,1580908583.647325,12338.244579,0,4.272644,97.15349
1580908625.714427,141,0,1580907286.99823,41.20781296037784,29.0754925099451,275.2123,0.1345286,-1,23.46983528137207,200,-9999,12341.512200875,1.769821166992188,0.05633544921875,0.228973388671875,12341.502160875,0.33861298594941,1.475065508172006,0.0583230768817686,-0.426344633102417,-0.443559318780899,-2.584797382354736,0.2959007024765015,-1.171721696853638,0.6463178396224976,2,0.09198946922726622,-0.6662033219407795,-0.1439849371899712,-0.7259334718543328,0.9937287569046021,-0.0582900159060955,-0.09542214125394821,42.18282318115234,12.15248489379883,-19.38284301757812,2,12341.11424441667,4,2,1580908625.355411,1580903939.50652,2875,0.4941365,0,0,3428.459,14,15,1580908583.647325,12338.244579,0,4.272644,97.15349
1580908625.724389,142,0,1580907286.99823,41.20781296037784,29.0754925099451,275.2123,0.1345286,-1,23.46983528137207,200,-9999,12341.522240875,1.14306640625,0.1578826904296875,-0.1513671875,12341.512200875,0.3450754398092408,1.464135400032748,0.04167720276666091,-0.8298662900924683,-1.102323770523071,-1.548548936843872,0.8091925382614136,0.01783052086830139,0.3740225434303284,2,0.09946112604692267,-0.6610025016730454,-0.1413899087848232,-0.7302000000912601,0.9934536814689636,-0.04166513681411743,-0.1063663512468338,42.18282318115234,12.15248489379883,-19.38284301757812,2,12341.11424441667,4,2,1580908625.355411,1580903939.50652,2875,0.4941365,0,0,3428.459,14,15,1580908583.647325,12338.244579,0,4.272644,97.15349
1580908625.734701,143,0,1580907286.99823,41.20781296037784,29.0754925099451,275.2123,0.1345286,-1,23.46983528137207,200,-9999,12341.532281875,0.8216094970703125,0.029876708984375,-0.3668670654296875,12341.522240875,0.3504749856667906,1.45428116684857,0.02923174207917635,-0.71559739112854,-0.9907946586608887,-1.130276203155518,0.2036064267158508,0.2093269824981689,-0.00950777530670166,2,0.1051274562169133,-0.6563895145148307,-0.1397997589583282,-0.733864483081147,0.992795467376709,-0.02922757901251316,-0.1162020489573479,41.4224853515625,13.89228248596191,-20.02203369140625,2,12341.11424441667,4,2,1580908625.355411,1580903939.50652,2875,0.4941365,0,0,3428.459,14,15,1580908583.647325,12338.244579,0,4.272644,97.15349
1580908625.768237,144,0,1580907286.99823,41.20781296037784,29.0754925099451,275.2123,0.1345286,-1,23.46983528137207,200,-9999,12341.542321875,0.8112945556640625,0.0225830078125,-0.327239990234375,12341.532281875,0.3520960075395301,1.448905196836594,0.015575280894817,-0.3091641068458557,-0.5192101001739502,-1.322746515274048,-0.1604978442192078,0.04759868979454041,-0.2339127659797668,2,0.1103245930677157,-0.6534838137519637,-0.136233042393816,-0.7363613158121907,0.9924601316452026,-0.01557465083897114,-0.1215747818350792,41.4224853515625,13.89228248596191,-20.02203369140625,2,12341.11424441667,4,2,1580908625.355411,1580903939.50652,2875,0.4941365,0,0,3428.459,14,15,1580908583.647325,12338.244579,0,4.272644,97.15349
1580908625.769533,145,0,1580907286.99823,41.20781296037784,29.0754925099451,275.2123,0.1345286,-1,23.46983528137207,200,-9999,12341.552361875,0.9397125244140625,0.0234222412109375,-0.15625,12341.542321875,0.3502880676017216,1.446642242284163,-0.0001179564452418501,-0.01516195200383663,-0.2125470787286758,-1.5974360704422,-0.1917271614074707,0.02395999431610107,-0.2242279052734375,2,0.1153757224042578,-0.6517443913251063,-0.130581374612871,-0.7381505828370232,0.9923028349876404,0.000117956442409195,-0.1238353848457336,40.82437133789062,14.85893058776855,-20.16937255859375,2,12341.11424441667,4,2,1580908625.355411,1580903939.50652,2875,0.4941365,0,0,3428.459,14,15,1580908583.647325,12338.244579,0,4.272644,97.15349
1580908625.770565,146,0,1580907286.99823,41.20781296037784,29.0754925099451,275.2123,0.1345286,-1,23.46983528137207,200,-9999,12341.562402875,1.08734130859375,0.039764404296875,-0.07080078125,12341.552361875,0.3485399387079716,1.445074809865594,-0.0152011193446456,-0.003844848833978176,-0.1412065923213959,-1.523861169815063,-0.07132935523986816,0.00674709677696228,-0.04665619134902954,2,0.1202722640258446,-0.6502665065327122,-0.1251107256426573,-0.7396184163847467,0.9919928908348083,0.01520053390413523,-0.1253761053085327,40.82437133789062,14.85893058776855,-20.16937255859375,2,12341.11424441667,4,2,1580908625.355411,1580903939.50652,2875,0.4941365,0,0,3428.459,14,15,1580908583.647325,12338.244579,0,4.272644,97.15349
1580908625.774628,147,0,1580907286.99823,41.20781296037784,29.0754925099451,275.2123,0.1345286,-1,23.46983528137207,200,-9999,12341.572442875,1.126327514648438,0.0657958984375,-0.0658721923828125,12341.562402875,0.3478836379443663,1.442386235102326,-0.02765507383872564,-0.1200671419501305,-0.2639266550540924,-1.229042172431946,0.07969921827316284,0.01005873084068298,0.0482708215713501,2,0.1244890227723265,-0.6484583436645061,-0.1209713476622845,-0.7411951038788083,0.9913874864578247,0.02765154838562012,-0.1280085146427155,40.05157470703125,15.97700595855713,-20.64300537109375,2,12341.11424441667,4,2,1580908625.355411,1580903939.50652,2875,0.4941365,0,0,3428.459,14,15,1580908583.647325,12338.244579,0,4.272644,97.15349
1580908625.78485,148,0,1580907286.99823,41.20781296037784,29.0754925099451,275.2123,0.1345286,-1,23.46983528137207,200,-9999,12341.582513875,1.026138305664062,0.0888214111328125,-0.1477203369140625,12341.572442875,0.3479962191170783,1.438324194605881,-0.03787143595925015,-0.1481240689754486,-0.4198241233825684,-0.9988388419151306,0.1369587182998657,0.0257505476474762,0.06711399555206299,2,0.1280545897164367,-0.6462250942715999,-0.1179410560964812,-0.7430242226963886,0.9905275702476501,0.0378623828291893,-0.1319902986288071,40.05157470703125,15.97700595855713,-20.64300537109375,2,12341.11424441667,4,2,1580908625.355411,1580903939.50652,2875,0.4941365,0,0,3428.459,14,15,1580908583.647325,12338.244579,0,4.272644,97.15349
1580908625.794895,149,0,1580907286.99823,41.20781296037784,29.0754925099451,275.2123,0.1345286,-1,23.46983528137207,200,-9999,12341.592553875,0.9984588623046875,0.172698974609375,-0.21185302734375,12341.582513875,0.3476238847531379,1.434828270317274,-0.0465043871338988,-0.09669229388237,-0.3580462336540222,-0.860444962978363,0.04210197925567627,0.03787630796432495,-0.005541324615478516,2,0.1309205925426313,-0.6443278082498773,-0.1152198732608007,-0.7445977740736068,0.9896994233131409,0.04648762568831444,-0.1354029476642609,39.61145782470703,16.62505722045898,-20.73175048828125,2,12341.11424441667,4,2,1580908625.355411,1580903939.50652,2875,0.4941365,0,0,3428.459,14,15,1580908583.647325,12338.244579,0,4.272644,97.15349
1580908625.833475,150,0,1580907286.99823,41.20781296037784,29.0754925099451,275.2123,0.1345286,-1,23.46983528137207,200,-9999,12341.602593875,1.061416625976562,0.2104644775390625,-0.1999359130859375,12341.592553875,0.3469476869791288,1.433724360084356,-0.05205921908050175,-0.02624422311782837,-0.1113991886377335,-0.5984926819801331,0.00228726863861084,0.1099294126033783,-0.07555770874023438,2,0.1326932472573186,-0.6435553497333102,-0.1132344509796255,-0.7452563899700022,0.9892783761024475,0.05203570798039436,-0.1364580243825912,39.61145782470703,16.62505722045898,-20.73175048828125,2,12341.11424441667,4,2,1580908625.355411,1580903939.50652,2875,0.4941365,0,0,3428.459,14,15,1580908583.647325,12339.188617,0,4.275269,97.15343
1580908625.835544,151,0,1580907286.99823,41.20781296037784,29.0754925099451,275.2123,0.1345286,-1,23.46983528137207,200,-9999,12341.612634875,1.015518188476562,0.037200927734375,-0.092437744140625,12341.602593875,0.3459479720439585,1.434104170833173,-0.05413471445793628,0.06218476593494415,0.08131302893161774,-0.1872368454933167,0.06777429580688477,0.1668397486209869,-0.07581287622451782,2,0.1331601236272844,-0.6436107141992279,-0.1121616417400302,-0.7452874806409905,0.989220917224884,0.05410827696323395,-0.1360672563314438,39.15270233154297,17.05686569213867,-20.8526611328125,2,12341.11424441667,4,2,1580908625.355411,1580903939.50652,2875,0.4941365,0,0,3428.459,14,15,1580908583.647325,12339.188617,0,4.275269,97.15343
1580908625.836717,152,0,1580907286.99823,41.20781296037784,29.0754925099451,275.2123,0.1345286,-1,23.46983528137207,200,-9999,12341.622674875,0.9757843017578125,0.08636474609375,-0.142822265625,12341.612634875,0.3458394774810161,1.433452555242384,-0.05547956781188774,-0.01702083833515644,-0.07051484286785126,-0.1152910143136978,0.02771472930908203,-0.009297430515289307,0.0375252366065979,2,0.1335858507458099,-0.6432759636291785,-0.111727206472418,-0.7455653538076429,0.9890589118003845,0.05545111000537872,-0.1367017030715942,39.15270233154297,17.05686569213867,-20.8526611328125,2,12341.11424441667,4,2,1580908625.355411,1580903939.50652,2875,0.4941365,0,0,3428.459,14,15,1580908583.647325,12339.188617,0,4.275269,97.15343
1580908625.837736,153,0,1580907286.99823,41.20781296037784,29.0754925099451,275.2123,0.1345286,-1,23.46983528137207,200,-9999,12341.632714875,0.9396209716796875,0.0810089111328125,-0.1798553466796875,12341.622674875,0.3451936102342703,1.432990600193306,-0.0564907399545934,0.03060217201709747,-0.05371533334255219,-0.1003968715667725,-0.01243329048156738,0.02156493067741394,-0.001376032829284668,2,0.1337262021733559,-0.6430722236410112,-0.1111884256055551,-0.7457965309892912,0.9889397025108337,0.05646070092916489,-0.137150838971138,39.12541198730469,17.41131401062012,-20.69818115234375,2,12341.11424441667,4,2,1580908625.355411,1580903939.50652,2875,0.4941365,0,0,3428.459,14,15,1580908583.647325,12339.188617,0,4.275269,97.15343
1580908625.845436,154,0,1580907286.99823,41.20781296037784,29.0754925099451,275.2123,0.1345286,-1,23.46983528137207,200,-9999,12341.642754875,0.9799652099609375,0.059112548828125,-0.1403045654296875,12341.632714875,0.3442993562558799,1.433481965334878,-0.0575415363543669,0.057905163615942,0.06615834683179855,-0.1177569627761841,-0.05281591415405273,0.02859914302825928,-0.04725140333175659,2,0.1338542930808894,-0.6432376492287231,-0.1104803192105519,-0.7457362219603952,0.9889477491378784,0.05750978738069534,-0.13665671646595,39.17329406738281,17.51412773132324,-20.72021484375,2,12341.11424441667,4,2,1580908625.355411,1580903939.50652,2875,0.4941365,0,0,3428.459,14,15,1580908583.647325,12339.188617,0,4.275269,97.15343
1580908625.854837,155,0,1580907286.99823,41.20781296037784,29.0754925099451,275.2123,0.1345286,-1,23.46983528137207,200,-9999,12341.652795875,0.98162841796875,0.068206787109375,-0.1427001953125,12341.642754875,0.3437350092491809,1.434054817792301,-0.05829057257320677,0.04390372335910797,0.05656507983803749,-0.08012154698371887,-0.01693189144134521,-0.000486910343170166,-0.01094561815261841,2,0.1339811946150653,-0.6434336999954748,-0.1099878085901001,-0.7456169284185429,0.9889827370643616,0.0582575686275959,-0.1360842287540436,39.17329406738281,17.51412773132324,-20.72021484375,2,12341.11424441667,4,2,1580908625.355411,1580903939.50652,2875,0.4941365,0,0,3428.459,14,15,1580908583.647325,12339.188617,0,4.275269,97.15343
1580908625.888955,156,0,1580907286.99823,41.20781296037784,29.0754925099451,275.2123,0.1345286,-1,23.46983528137207,200,-9999,12341.662835875,0.9660491943359375,0.06451416015625,-0.1520538330078125,12341.652795875,0.3429563255985676,1.434910587727098,-0.05883288910968994,0.04881512746214867,0.08828571438789368,-0.06040056794881821,-0.00857853889465332,0.009177923202514648,-0.008396387100219727,2,0.1339779101031123,-0.6437648175323288,-0.1094636629453651,-0.7454089447816729,0.989067554473877,0.05879895389080048,-0.1352335512638092,39.25301361083984,17.37142944335938,-20.746337890625,2,12341.11424441667,4,2,1580908625.355411,1580903939.50652,2875,0.4941365,0,0,3428.459,14,15,1580908583.647325,12339.188617,0,4.275269,97.15343
1580908625.890375,157,0,1580907286.99823,41.20781296037784,29.0754925099451,275.2123,0.1345286,-1,23.46983528137207,200,-9999,12341.672906875,0.9766387939453125,0.066375732421875,-0.1333465576171875,12341.662835875,0.3422540433281168,1.436063877988695,-0.05931484189220862,0.06275679171085358,0.1219717413187027,-0.05842847377061844,-0.02668094635009766,0.005368560552597046,-0.02207261323928833,2,0.1339927568521228,-0.6442060704635564,-0.1089676981699406,-0.7450976353013447,0.9891946315765381,0.05928006768226624,-0.1340889632701874,39.25301361083984,17.37142944335938,-20.746337890625,2,12341.11424441667,4,2,1580908625.355411,1580903939.50652,2875,0.4941365,0,0,3428.459,14,15,1580908583.647325,12339.188617,0,4.275269,97.15343
1580908625.891356,158,0,1580907286.99823,41.20781296037784,29.0754925099451,275.2123,0.1345286,-1,23.46983528137207,200,-9999,12341.682946875,0.976409912109375,0.066558837890625,-0.13336181640625,12341.672906875,0.3412910115513421,1.437084531433304,-0.05966245476794781,0.0685821920633316,0.1046010106801987,-0.04441652074456215,-0.01730614900588989,0.005951136350631714,-0.004945874214172363,2,0.1338662442651852,-0.6446251378687478,-0.1084273108917133,-0.7448367838963194,0.9893105626106262,0.05962706357240677,-0.1330765187740326,39.18925476074219,17.35058975219727,-20.971435546875,2,12341.11424441667,4,2,1580908625.355411,1580903939.50652,2875,0.4941365,0,0,3428.459,14,15,1580908583.647325,12339.188617,0,4.275269,97.15343
1580908625.895039,159,0,1580907286.99823,41.20781296037784,29.0754925099451,275.2123,0.1345286,-1,23.46983528137207,200,-9999,12341.692986875,0.9665374755859375,0.0521392822265625,-0.140167236328125,12341.682946875,0.3404177218996174,1.438032158210554,-0.06002103571337138,0.0813073068857193,0.09790448844432831,-0.04383675009012222,-0.01554930210113525,0.006965219974517822,-0.003402590751647949,2,0.1337682710076042,-0.6450100698239292,-0.1079217504721951,-0.7445944933028236,0.9894149303436279,0.05998500436544418,-0.1321361213922501,39.18925476074219,17.35058975219727,-20.971435546875,2,12341.11424441667,4,2,1580908625.355411,1580903939.50652,2875,0.4941365,0,0,3428.459,14,15,1580908583.647325,12339.188617,0,4.275269,97.15343
1580908625.905254,160,0,1580907286.99823,41.20781296037784,29.0754925099451,275.2123,0.1345286,-1,23.46983528137207,200,-9999,12341.703027875,0.9751434326171875,0.0437469482421875,-0.1317138671875,12341.692986875,0.3392207283803637,1.43909305894512,-0.06072617721012377,0.09007230401039124,0.1123976707458496,-0.08346512168645859,-0.02652657032012939,-0.007336795330047607,-0.01236581802368164,2,0.1336992715784892,-0.6454332768217035,-0.1071750531736098,-0.7443479319869799,0.9895123243331909,0.06068886071443558,-0.1310807764530182,39.24564361572266,17.54198265075684,-21.0181884765625,2,12341.11424441667,4,2,1580908625.355411,1580903939.50652,2875,0.4941365,0,0,3428.459,14,15,1580908583.647325,12339.188617,0,4.275269,97.15343
1580908625.915233,161,0,1580907286.99823,41.20781296037784,29.0754925099451,275.2123,0.1345286,-1,23.46983528137207,200,-9999,12341.713067875,0.9854278564453125,0.0400238037109375,-0.1211700439453125,12341.703027875,0.3382872530716248,1.440142399708881,-0.06177684248114185,0.07784118503332138,0.1115233898162842,-0.1156579703092575,-0.01919955015182495,-0.01765146851539612,-0.006107449531555176,2,0.1338413664643603,-0.6458091788797167,-0.1064142643231124,-0.7441054234612178,0.9895854592323303,0.0617375560104847,-0.1300339847803116,39.24564361572266,17.54198265075684,-21.0181884765625,2,12341.11424441667,4,2,1580908625.355411,1580903939.50652,2875,0.4941365,0,0,3428.459,14,15,1580908583.647325,12339.188617,0,4.275269,97.15343
1580908625.948648,162,0,1580907286.99823,41.20781296037784,29.0754925099451,275.2123,0.1345286,-1,23.46983528137207,200,-9999,12341.723107875,0.9934234619140625,0.0428619384765625,-0.11993408203125,12341.713067875,0.337308348990236,1.440902028849711,-0.06319887825431014,0.05777533352375031,0.08041554689407349,-0.1525989323854446,-0.008498430252075195,-0.0229974091053009,0.004097640514373779,2,0.1340895512033877,-0.6460531102717251,-0.1055343310582437,-0.7439743816156363,0.9895960092544556,0.06315681338310242,-0.1292707473039627,39.33116149902344,17.64781188964844,-21.041015625,2,12341.11424441667,4,2,1580908625.355411,1580903939.50652,2875,0.4941365,0,0,3428.459,14,15,1580908583.647325,12339.188617,0,4.275269,97.15343
