loggingTime,loggingSample,identifierForVendor,locationTimestamp_since1970,locationLatitude,locationLongitude,locationAltitude,locationSpeed,locationCourse,locationVerticalAccuracy,locationHorizontalAccuracy,locationFloor,accelerometerTimestamp_sinceReboot,accelerometerAccelerationX,accelerometerAccelerationY,accelerometerAccelerationZ,motionTimestamp_sinceReboot,motionYaw,motionRoll,motionPitch,motionRotationRateX,motionRotationRateY,motionRotationRateZ,motionUserAccelerationX,motionUserAccelerationY,motionUserAccelerationZ,motionAttitudeReferenceFrame,motionQuaternionX,motionQuaternionY,motionQuaternionZ,motionQuaternionW,motionGravityX,motionGravityY,motionGravityZ,motionMagneticFieldX,motionMagneticFieldY,motionMagneticFieldZ,motionMagneticFieldCalibrationAccuracy,activityTimestamp_sinceReboot,activity,activityActivityConfidence,activityActivityStartDate,pedometerStartDate,pedometerNumberofSteps,pedometerAverageActivePace,pedometerCurrentPace,pedometerCurrentCadence,pedometerDistance,pedometerFloorAscended,pedometerFloorDescended,pedometerEndDate,altimeterTimestamp_sinceReboot,altimeterReset,altimeterRelativeAltitude,altimeterPressure
1582559373.056155,1,0,1582559371.998371,41.20620066433048,29.07338440834538,177.4298,0.124429,225.0067715635685,3,16.00241654736175,-9999,106462.850493625,0.966949462890625,0.1290130615234375,-0.102386474609375,106462.844451625,1.503533912125167,1.484576158228014,-0.1255485797009188,-4.526582779362798e-05,0.004267293959856033,0.0001003406941890717,-0.01726967096328735,0.00697818398475647,-0.008048653602600098,2,0.4945051246342272,-0.4612449272562739,-0.4712996226562065,-0.5662106483202097,0.9884437322616577,0.1252190172672272,-0.08543559908866882,42.75411224365234,18.09336853027344,-18.1978759765625,2,106462.532744375,2,0,1582559372.704819,1582558685.643339,11,0.6387488,0,0,10.91,0,0,1582558765.788069,106459.874699,0,2.68988,99.33246
1582559373.057312,2,0,1582559371.998371,41.20620066433048,29.07338440834538,177.4298,0.124429,225.0067715635685,3,16.00241654736175,-9999,106462.860533625,0.9674835205078125,0.1287689208984375,-0.0999298095703125,106462.854491625,1.503516327062188,1.484683681251699,-0.1256228665799977,0.0006804455770179629,0.01155556738376617,-0.007309905253350735,-0.02193868160247803,0.003242284059524536,-0.01721954345703125,2,0.4945453023080636,-0.4612598926886704,-0.4712485628612569,-0.5662058019607383,0.9884435534477234,0.1252927184104919,-0.08532851189374924,42.62366485595703,17.92215728759766,-18.31683349609375,2,106462.532744375,2,0,1582559372.704819,1582558685.643339,11,0.6387488,0,0,10.91,0,0,1582558765.788069,106459.874699,0,2.68988,99.33246
1582559373.058266,3,0,1582559371.998371,41.20620066433048,29.07338440834538,177.4298,0.124429,225.0067715635685,3,16.00241654736175,-9999,106462.870574625,0.9668121337890625,0.1310272216796875,-0.097259521484375,106462.864531625,1.503533443774957,1.484815822530535,-0.1256936191255285,-0.002653558040037751,0.01455950550734997,-0.005380974616855383,-0.02133077383041382,0.003538310527801514,-0.01487910747528076,2,0.494598368160559,-0.4612742002911173,-0.4712021737903906,-0.5661863831875307,0.9884459972381592,0.1253629177808762,-0.08519713580608368,42.62366485595703,17.92215728759766,-18.31683349609375,2,106462.532744375,2,0,1582559372.704819,1582558685.643339,11,0.6387488,0,0,10.91,0,0,1582558765.788069,106459.874699,0,2.68988,99.33246
1582559373.059452,4,0,1582559371.998371,41.20620066433048,29.07338440834538,177.4298,0.124429,225.0067715635685,3,16.00241654736175,-9999,106462.880614625,0.9659271240234375,0.1336822509765625,-0.0975189208984375,106462.874571625,1.503571041437951,1.484952416755972,-0.1257642723725562,-0.005295679904520512,0.01618137396872044,-0.006184450350701809,-0.02264595031738281,0.006046891212463379,-0.0124361515045166,2,0.4946571531403292,-0.4612847491843767,-0.4711605234651454,-0.5661611586864743,0.9884488582611084,0.125433012843132,-0.08506136387586594,42.73763275146484,17.97132873535156,-18.188232421875,2,106462.532744375,2,0,1582559372.704819,1582558685.643339,11,0.6387488,0,0,10.91,0,0,1582558765.788069,106459.874699,0,2.68988,99.33246
1582559373.060253,5,0,1582559371.998371,41.20620066433048,29.07338440834538,177.4298,0.124429,225.0067715635685,3,16.00241654736175,-9999,106462.890654625,0.9691009521484375,0.1326751708984375,-0.0964508056640625,106462.884612625,1.503594409326007,1.48506660857035,-0.1258140779197855,-0.002637433586642146,0.01443034783005714,-0.003603851422667503,-0.02254247665405273,0.008148938417434692,-0.01323628425598145,2,0.4947021209047684,-0.4612979932238917,-0.4711258090406187,-0.5661398799998658,0.9884522557258606,0.1254824250936508,-0.08494794368743896,42.73763275146484,17.97132873535156,-18.188232421875,2,106462.532744375,2,0,1582559372.704819,1582558685.643339,11,0.6387488,0,0,10.91,0,0,1582558765.788069,106459.874699,0,2.68988,99.33246
1582559373.064661,6,0,1582559371.998371,41.20620066433048,29.07338440834538,177.4298,0.124429,225.0067715635685,3,16.00241654736175,-9999,106462.900694625,0.973297119140625,0.1336517333984375,-0.092315673828125,106462.894652625,1.503622782886036,1.485122922052889,-0.1258747188610437,-0.005366374738514423,0.008617997169494629,-0.005382310133427382,-0.01919806003570557,0.006944328546524048,-0.01121741533279419,2,0.4947373146262747,-0.4612907658312715,-0.4711040242814217,-0.5661332138537809,0.9884495139122009,0.1255425810813904,-0.08489163964986801,42.61048126220703,17.76203918457031,-18.16802978515625,2,106462.532744375,2,0,1582559372.704819,1582558685.643339,11,0.6387488,0,0,10.91,0,0,1582558765.788069,106459.874699,0,2.68988,99.33246
1582559373.074656,7,0,1582559371.998371,41.20620066433048,29.07338440834538,177.4298,0.124429,225.0067715635685,3,16.00241654736175,-9999,106462.910735625,0.9742889404296875,0.1343231201171875,-0.091827392578125,106462.904723625,1.503608959393927,1.485027899485524,-0.1259308060290252,0.0008655285346321762,-0.008598975837230682,-0.00450967950746417,-0.01480388641357422,0.008216142654418945,-0.007065415382385254,2,0.4947260136777168,-0.4612523120618783,-0.4711088846638027,-0.5661702961778208,0.988434374332428,0.1255982220172882,-0.08498495072126389,42.61048126220703,17.76203918457031,-18.16802978515625,2,106462.532744375,2,0,1582559372.704819,1582558685.643339,11,0.6387488,0,0,10.91,0,0,1582558765.788069,106459.874699,0,2.68988,99.33246
1582559373.099,8,0,1582559371.998371,41.20620066433048,29.07338440834538,177.4298,0.124429,225.0067715635685,3,16.00241654736175,-9999,106462.920775625,0.9561767578125,0.1326446533203125,-0.1021728515625,106462.914763625,1.5036358687228,1.484961587503566,-0.1259668077498437,-0.004928178153932095,-0.008500970900058746,-0.003295278176665306,-0.01682305335998535,0.008165210485458374,-0.008876800537109375,2,0.4947256857705583,-0.4612173371364361,-0.471123516808457,-0.5661871045354908,0.9884244203567505,0.1256339401006699,-0.08505012840032578,42.68625640869141,17.80181884765625,-18.2547607421875,2,106462.532744375,2,0,1582559372.704819,1582558685.643339,11,0.6387488,0,0,10.91,0,0,1582558765.788069,106459.874699,0,2.68988,99.33246
1582559373.100302,9,0,1582559371.998371,41.20620066433048,29.07338440834538,177.4298,0.124429,225.0067715635685,3,16.00241654736175,-9999,106462.930815625,0.9545135498046875,0.1360626220703125,-0.0970611572265625,106462.924803625,1.503625003002516,1.48497843507298,-0.1259020299817641,0.001170733710750937,0.001897292211651802,0.006609539501368999,-0.03518879413604736,0.007451266050338745,-0.01781916618347168,2,0.4947107296944911,-0.4612420335164794,-0.4711332296030999,-0.5661718441914709,0.988433837890625,0.1255696713924408,-0.08503416180610657,42.68625640869141,17.80181884765625,-18.2547607421875,2,106462.532744375,2,0,1582559372.704819,1582558685.643339,11,0.6387488,0,0,10.91,0,0,1582558765.788069,106459.874699,0,2.68988,99.33246
1582559373.105581,10,0,1582559371.998371,41.20620066433048,29.07338440834538,177.4298,0.124429,225.0067715635685,3,16.00241654736175,-9999,106462.940856625,0.9651336669921875,0.133697509765625,-0.0971832275390625,106462.934844625,1.503577529959879,1.484981552858428,-0.1257528258251726,0.006200912408530712,0.003346584737300873,0.01518571749329567,-0.03279685974121094,0.0106511116027832,-0.01162564754486084,2,0.4946626281816752,-0.4612944234208308,-0.4711581351263212,-0.5661504009691342,0.988452672958374,0.1254216432571411,-0.08503267914056778,42.54782867431641,17.96937561035156,-18.12640380859375,2,106462.532744375,2,0,1582559372.704819,1582558685.643339,11,0.6387488,0,0,10.91,0,0,1582558765.788069,106459.874699,0,2.68988,99.33246
1582559373.114884,11,0,1582559371.998371,41.20620066433048,29.07338440834538,177.4298,0.124429,225.0067715635685,3,16.00241654736175,-9999,106462.950896625,0.9751434326171875,0.1305389404296875,-0.097991943359375,106462.944884625,1.503548579531475,1.484952623180703,-0.1256146745166474,0.004465259611606598,-0.001698123291134834,0.01408024411648512,-0.02144372463226318,0.007385581731796265,-0.01293826103210449,2,0.4946140421020466,-0.4613302191944574,-0.471193319133082,-0.566134374625639,0.9884674549102783,0.1252845823764801,-0.08506275713443756,42.54782867431641,17.96937561035156,-18.12640380859375,2,106462.532744375,2,0,1582559372.704819,1582558685.643339,11,0.6387488,0,0,10.91,0,0,1582558765.788069,106459.874699,0,2.68988,99.33246
1582559373.125002,12,0,1582559371.998371,41.20620066433048,29.07338440834538,177.4298,0.124429,225.0067715635685,3,16.00241654736175,-9999,106462.960936625,0.9777679443359375,0.128448486328125,-0.09521484375,106462.954924625,1.503519456253757,1.484910954770147,-0.1255442074403569,0.003663115436211228,-0.002524768933653831,0.008161901496350765,-0.01276683807373047,0.00480043888092041,-0.01272845268249512,2,0.4945795874048942,-0.4613444253644954,-0.4712138725233088,-0.5661358424373085,0.9884727597236633,0.1252146810293198,-0.08510470390319824,42.63806915283203,18.01921844482422,-18.03436279296875,2,106462.532744375,2,0,1582559372.704819,1582558685.643339,11,0.6387488,0,0,10.91,0,0,1582558765.788069,106459.874699,0,2.68988,99.33246
1582559373.135286,13,0,1582559371.998371,41.20620066433048,29.07338440834538,177.4298,0.124429,225.0067715635685,3,16.00241654736175,-9999,106462.970976625,0.97528076171875,0.1295318603515625,-0.0959930419921875,106462.964964625,1.503505039712983,1.484855591523113,-0.1255429218183122,0.001202241517603397,-0.004149690270423889,0.001647460274398327,-0.01160258054733276,0.003169059753417969,-0.01033914089202881,2,0.4945628987900097,-0.4613326544371587,-0.4712238122800708,-0.5661517133836408,0.9884681701660156,0.1252133995294571,-0.08515944331884384,42.63806915283203,18.01921844482422,-18.03436279296875,2,106462.532744375,2,0,1582559372.704819,1582558685.643339,11,0.6387488,0,0,10.91,0,0,1582558765.788069,106459.874699,0,2.68988,99.33246
1582559373.155226,14,0,1582559372.998363,41.20620008737534,29.07338136318349,177.4473,0.06816529,224.6674204448456,3,16.00241654736175,-9999,106462.981017625,0.9702301025390625,0.132415771484375,-0.0964813232421875,106462.975005625,1.503503658588041,1.484793638537021,-0.1255633881708658,-0.0002491812920197845,-0.005946792662143707,-0.0003046365454792976,-0.01421928405761719,0.004964530467987061,-0.01130044460296631,2,0.4945531828046765,-0.4613100031114087,-0.4712333752325876,-0.5661707022204406,0.98846036195755,0.1252337098121643,-0.08522046357393265,42.66783905029297,17.90921783447266,-18.0994873046875,2,106462.532744375,2,0,1582559372.704819,1582558685.643339,11,0.6387488,0,0,10.91,0,0,1582558765.788069,106459.874699,0,2.68988,99.33246
1582559373.156233,15,0,1582559372.998363,41.20620008737534,29.07338136318349,177.4473,0.06816529,224.6674204448456,3,16.00241654736175,-9999,106462.991057625,0.9656524658203125,0.132415771484375,-0.097686767578125,106462.985045625,1.503499751331413,1.484742892875186,-0.1255971372803216,8.699047612026334e-05,-0.003024604171514511,-0.00319331930950284,-0.02048206329345703,0.007311433553695679,-0.01192200183868408,2,0.4945489060201502,-0.4612876017687178,-0.4712359631401882,-0.5661905194105841,0.9884517788887024,0.1252671927213669,-0.08527025580406189,42.66783905029297,17.90921783447266,-18.0994873046875,2,106462.532744375,2,0,1582559372.704819,1582558685.643339,11,0.6387488,0,0,10.91,0,0,1582558765.788069,106459.874699,0,2.68988,99.33246
1582559373.165083,16,0,1582559372.998363,41.20620008737534,29.07338136318349,177.4473,0.06816529,224.6674204448456,3,16.00241654736175,-9999,106463.001097625,0.9642181396484375,0.1331024169921875,-0.09710693359375,106462.995085625,1.503507673407308,1.484690066051147,-0.1255982365444528,-0.002122900681570172,-0.004789747297763824,0.001187846995890141,-0.02354449033737183,0.006989896297454834,-0.01280057430267334,2,0.4945385529591851,-0.4612704058176338,-0.471250991577341,-0.5662011069173949,0.9884471893310547,0.125268280506134,-0.08532246202230453,42.60507965087891,17.83199310302734,-18.06329345703125,2,106462.532744375,2,0,1582559372.704819,1582558685.643339,11,0.6387488,0,0,10.91,0,0,1582558765.788069,106459.874699,0,2.68988,99.33246
1582559373.175092,17,0,1582559372.998363,41.20620008737534,29.07338136318349,177.4473,0.06816529,224.6674204448456,3,16.00241654736175,-9999,106463.011138625,0.9636383056640625,0.131866455078125,-0.098724365234375,106463.005126625,1.503489164091099,1.484663080958278,-0.1255681559835838,0.003592694876715541,-0.002356318756937981,0.003813143353909254,-0.02501082420349121,0.007904738187789917,-0.01233106851577759,2,0.4945202670553828,-0.4612753756652873,-0.4712603245152076,-0.5662053105145386,0.9884486794471741,0.1252384334802628,-0.08534946292638779,42.60507965087891,17.83199310302734,-18.06329345703125,2,106462.532744375,2,0,1582559372.704819,1582558685.643339,11,0.6387488,0,0,10.91,0,0,1582558765.788069,106459.874699,0,2.68988,99.33246
1582559373.185397,18,0,1582559372.998363,41.20620008737534,29.07338136318349,177.4473,0.06816529,224.6674204448456,3,16.00241654736175,-9999,106463.021178625,0.96429443359375,0.1319580078125,-0.0997467041015625,106463.015166625,1.503498831663368,1.4847390803274,-0.1255173163482306,9.090438834391534e-05,0.009900879114866257,0.00583687936887145,-0.02555763721466064,0.006597191095352173,-0.0147860050201416,2,0.4945275077989297,-0.4613080334200765,-0.4712575790059374,-0.5661745827418475,0.988461434841156,0.1251879930496216,-0.08527488261461258,42.71770477294922,17.89546966552734,-18.04638671875,2,106462.532744375,2,0,1582559372.704819,1582558685.643339,11,0.6387488,0,0,10.91,0,0,1582558765.788069,106459.874699,0,2.68988,99.33246
1582559373.195221,19,0,1582559372.998363,41.20620008737534,29.07338136318349,177.4473,0.06816529,224.6674204448456,3,16.00241654736175,-9999,106463.031218625,0.9694366455078125,0.131622314453125,-0.09490966796875,106463.025206625,1.503498314595597,1.484836943015387,-0.1254564234011497,0.001341982395388186,0.01189661212265491,0.006825624499469995,-0.0236661434173584,0.006688177585601807,-0.01425629854202271,2,0.4945349285392871,-0.461352137731203,-0.4712492424239437,-0.5661392563959593,0.9884775280952454,0.1251275837421417,-0.08517882227897644,42.71770477294922,17.89546966552734,-18.04638671875,2,106462.532744375,2,0,1582559372.704819,1582558685.643339,11,0.6387488,0,0,10.91,0,0,1582558765.788069,106459.874699,0,2.68988,99.33246
1582559373.224146,20,0,1582559372.998363,41.20620008737534,29.07338136318349,177.4473,0.06816529,224.6674204448456,3,16.00241654736175,-9999,106463.041258625,0.97564697265625,0.1304473876953125,-0.094268798828125,106463.035246625,1.503499577801559,1.484871327361899,-0.1254210316947366,-0.0001168972230516374,0.004691962152719498,0.005217873957008123,-0.01836347579956055,0.006418049335479736,-0.009880363941192627,2,0.4945343724290728,-0.4613709528129469,-0.4712503373311465,-0.5661233419765241,0.9884847402572632,0.1250924617052078,-0.08514519780874252,42.78365325927734,17.96033477783203,-18.266357421875,2,106462.532744375,2,0,1582559372.704819,1582558685.643339,11,0.6387488,0,0,10.91,0,0,1582558765.788069,106459.874699,0,2.68988,99.33246
1582559373.225739,21,0,1582559372.998363,41.20620008737534,29.07338136318349,177.4473,0.06816529,224.6674204448456,3,16.00241654736175,-9999,106463.051329625,0.9742889404296875,0.131378173828125,-0.095855712890625,106463.045287625,1.503476713327891,1.484840203926977,-0.125426702011307,0.003348216647282243,-0.001975486055016518,0.001078609377145767,-0.0131111741065979,0.005191773176193237,-0.0100175142288208,2,0.4945232007390709,-0.4613662891360993,-0.4712500783985228,-0.5661371334826792,0.988481342792511,0.1250980943441391,-0.08517590165138245,42.78365325927734,17.96033477783203,-18.266357421875,2,106462.532744375,2,0,1582559372.704819,1582558685.643339,11,0.6387488,0,0,10.91,0,0,1582558765.788069,106459.874699,0,2.68988,99.33246
1582559373.226731,22,0,1582559372.998363,41.20620008737534,29.07338136318349,177.4473,0.06816529,224.6674204448456,3,16.00241654736175,-9999,106463.061369625,0.9736328125,0.132904052734375,-0.0948486328125,106463.055327625,1.503455178595279,1.48474633134082,-0.1254672424714711,0.002055251970887184,-0.007651481777429581,-0.002902816515415907,-0.01503598690032959,0.006417989730834961,-0.01093208789825439,2,0.4945064104993021,-0.4613342391933984,-0.4712565688471651,-0.5661725369666926,0.98846834897995,0.1251383125782013,-0.08526825904846191,42.88214874267578,18.14813232421875,-18.28253173828125,2,106462.532744375,2,0,1582559372.704819,1582558685.643339,11,0.6387488,0,0,10.91,0,0,1582558765.788069,106459.874699,0,2.68988,99.33246
1582559373.235936,23,0,1582559372.998363,41.20620008737534,29.07338136318349,177.4473,0.06816529,224.6674204448456,3,16.00241654736175,-9999,106463.071410625,0.96734619140625,0.13397216796875,-0.0963592529296875,106463.065367625,1.503434721293319,1.484594889311913,-0.1255082783926453,0.002622962929308414,-0.01562742330133915,-0.003011560067534447,-0.01585710048675537,0.007674306631088257,-0.009623169898986816,2,0.4944764533762379,-0.4612854688116118,-0.4712774453460752,-0.5662210007216164,0.9884502291679382,0.1251790225505829,-0.08541750907897949,42.88214874267578,18.14813232421875,-18.28253173828125,2,106462.532744375,2,0,1582559372.704819,1582558685.643339,11,0.6387488,0,0,10.91,0,0,1582558765.788069,106459.874699,0,2.68988,99.33246
1582559373.245495,24,0,1582559372.998363,41.20620008737534,29.07338136318349,177.4473,0.06816529,224.6674204448456,3,16.00241654736175,-9999,106463.081450625,0.963714599609375,0.133148193359375,-0.0970916748046875,106463.075408625,1.503442672681921,1.484456895481965,-0.1255042866950982,0.0002804464020300657,-0.01293363608419895,0.001706229522824287,-0.02288007736206055,0.008654773235321045,-0.01153135299682617,2,0.4944447752056756,-0.4612454802126006,-0.4713148405619482,-0.5662500420734735,0.9884388446807861,0.1251750737428665,-0.08555394411087036,42.72412872314453,18.11283111572266,-18.1280517578125,2,106462.532744375,2,0,1582559372.704819,1582558685.643339,11,0.6387488,0,0,10.91,0,0,1582558765.788069,106459.874699,0,2.68988,99.33246
1582559373.25552,25,0,1582559372.998363,41.20620008737534,29.07338136318349,177.4473,0.06816529,224.6674204448456,3,16.00241654736175,-9999,106463.091490625,0.9598846435546875,0.1319427490234375,-0.1013336181640625,106463.085448625,1.503484052720063,1.484363186225829,-0.1254481861326413,-0.002038050210103393,-0.00853448361158371,0.007026693318039179,-0.02600705623626709,0.007779747247695923,-0.01230752468109131,2,0.4944178869800901,-0.4612237552052936,-0.4713645102368635,-0.5662501739852333,0.9884381294250488,0.1251194030046463,-0.08564720302820206,42.72412872314453,18.11283111572266,-18.1280517578125,2,106462.532744375,2,0,1582559372.704819,1582558685.643339,11,0.6387488,0,0,10.91,0,0,1582558765.788069,106459.874699,0,2.68988,99.33246
1582559373.278952,26,0,1582559372.998363,41.20620008737534,29.07338136318349,177.4473,0.06816529,224.6674204448456,3,16.00241654736175,-9999,106463.101531625,0.9591522216796875,0.13116455078125,-0.1042938232421875,106463.095488625,1.503563373282305,1.484410767192473,-0.1253465502276875,-0.006047705188393593,0.005289452150464058,0.01204541884362698,-0.02960968017578125,0.006705671548843384,-0.01714503765106201,2,0.4944216238897105,-0.4612446578607367,-0.471401789335301,-0.5661986240492504,0.9884546399116516,0.1250185668468475,-0.08560124784708023,42.87216949462891,18.05710601806641,-18.22430419921875,2,106462.532744375,2,0,1582559372.704819,1582558685.643339,11,0.6387488,0,0,10.91,0,0,1582558765.788069,106459.874699,0,2.68988,99.33246
1582559373.280683,27,0,1582559372.998363,41.20620008737534,29.07338136318349,177.4473,0.06816529,224.6674204448456,3,16.00241654736175,-9999,106463.111571625,0.96478271484375,0.1313629150390625,-0.100860595703125,106463.105528625,1.50369611475072,1.484606065359084,-0.1252286545295572,-0.01213521789759398,0.01937220990657806,0.01384677924215794,-0.02927482128143311,0.006258130073547363,-0.01910698413848877,2,0.4944683197169795,-0.4612985453594429,-0.4714219758514066,-0.5660970801494338,0.9884859919548035,0.1249016001820564,-0.08540946245193481,42.87216949462891,18.05710601806641,-18.22430419921875,2,106462.532744375,2,0,1582559372.704819,1582558685.643339,11,0.6387488,0,0,10.91,0,0,1582558765.788069,106459.874699,0,2.68988,99.33246
1582559373.285965,28,0,1582559372.998363,41.20620008737534,29.07338136318349,177.4473,0.06816529,224.6674204448456,3,16.00241654736175,-9999,106463.121611625,0.9683685302734375,0.1326141357421875,-0.098724365234375,106463.115569625,1.503866390058373,1.484854923237532,-0.1251126032638771,-0.01593395136296749,0.02265482395887375,0.0144617035984993,-0.02300858497619629,0.006678491830825806,-0.0153079628944397,2,0.4945366897406877,-0.4613578806622043,-0.4714391252432232,-0.5659749622932617,0.988521933555603,0.1247864589095116,-0.08516473323106766,42.91674041748047,18.00743865966797,-18.17230224609375,2,106462.532744375,2,0,1582559372.704819,1582558685.643339,11,0.6387488,0,0,10.91,0,0,1582558765.788069,106459.874699,0,2.68988,99.33246
1582559373.295594,29,0,1582559372.998363,41.20620008737534,29.07338136318349,177.4473,0.06816529,224.6674204448456,3,16.00241654736175,-9999,106463.131651625,0.967529296875,0.1316986083984375,-0.0973358154296875,106463.125609625,1.504051578399184,1.485130044652696,-0.1249996473195763,-0.01747402176260948,0.02476244606077671,0.01374024711549282,-0.02065050601959229,0.007797718048095703,-0.01403796672821045,2,0.4946156158536696,-0.461419996351106,-0.4714530527261409,-0.5658435533092366,0.9885591268539429,0.124674379825592,-0.08489395678043365,42.91674041748047,18.00743865966797,-18.17230224609375,2,106462.532744375,2,0,1582559372.704819,1582558685.643339,11,0.6387488,0,0,10.91,0,0,1582558765.788069,106459.874699,0,2.68988,99.33246
1582559373.305953,30,0,1582559372.998363,41.20620008737534,29.07338136318349,177.4473,0.06816529,224.6674204448456,3,16.00241654736175,-9999,106463.141692625,0.968170166015625,0.1312255859375,-0.0953826904296875,106463.135649625,1.504236741327447,1.485446178373699,-0.1248912595662991,-0.01775711588561535,0.03050076030194759,0.01273011043667793,-0.02172839641571045,0.006532013416290283,-0.01300680637359619,2,0.4947053272338194,-0.461492518901832,-0.4714556542425025,-0.5657037883815874,0.9885993599891663,0.124566838145256,-0.08458258956670761,42.67858123779297,17.94098663330078,-18.1737060546875,2,106462.532744375,2,0,1582559372.704819,1582558685.643339,11,0.6387488,0,0,10.91,0,0,1582558765.788069,106459.874699,0,2.68988,99.33246
1582559373.315755,31,0,1582559372.998363,41.20620008737534,29.07338136318349,177.4473,0.06816529,224.6674204448456,3,16.00241654736175,-9999,106463.151732625,0.9673614501953125,0.1319732666015625,-0.0966033935546875,106463.145690625,1.504408804882322,1.485751168287102,-0.1247700373169857,-0.01500173099339008,0.02807979099452496,0.01469543762505054,-0.02094519138336182,0.006987988948822021,-0.01104885339736938,2,0.4947861457760959,-0.4615685151746349,-0.4714606431772449,-0.565566906531261,0.9886401295661926,0.1244465634226799,-0.08428235352039337,42.67858123779297,17.94098663330078,-18.1737060546875,2,106462.532744375,2,0,1582559372.704819,1582558685.643339,11,0.6387488,0,0,10.91,0,0,1582558765.788069,106459.874699,0,2.68988,99.33246
1582559373.343016,32,0,1582559372.998363,41.20620008737534,29.07338136318349,177.4473,0.06816529,224.6674204448456,3,16.00241654736175,-9999,106463.161772625,0.968353271484375,0.1305999755859375,-0.0950775146484375,106463.155760625,1.504545717636897,1.486087623789662,-0.1246423369453461,-0.01237958297133446,0.03412622958421707,0.01619346626102924,-0.02204215526580811,0.00761839747428894,-0.01379096508026123,2,0.4948645807379567,-0.4616638503129216,-0.4714496346683186,-0.5654297982638048,0.9886844754219055,0.124319851398468,-0.08395107090473175,42.72057342529297,17.90713500976562,-18.110595703125,2,106462.532744375,2,0,1582559372.704819,1582558685.643339,11,0.6387488,0,0,10.91,0,0,1582558765.788069,106459.874699,0,2.68988,99.33246
1582559373.344591,33,0,1582559372.998363,41.20620008737534,29.07338136318349,177.4473,0.06816529,224.6674204448456,3,16.00241654736175,-9999,106463.171813625,0.976165771484375,0.1285247802734375,-0.091766357421875,106463.165801625,1.504601761833354,1.48636989821961,-0.1245481308002142,-0.004465634934604168,0.02891985327005386,0.01239544712007046,-0.01989549398422241,0.005773961544036865,-0.01080405712127686,2,0.4949201939961064,-0.4617548295860641,-0.471420275925777,-0.5653311000860161,0.9887195825576782,0.124226376414299,-0.08367295563220978,42.72057342529297,17.90713500976562,-18.110595703125,2,106462.532744375,2,0,1582559372.704819,1582558685.643339,11,0.6387488,0,0,10.91,0,0,1582558765.788069,106459.874699,0,2.68988,99.33246
1582559373.345938,34,0,1582559372.998363,41.20620008737534,29.07338136318349,177.4473,0.06816529,224.6674204448456,3,16.00241654736175,-9999,106463.181853625,0.9813690185546875,0.1294097900390625,-0.0902099609375,106463.175841625,1.504625687677597,1.486535121716406,-0.1245320828935015,-0.003192111616954207,0.01735347881913185,0.002432561013847589,-0.01138174533843994,0.004142016172409058,-0.008571624755859375,2,0.4949605563297318,-0.4617999139116247,-0.4713903872329053,-0.565283967400792,0.9887354969978333,0.1242104545235634,-0.08350977301597595,42.78496551513672,17.97864532470703,-18.1153564453125,2,106462.532744375,2,0,1582559372.704819,1582558685.643339,11,0.6387488,0,0,10.91,0,0,1582558765.788069,106459.874699,0,2.68988,99.33246
1582559373.355941,35,0,1582559372.998363,41.20620008737534,29.07338136318349,177.4473,0.06816529,224.6674204448456,3,16.00241654736175,-9999,106463.191893625,0.9814910888671875,0.13214111328125,-0.086578369140625,106463.185881625,1.504628103865237,1.486483070563201,-0.1245483053985046,-0.0002543239388614893,-0.003585036844015121,-0.0009910226799547672,-0.007484197616577148,0.005590766668319702,-0.006429672241210938,2,0.4949529362204,-0.4617803069865312,-0.4713997239144036,-0.5652989686962173,0.9887292385101318,0.1242265477776527,-0.08356107771396637,42.78496551513672,17.97864532470703,-18.1153564453125,2,106462.532744375,2,0,1582559372.704819,1582558685.643339,11,0.6387488,0,0,10.91,0,0,1582558765.788069,106459.874699,0,2.68988,99.33246
1582559373.365995,36,0,1582559372.998363,41.20620008737534,29.07338136318349,177.4473,0.06816529,224.6674204448456,3,16.00241654736175,-9999,106463.201933625,0.9700469970703125,0.13189697265625,-0.0932769775390625,106463.195921625,1.504614291241626,1.486268139302849,-0.1245498940122763,0.001680462504737079,-0.0209917239844799,0.001042833086103201,-0.00925135612487793,0.008473098278045654,-0.003607869148254395,2,0.4948995154132191,-0.4617225245160616,-0.471448566042647,-0.5653521102947193,0.9887109398841858,0.1242281273007393,-0.08377356082201004,42.65689849853516,17.96708679199219,-17.99383544921875,2,106462.532744375,2,0,1582559372.704819,1582558685.643339,11,0.6387488,0,0,10.91,0,0,1582558765.788069,106459.874699,0,2.68988,99.33246
1582559373.375998,37,0,1582559372.998363,41.20620008737534,29.07338136318349,177.4473,0.06816529,224.6674204448456,3,16.00241654736175,-9999,106463.211974625,0.957672119140625,0.124847412109375,-0.104095458984375,106463.205962625,1.504619569754248,1.486153071368881,-0.1245785733061944,-0.0004982695099897683,-0.01194256916642189,-0.002172933658584952,-0.02171987295150757,0.006277859210968018,-0.01193243265151978,2,0.4948808704873189,-0.4616810666612043,-0.4714710311215002,-0.5653836248398304,0.9886978268623352,0.1242565810680389,-0.08388703316450119,42.65689849853516,17.96708679199219,-17.99383544921875,2,106462.532744375,2,0,1582559372.704819,1582558685.643339,11,0.6387488,0,0,10.91,0,0,1582558765.788069,106460.811131,0,2.549835,99.33411
1582559373.397917,38,0,1582559372.998363,41.20620008737534,29.07338136318349,177.4473,0.06816529,224.6674204448456,3,16.00241654736175,-9999,106463.222014625,0.9496002197265625,0.1287994384765625,-0.11041259765625,106463.216002625,1.504676071459016,1.486386373891573,-0.1246111078090248,-0.006102891638875008,0.02508735284209251,-0.001738039311021566,-0.03406453132629395,0.0005082190036773682,-0.02347058057785034,2,0.4949572187312596,-0.461724319248823,-0.4714206943634262,-0.565323267581143,0.9887131452560425,0.1242888644337654,-0.08365600556135178,42.84452056884766,18.054931640625,-18.08575439453125,2,106462.532744375,2,0,1582559372.704819,1582558685.643339,11,0.6387488,0,0,10.91,0,0,1582558765.788069,106460.811131,0,2.549835,99.33411
1582559373.398668,39,0,1582559372.998363,41.20620008737534,29.07338136318349,177.4473,0.06816529,224.6674204448456,3,16.00241654736175,-9999,106463.232054625,0.9621124267578125,0.130279541015625,-0.09869384765625,106463.226042625,1.504770459753784,1.486881711200375,-0.1246231565184918,-0.01084860879927874,0.04952691495418549,-1.737754791975021e-05,-0.03798031806945801,0.004982411861419678,-0.02614295482635498,2,0.4950988104955216,-0.4618377461463297,-0.4713216123333521,-0.5651892427879942,0.9887530207633972,0.1243008226156235,-0.08316612988710403,42.84452056884766,18.054931640625,-18.08575439453125,2,106462.532744375,2,0,1582559372.704819,1582558685.643339,11,0.6387488,0,0,10.91,0,0,1582558765.788069,106460.811131,0,2.549835,99.33411
1582559373.406213,40,0,1582559372.998363,41.20620008737534,29.07338136318349,177.4473,0.06816529,224.6674204448456,3,16.00241654736175,-9999,106463.242095625,0.966064453125,0.1312713623046875,-0.093780517578125,106463.236083625,1.50486673267711,1.487457002331295,-0.1246098955961856,-0.009301578626036644,0.05895397067070007,0.003254048991948366,-0.02563965320587158,0.006094127893447876,-0.01502370834350586,2,0.4952532107609159,-0.4619800187578061,-0.4712098823837256,-0.5650309293039477,0.988802433013916,0.1242876648902893,-0.08259744197130203,42.67317962646484,17.87466430664062,-17.92974853515625,2,106462.532744375,2,0,1582559372.704819,1582558685.643339,11,0.6387488,0,0,10.91,0,0,1582558765.788069,106460.811131,0,2.549835,99.33411
1582559373.41602,41,0,1582559372.998363,41.20620008737534,29.07338136318349,177.4473,0.06816529,224.6674204448456,3,16.00241654736175,-9999,106463.252135625,0.9691162109375,0.1331329345703125,-0.091339111328125,106463.246123625,1.504960190212386,1.488037227965448,-0.1246071668949973,-0.009792376309633255,0.05949436500668526,0.0006399000994861126,-0.02284979820251465,0.007286965847015381,-0.01169168949127197,2,0.4954108280317017,-0.4621214708992691,-0.471093266793314,-0.5648741920632903,0.9888504147529602,0.124284952878952,-0.08202371746301651,42.67317962646484,17.87466430664062,-17.92974853515625,2,106462.532744375,2,0,1582559372.704819,1582558685.643339,11,0.6387488,0,0,10.91,0,0,1582558765.788069,106460.811131,0,2.549835,99.33411
1582559373.426042,42,0,1582559372.998363,41.20620008737534,29.07338136318349,177.4473,0.06816529,224.6674204448456,3,16.00241654736175,-9999,106463.262175625,0.9699249267578125,0.132781982421875,-0.0903472900390625,106463.256163625,1.50501144318595,1.488564845132579,-0.1245833968065662,-0.003915312699973583,0.05376697704195976,0.003769646864384413,-0.01976794004440308,0.008867055177688599,-0.009878873825073242,2,0.4955408748993592,-0.462264134692413,-0.4709832983945921,-0.5647351933873437,0.9888966083526611,0.1242613717913628,-0.08150222152471542,42.87424468994141,17.81563568115234,-18.11737060546875,2,106462.532744375,2,0,1582559372.704819,1582558685.643339,11,0.6387488,0,0,10.91,0,0,1582558765.788069,106460.811131,0,2.549835,99.33411
1582559373.436267,43,0,1582559372.998363,41.20620008737534,29.07338136318349,177.4473,0.06816529,224.6674204448456,3,16.00241654736175,-9999,106463.272215625,0.96661376953125,0.1305999755859375,-0.0949859619140625,106463.266203625,1.505046449664856,1.489052933886185,-0.124550657406258,-0.004215693101286888,0.04627087339758873,0.004250700119882822,-0.01978123188018799,0.008060246706008911,-0.0103309154510498,2,0.4956555974796648,-0.4624019802081327,-0.4708808250187134,-0.5646070969922014,0.9889402985572815,0.1242288872599602,-0.08101987838745117,42.75276947021484,17.97740173339844,-18.16064453125,2,106462.532744375,2,0,1582559372.704819,1582558685.643339,11,0.6387488,0,0,10.91,0,0,1582558765.788069,106460.811131,0,2.549835,99.33411
1582559373.446183,44,0,1582559372.998363,41.20620008737534,29.07338136318349,177.4473,0.06816529,224.6674204448456,3,16.00241654736175,-9999,106463.282256625,0.9635467529296875,0.1291961669921875,-0.097991943359375,106463.276244625,1.505085337145514,1.489659527296608,-0.1245133055909192,-0.004020749591290951,0.05957150086760521,0.005538871046155691,-0.02395474910736084,0.005976349115371704,-0.01592063903808594,2,0.4957979454066636,-0.4625734810898451,-0.4707512317527288,-0.5644495895604291,0.9889938235282898,0.1241918206214905,-0.08042034506797791,42.75276947021484,17.97740173339844,-18.16064453125,2,106462.532744375,2,0,1582559372.704819,1582558685.643339,11,0.6387488,0,0,10.91,0,0,1582558765.788069,106460.811131,0,2.549835,99.33411
1582559373.45622,45,0,1582559372.998363,41.20620008737534,29.07338136318349,177.4473,0.06816529,224.6674204448456,3,16.00241654736175,-9999,106463.292296625,0.9664764404296875,0.128814697265625,-0.0969390869140625,106463.286284625,1.505128959125799,1.490437146876797,-0.1244963068120937,-0.003173181554302573,0.07965861260890961,0.002432810142636299,-0.02653682231903076,0.004909873008728027,-0.01900899410247803,2,0.4959866874884733,-0.4627866524626376,-0.4705752350496554,-0.5642559004356449,0.9890583157539368,0.124174952507019,-0.07965143769979477,42.85491180419922,17.99537658691406,-18.06072998046875,2,106462.532744375,2,0,1582559372.704819,1582558685.643339,11,0.6387488,0,0,10.91,0,0,1582558765.788069,106460.811131,0,2.549835,99.33411
1582559373.466879,46,0,1582559372.998363,41.20620008737534,29.07338136318349,177.4473,0.06816529,224.6674204448456,3,16.00241654736175,-9999,106463.302367625,0.97637939453125,0.130401611328125,-0.089263916015625,106463.296324625,1.505166723768105,1.491258935799495,-0.1245033303428638,-0.001788071356713772,0.08497188240289688,-0.001309730112552643,-0.02098602056503296,0.004689306020736694,-0.01748800277709961,2,0.496190533316513,-0.463007216564093,-0.4703801933449134,-0.5640582942065312,0.9891225099563599,0.1241819262504578,-0.0788385421037674,42.85491180419922,17.99537658691406,-18.06072998046875,2,106462.532744375,2,0,1582559372.704819,1582558685.643339,11,0.6387488,0,0,10.91,0,0,1582558765.788069,106460.811131,0,2.549835,99.33411
1582559373.476295,47,0,1582559372.998363,41.20620008737534,29.07338136318349,177.4473,0.06816529,224.6674204448456,3,16.00241654736175,-9999,106463.312407625,0.9840087890625,0.132354736328125,-0.0823211669921875,106463.306365625,1.505208167974763,1.491950794385309,-0.1245220117531636,-0.003849022788926959,0.07259761542081833,-0.0002123210579156876,-0.01191341876983643,0.006684839725494385,-0.01058948040008545,2,0.4963675904311759,-0.4631870210285489,-0.4702152543920419,-0.5638922413318841,0.9891743659973145,0.1242004632949829,-0.07815399765968323,42.76677703857422,17.9400634765625,-18.01116943359375,2,106462.532744375,2,0,1582559372.704819,1582558685.643339,11,0.6387488,0,0,10.91,0,0,1582558765.788069,106460.811131,0,2.549835,99.33411
1582559373.486414,48,0,1582559372.998363,41.20620008737534,29.07338136318349,177.4473,0.06816529,224.6674204448456,3,16.00241654736175,-9999,106463.322447625,0.9856109619140625,0.1336822509765625,-0.075592041015625,106463.316405625,1.505237064635643,1.492340335123673,-0.1245481479699724,-0.003633040236309171,0.04029692709445953,-0.001588642597198486,-0.004570484161376953,0.008383184671401978,-0.003162562847137451,2,0.4964724111325503,-0.4632827749173265,-0.4701198994238011,-0.5638010135988033,0.9892017245292664,0.1242263913154602,-0.07776843011379242,42.76677703857422,17.9400634765625,-18.01116943359375,2,106462.532744375,2,0,1582559372.704819,1582558685.643339,11,0.6387488,0,0,10.91,0,0,1582558765.788069,106460.811131,0,2.549835,99.33411
1582559373.49635,49,0,1582559372.998363,41.20620008737534,29.07338136318349,177.4473,0.06816529,224.6674204448456,3,16.00241654736175,-9999,106463.332488625,0.9674530029296875,0.13494873046875,-0.0831298828125,106463.326445625,1.505239245816775,1.492442429121872,-0.1245407420874744,-1.162730040960014e-05,0.008016958832740784,0.001405645161867142,-0.006212115287780762,0.01011475920677185,0.001619040966033936,2,0.4964950882116272,-0.4633129383280554,-0.4700970727216444,-0.5637751218892869,0.9892103672027588,0.1242190450429916,-0.07766749709844589,42.88956451416016,17.72698974609375,-17.7899169921875,2,106462.532744375,2,0,1582559372.704819,1582558685.643339,11,0.6387488,0,0,10.91,0,0,1582558765.788069,106460.811131,0,2.549835,99.33411
1582559373.507109,50,0,1582559372.998363,41.20620008737534,29.07338136318349,177.4473,0.06816529,224.6674204448456,3,16.00241654736175,-9999,106463.342528625,0.9502410888671875,0.1311187744140625,-0.095428466796875,106463.336485625,1.50521070209996,1.492627492350213,-0.1244645003160448,0.00461827777326107,0.02008214592933655,0.008697647601366043,-0.02692687511444092,0.01041930913925171,-0.009214043617248535,2,0.4965126693562664,-0.4633924717475297,-0.4700631412415363,-0.5637226100574264,0.9892342090606689,0.1241433918476105,-0.07748517394065857,42.88956451416016,17.72698974609375,-17.7899169921875,2,106462.532744375,2,0,1582559372.704819,1582558685.643339,11,0.6387488,0,0,10.91,0,0,1582558765.788069,106460.811131,0,2.549835,99.33411
1582559373.516604,51,0,1582559372.998363,41.20620008737534,29.07338136318349,177.4473,0.06816529,224.6674204448456,3,16.00241654736175,-9999,106463.352568625,0.9467315673828125,0.1318206787109375,-0.0976715087890625,106463.346526625,1.50520806512685,1.493066493505124,-0.1242912764742229,0.0005618218565359712,0.04575711116194725,0.01804951205849648,-0.04144775867462158,0.006471455097198486,-0.02016007900238037,2,0.496571365085919,-0.4635629340260678,-0.4699989914990322,-0.563584381455481,0.9892897605895996,0.1239715069532394,-0.07705257087945938,42.90856170654297,17.93684387207031,-17.76861572265625,2,106462.532744375,2,0,1582559372.704819,1582558685.643339,11,0.6387488,0,0,10.91,0,0,1582558765.788069,106460.811131,0,2.549835,99.33411
1582559373.526478,52,0,1582559372.998363,41.20620008737534,29.07338136318349,177.4473,0.06816529,224.6674204448456,3,16.00241654736175,-9999,106463.362609625,0.9528350830078125,0.13226318359375,-0.0941314697265625,106463.356566625,1.505221372871371,1.493742867275863,-0.1240276550546016,0.0003927111101802438,0.06916975975036621,0.02665392123162746,-0.04197472333908081,0.008579492568969727,-0.02113258838653564,2,0.4966667667560479,-0.463820184266143,-0.469904056091911,-0.563367558933451,0.9893739223480225,0.1237099170684814,-0.07638591527938843,42.90856170654297,17.93684387207031,-17.76861572265625,2,106462.532744375,2,0,1582559372.704819,1582558685.643339,11,0.6387488,0,0,10.91,0,0,1582558765.788069,106460.811131,0,2.549835,99.33411
1582559373.536718,53,0,1582559372.998363,41.20620008737534,29.07338136318349,177.4473,0.06816529,224.6674204448456,3,16.00241654736175,-9999,106463.372649625,0.955474853515625,0.130340576171875,-0.0928955078125,106463.366606625,1.505230782854678,1.494648051919028,-0.1237138906341191,0.003122960915789008,0.09205448627471924,0.0316610224545002,-0.03625315427780151,0.008295893669128418,-0.018638014793396,2,0.4968022344406495,-0.4641561179084083,-0.4697644362028813,-0.5630878760259879,0.9894813895225525,0.123398557305336,-0.07549327611923218,43.02965545654297,17.92887115478516,-17.76708984375,2,106462.532744375,2,0,1582559372.704819,1582558685.643339,11,0.6387488,0,0,10.91,0,0,1582558765.788069,106460.811131,0,2.549835,99.33411
1582559373.546513,54,0,1582559372.998363,41.20620008737534,29.07338136318349,177.4473,0.06816529,224.6674204448456,3,16.00241654736175,-9999,106463.382689625,0.95977783203125,0.130889892578125,-0.089080810546875,106463.376647625,1.505215484012407,1.495747455500455,-0.1233709162838726,0.0057304622605443,0.1137981340289116,0.03376704826951027,-0.0340125560760498,0.007095247507095337,-0.01929605007171631,2,0.4969702061826685,-0.4645603723791886,-0.4695771983400948,-0.562762218825108,0.9896057844161987,0.1230581924319267,-0.07440854609012604,43.02965545654297,17.92887115478516,-17.76708984375,2,106462.532744375,2,0,1582559372.704819,1582558685.643339,11,0.6387488,0,0,10.91,0,0,1582558765.788069,106460.811131,0,2.549835,99.33411
1582559373.556636,55,0,1582559372.998363,41.20620008737534,29.07338136318349,177.4473,0.06816529,224.6674204448456,3,16.00241654736175,-9999,106463.392729625,0.9641876220703125,0.1302947998046875,-0.0821075439453125,106463.386687625,1.505178282702609,1.496885923059721,-0.123002847403296,0.006580471992492676,0.116347000002861,0.03765437752008438,-0.02974724769592285,0.00819319486618042,-0.01422464847564697,2,0.4971357364539183,-0.4649875773616592,-0.4693807410819464,-0.5624272228101407,0.9897352457046509,0.1226929128170013,-0.07328522205352783,43.06998443603516,17.96293640136719,-17.67889404296875,2,106462.532744375,2,0,1582559372.704819,1582558685.643339,11,0.6387488,0,0,10.91,0,0,1582558765.788069,106460.811131,0,2.549835,99.33411
1582559373.567934,56,0,1582559372.998363,41.20620008737534,29.07338136318349,177.4473,0.06816529,224.6674204448456,3,16.00241654736175,-9999,106463.402770625,0.9656982421875,0.133636474609375,-0.0784149169921875,106463.396758625,1.50510692557972,1.497895020791866,-0.1225905924824922,0.00699352752417326,0.1053446829319,0.04146455973386765,-0.02582734823226929,0.007992297410964966,-0.0101999044418335,2,0.4972517800036644,-0.4653983266944745,-0.4692183886280881,-0.5621203318125243,0.9898591041564941,0.1222837641835213,-0.07229012995958328,43.06998443603516,17.96293640136719,-17.67889404296875,2,106462.532744375,2,0,1582559372.704819,1582558685.643339,11,0.6387488,0,0,10.91,0,0,1582558765.788069,106460.811131,0,2.549835,99.33411
1582559373.577165,57,0,1582559372.998363,41.20620008737534,29.07338136318349,177.4473,0.06816529,224.6674204448456,3,16.00241654736175,-9999,106463.412810625,0.9499969482421875,0.126678466796875,-0.096466064453125,106463.406798625,1.505037106037734,1.498971810093003,-0.1221156798567225,0.004439078271389008,0.1027825251221657,0.04887045174837112,-0.0257488489151001,0.01099681854248047,-0.008485198020935059,2,0.4973682110128984,-0.4658440484641622,-0.4690560922128219,-0.561783371519517,0.9899940490722656,0.1218124032020569,-0.07122837007045746,43.05406951904297,17.85588073730469,-17.55926513671875,2,106462.532744375,2,0,1582559372.704819,1582558685.643339,11,0.6387488,0,0,10.91,0,0,1582558765.788069,106460.811131,0,2.549835,99.33411
1582559373.58685,58,0,1582559372.998363,41.20620008737534,29.07338136318349,177.4473,0.06816529,224.6674204448456,3,16.00241654736175,-9999,106463.422850625,0.9686279296875,0.1271514892578125,-0.0810546875,106463.416838625,1.504956969006618,1.500319230340946,-0.1216545566013005,0.01050762366503477,0.1404196470975876,0.04431964084506035,-0.04105186462402344,0.004420459270477295,-0.02859950065612793,2,0.4975490585283303,-0.4663644235204165,-0.4688199656737488,-0.5613884673676056,0.9901450872421265,0.1213546991348267,-0.06989831477403641,43.05406951904297,17.85588073730469,-17.55926513671875,2,106462.532744375,2,0,1582559372.704819,1582558685.643339,11,0.6387488,0,0,10.91,0,0,1582558765.788069,106460.811131,0,2.549835,99.33411
1582559373.596816,59,0,1582559372.998363,41.20620008737534,29.07338136318349,177.4473,0.06816529,224.6674204448456,3,16.00241654736175,-9999,106463.432890625,0.9844512939453125,0.1283721923828125,-0.0705718994140625,106463.426879625,1.504909798656089,1.501407155201876,-0.1211631031546065,0.007354652509093285,0.1127163022756577,0.04908226802945137,-0.01716923713684082,0.006831198930740356,-0.007959961891174316,2,0.4976690628655618,-0.4668114277425156,-0.4686655685198142,-0.5610392456832463,0.9902797937393188,0.1208668649196625,-0.06882519274950027,43.00135040283203,17.77743530273438,-17.59625244140625,2,106462.532744375,2,0,1582559372.704819,1582558685.643339,11,0.6387488,0,0,10.91,0,0,1582558765.788069,106460.811131,0,2.549835,99.33411
1582559373.606952,60,0,1582559372.998363,41.20620008737534,29.07338136318349,177.4473,0.06816529,224.6674204448456,3,16.00241654736175,-9999,106463.442931625,0.990234375,0.12652587890625,-0.06787109375,106463.436919625,1.504880419889401,1.502141327726059,-0.1206995925614391,0.005454220809042454,0.07365253567695618,0.04646517708897591,-0.004885315895080566,0.007810354232788086,-0.002503693103790283,2,0.497717276743311,-0.4671472189784123,-0.4685968729871878,-0.5607743769735176,0.990385890007019,0.1204067394137383,-0.06810197979211807,43.00135040283203,17.77743530273438,-17.59625244140625,2,106462.532744375,2,0,1582559372.704819,1582558685.643339,11,0.6387488,0,0,10.91,0,0,1582558765.788069,106460.811131,0,2.549835,99.33411
1582559373.617094,61,0,1582559372.998363,41.20620008737534,29.07338136318349,177.4473,0.06816529,224.6674204448456,3,16.00241654736175,-9999,106463.452971625,0.991241455078125,0.1251220703125,-0.06463623046875,106463.446959625,1.504841355317307,1.502524257937316,-0.1202942867921893,0.006244760937988758,0.0447358638048172,0.04124795645475388,-0.0006875991821289062,0.005939364433288574,-0.0003163814544677734,2,0.4976956231824304,-0.4673714185940609,-0.4685975133805919,-0.5606062377624271,0.9904605150222778,0.1200043708086014,-0.06772604584693909,43.21553802490234,17.69922637939453,-17.3123779296875,2,106462.532744375,2,0,1582559372.704819,1582558685.643339,11,0.6387488,0,0,10.91,0,0,1582558765.788069,106460.811131,0,2.549835,99.33411
1582559373.627444,62,0,1582559372.998363,41.20620008737534,29.07338136318349,177.4473,0.06816529,224.6674204448456,3,16.00241654736175,-9999,106463.463011625,0.993011474609375,0.1261138916015625,-0.0635223388671875,106463.456999625,1.504767223324197,1.502464934489388,-0.1199612970064788,0.009582234546542168,-0.004152053967118263,0.03449577838182449,0.0008635520935058594,0.005552977323532104,0.00357520580291748,2,0.4975803614574956,-0.4674612453902592,-0.468679324457795,-0.5605653550096282,0.9904963970184326,0.1196737810969353,-0.0677875354886055,43.21553802490234,17.69922637939453,-17.3123779296875,2,106462.532744375,2,0,1582559372.704819,1582558685.643339,11,0.6387488,0,0,10.91,0,0,1582558765.788069,106460.811131,0,2.549835,99.33411
1582559373.637006,63,0,1582559372.998363,41.20620008737534,29.07338136318349,177.4473,0.06816529,224.6674204448456,3,16.00241654736175,-9999,106463.473052625,0.9855804443359375,0.1263427734375,-0.069488525390625,106463.467040625,1.504664038364922,1.502103422435013,-0.1196981159884409,0.01136151514947414,-0.03398202732205391,0.02755797281861305,0.001375555992126465,0.006775617599487305,0.003142118453979492,2,0.4974051310775943,-0.4674550847691873,-0.4688096795247999,-0.5606168803912142,0.9905031323432922,0.1194124892354012,-0.06814775615930557,43.18025970458984,17.76924133300781,-17.31146240234375,2,106462.532744375,2,0,1582559372.704819,1582558685.643339,11,0.6387488,0,0,10.91,0,0,1582558765.788069,106460.811131,0,2.549835,99.33411
1582559373.646919,64,0,1582559372.998363,41.20620008737534,29.07338136318349,177.4473,0.06816529,224.6674204448456,3,16.00241654736175,-9999,106463.483092625,0.9747314453125,0.1237030029296875,-0.0777130126953125,106463.477080625,1.504518994237074,1.501658722122357,-0.1195085744056937,0.01532989181578159,-0.04040849953889847,0.01894131302833557,-0.008092403411865234,0.006735116243362427,-0.003282070159912109,2,0.497219094258603,-0.4674165943516753,-0.4689295833904489,-0.5607138235802313,0.9904953837394714,0.1192243024706841,-0.06858979910612106,43.18025970458984,17.76924133300781,-17.31146240234375,2,106462.532744375,2,0,1582559372.704819,1582558685.643339,11,0.6387488,0,0,10.91,0,0,1582558765.788069,106460.811131,0,2.549835,99.33411
1582559373.657011,65,0,1582559372.998363,41.20620008737534,29.07338136318349,177.4473,0.06816529,224.6674204448456,3,16.00241654736175,-9999,106463.493132625,0.980438232421875,0.12237548828125,-0.072998046875,106463.487120625,1.504337382927264,1.501158041921275,-0.1194101151978828,0.01914589293301105,-0.04562526941299438,0.009494107216596603,-0.01615685224533081,0.003750622272491455,-0.009194016456604004,2,0.497034426042516,-0.4673473235733175,-0.4690290157725589,-0.5608519500425752,0.9904724359512329,0.1191265434026718,-0.06908651441335678,43.29224395751953,17.73365020751953,-17.4495849609375,2,106462.532744375,2,0,1582559372.704819,1582558685.643339,11,0.6387488,0,0,10.91,0,0,1582558765.788069,106460.811131,0,2.549835,99.33411
1582559373.667389,66,0,1582559372.998363,41.20620008737534,29.07338136318349,177.4473,0.06816529,224.6674204448456,3,16.00241654736175,-9999,106463.503172625,0.98016357421875,0.12677001953125,-0.068328857421875,106463.497161625,1.504090258551739,1.500444341941454,-0.1194137305437709,0.02439498342573643,-0.06519363820552826,-0.00195615366101265,-0.009759306907653809,0.003899633884429932,-0.002154350280761719,2,0.4968101853287664,-0.4672076112186816,-0.4691360985228763,-0.5610775117821419,0.9904225468635559,0.1191301345825195,-0.06979337334632874,43.29224395751953,17.73365020751953,-17.4495849609375,2,106462.532744375,2,0,1582559372.704819,1582558685.643339,11,0.6387488,0,0,10.91,0,0,1582558765.788069,106460.811131,0,2.549835,99.33411
1582559373.677094,67,0,1582559372.998363,41.20620008737534,29.07338136318349,177.4473,0.06816529,224.6674204448456,3,16.00241654736175,-9999,106463.513213625,0.98333740234375,0.1227569580078125,-0.07421875,106463.507201625,1.503765230456042,1.49953605400635,-0.1195143461392807,0.03297348693013191,-0.08571299165487289,-0.01182813476771116,-0.01047712564468384,0.007477045059204102,0.001567363739013672,2,0.4965466449247208,-0.4670068418116358,-0.4692439405303692,-0.5613876349325304,0.9903467297554016,0.1192300319671631,-0.07069207727909088,43.01076507568359,17.71156311035156,-17.62359619140625,2,106462.532744375,2,0,1582559372.704819,1582558685.643339,11,0.6387488,0,0,10.91,0,0,1582558765.788069,106460.811131,0,2.549835,99.33411
1582559373.68831,68,0,1582559372.998363,41.20620008737534,29.07338136318349,177.4473,0.06816529,224.6674204448456,3,16.00241654736175,-9999,106463.523253625,0.9425506591796875,0.1242218017578125,-0.09429931640625,106463.517241625,1.503388103711419,1.498604474331147,-0.1196988964430984,0.03604677692055702,-0.09721918404102325,-0.02229728735983372,-0.009045958518981934,0.002944886684417725,-0.004697799682617188,2,0.4962866733533177,-0.4667901142730388,-0.4693207075194126,-0.5617335977159542,0.9902586340904236,0.1194132640957832,-0.07161305099725723,43.01076507568359,17.71156311035156,-17.62359619140625,2,106462.532744375,2,0,1582559372.704819,1582558685.643339,11,0.6387488,0,0,10.91,0,0,1582558765.788069,106460.811131,0,2.549835,99.33411
1582559373.697121,69,0,1582559372.998363,41.20620008737534,29.07338136318349,177.4473,0.06816529,224.6674204448456,3,16.00241654736175,-9999,106463.533293625,0.9061126708984375,0.1056060791015625,-0.1562957763671875,106463.527281625,1.502908480500373,1.49920769251174,-0.1199775953139885,0.0541389137506485,0.06725957244634628,-0.02929537184536457,-0.06563544273376465,0.003644615411758423,-0.03589200973510742,2,0.4963867710227696,-0.4670048419060608,-0.4689628425377915,-0.5617653738256992,0.9902682304382324,0.1196899637579918,-0.07101330161094666,42.96074676513672,17.66578674316406,-17.52166748046875,2,106462.532744375,2,0,1582559372.704819,1582558685.643339,11,0.6387488,0,0,10.91,0,0,1582558765.788069,106460.811131,0,2.549835,99.33411
1582559373.707224,70,0,1582559372.998363,41.20620008737534,29.07338136318349,177.4473,0.06816529,224.6674204448456,3,16.00241654736175,-9999,106463.543364625,1.017929077148438,0.119232177734375,-0.057373046875,106463.537322625,1.502521781701734,1.500511099604678,-0.1205312673134356,0.03574419394135475,0.1428550034761429,-0.06073558703064919,-0.06657630205154419,-0.01712322235107422,-0.07986670732498169,2,0.4967418590411702,-0.46732065199593,-0.4683847185987166,-0.5616713501704989,0.9902938604354858,0.1202396377921104,-0.06971786916255951,42.96074676513672,17.66578674316406,-17.52166748046875,2,106462.532744375,2,0,1582559372.704819,1582558685.643339,11,0.6387488,0,0,10.91,0,0,1582558765.788069,106460.811131,0,2.549835,99.33411
1582559373.717512,71,0,1582559372.998363,41.20620008737534,29.07338136318349,177.4473,0.06816529,224.6674204448456,3,16.00241654736175,-9999,106463.553404625,0.939971923828125,0.1390838623046875,-0.0797882080078125,106463.547362625,1.502072605195236,1.501147208252921,-0.1211219534797295,0.04204682260751724,0.05444080755114555,-0.06496255844831467,0.03121358156204224,0.005422413349151611,0.02489030361175537,2,0.4969351439737259,-0.4674547972897341,-0.4679446518089638,-0.5617553601231762,0.990266740322113,0.1208260133862495,-0.06908295303583145,43.10823822021484,17.67086029052734,-17.67254638671875,2,106462.532744375,2,0,1582559372.704819,1582558685.643339,11,0.6387488,0,0,10.91,0,0,1582558765.788069,106460.811131,0,2.549835,99.33411
1582559373.727338,72,0,1582559372.998363,41.20620008737534,29.07338136318349,177.4473,0.06816529,224.6674204448456,3,16.00241654736175,-9999,106463.563445625,0.8598785400390625,0.12945556640625,-0.1463775634765625,106463.557402625,1.501597313972586,1.503043492973036,-0.1214756477833944,0.04524980485439301,0.1906545758247375,-0.03813067823648453,-0.07779026031494141,0.01671358942985535,-0.03216731548309326,2,0.497356666740582,-0.4680120658210793,-0.4672464179063908,-0.5614994954479039,0.9903533458709717,0.121177114546299,-0.06720210611820221,43.10823822021484,17.67086029052734,-17.67254638671875,2,106462.532744375,2,0,1582559372.704819,1582558685.643339,11,0.6387488,0,0,10.91,0,0,1582558765.788069,106460.811131,0,2.549835,99.33411
1582559373.737485,73,0,1582559372.998363,41.20620008737534,29.07338136318349,177.4473,0.06816529,224.6674204448456,3,16.00241654736175,-9999,106463.573485625,0.9082183837890625,0.1174774169921875,-0.12353515625,106463.567442625,1.501211715812074,1.506612609713451,-0.1216331296549988,0.03697213903069496,0.3725736737251282,-0.01662431098520756,-0.1295489072799683,0.005540370941162109,-0.08493012189865112,2,0.4981389167133187,-0.4690679354203335,-0.4662083537070786,-0.560787556746875,0.9905679821968079,0.121333435177803,-0.06366578489542007,42.94223785400391,17.70079803466797,-17.39788818359375,2,106462.532744375,2,0,1582559372.704819,1582558685.643339,11,0.6387488,0,0,10.91,0,0,1582558765.788069,106460.811131,0,2.549835,99.33411
1582559373.749251,74,0,1582559372.998363,41.20620008737534,29.07338136318349,177.4473,0.06816529,224.6674204448456,3,16.00241654736175,-9999,106463.583525625,0.9807586669921875,0.1218109130859375,-0.0782318115234375,106463.577483625,1.500985195163179,1.510724071967934,-0.1217950951484708,0.02046080678701401,0.4194974899291992,-0.01803019270300865,-0.06722176074981689,-0.005118519067764282,-0.05462861061096191,2,0.4990837293683688,-0.4702337009519241,-0.4650769556072242,-0.5599099736748498,0.9908017516136169,0.1214941963553429,-0.059591393917799,42.94223785400391,17.70079803466797,-17.39788818359375,2,106462.532744375,2,0,1582559372.704819,1582558685.643339,11,0.6387488,0,0,10.91,0,0,1582558765.788069,106460.811131,0,2.549835,99.33411
1582559373.757519,75,0,1582559372.998363,41.20620008737534,29.07338136318349,177.4473,0.06816529,224.6674204448456,3,16.00241654736175,-9999,106463.593566625,1.03167724609375,0.1308135986328125,-0.0384368896484375,106463.587523625,1.50082684578358,1.514318917650319,-0.1220938358705928,0.01403752993792295,0.3657671511173248,-0.03208928927779198,0.00282752513885498,0.003053456544876099,-0.01440197229385376,2,0.4999565427915555,-0.4712004476283915,-0.4640554631971476,-0.5591656052047127,0.9909732937812805,0.1217907220125198,-0.05602718517184258,43.22080230712891,17.75995635986328,-17.03460693359375,2,106462.532744375,2,0,1582559372.704819,1582558685.643339,11,0.6387488,0,0,10.91,0,0,1582558765.788069,106460.811131,0,2.549835,99.33411
1582559373.767731,76,0,1582559372.998363,41.20620008737534,29.07338136318349,177.4473,0.06816529,224.6674204448456,3,16.00241654736175,-9999,106463.603606625,1.00445556640625,0.1257171630859375,-0.04766845703125,106463.597563625,1.500708323840692,1.5170003353045,-0.1225549974884769,0.007655531167984009,0.2614359557628632,-0.04603812843561172,0.04041099548339844,0.007691890001296997,0.01819920539855957,2,0.5006658782251897,-0.4718583518530044,-0.4632288760125567,-0.5586612645484232,0.9910637736320496,0.1222484409809113,-0.05336674675345421,43.22080230712891,17.75995635986328,-17.03460693359375,2,106462.532744375,2,0,1582559372.704819,1582558685.643339,11,0.6387488,0,0,10.91,0,0,1582558765.788069,106460.811131,0,2.549835,99.33411
1582559373.777556,77,0,1582559372.998363,41.20620008737534,29.07338136318349,177.4473,0.06816529,224.6674204448456,3,16.00241654736175,-9999,106463.613646625,0.9681243896484375,0.1268463134765625,-0.0782318115234375,106463.607604625,1.500604264308375,1.519702933080543,-0.1231600779901015,0.007041536271572113,0.2760472297668457,-0.06032562628388405,0.003036558628082275,0.002940624952316284,-0.005251765251159668,2,0.5014181856123903,-0.4724803071150668,-0.4623615497563994,-0.5581792076690032,0.9911303520202637,0.1228489577770233,-0.05068432539701462,43.51067352294922,17.8658447265625,-16.818115234375,2,106462.532744375,2,0,1582559372.704819,1582558685.643339,11,0.6387488,0,0,10.91,0,0,1582558765.788069,106460.811131,0,2.549835,99.33411
1582559373.787565,78,0,1582559372.998363,41.20620008737534,29.07338136318349,177.4473,0.06816529,224.6674204448456,3,16.00241654736175,-9999,106463.623686625,0.979339599609375,0.1243743896484375,-0.0644073486328125,106463.617644625,1.500547604355843,1.522626250142095,-0.1238235664634908,0.001715746591798961,0.3034490346908569,-0.06783520430326462,-0.02456796169281006,0.002587050199508667,-0.03144001960754395,2,0.5022457917633262,-0.4731361032366244,-0.4614351409670434,-0.5576459284903177,0.9911925792694092,0.1235073953866959,-0.0477827861905098,43.51067352294922,17.8658447265625,-16.818115234375,2,106462.532744375,2,0,1582559372.704819,1582558685.643339,11,0.6387488,0,0,10.91,0,0,1582558765.788069,106460.811131,0,2.549835,99.33411
1582559373.797588,79,0,1582559372.998363,41.20620008737534,29.07338136318349,177.4473,0.06816529,224.6674204448456,3,16.00241654736175,-9999,106463.633727625,1.007369995117188,0.12603759765625,-0.03582763671875,106463.627684625,1.500607285005174,1.525292837523039,-0.1245058015093063,-0.00920460931956768,0.2714998424053192,-0.06900114566087723,-0.007441282272338867,3.290176391601562e-05,-0.01446568965911865,2,0.5030448261193814,-0.4736856217352151,-0.4605992099107417,-0.5571499722495847,0.9912319779396057,0.1241843774914742,-0.04513566941022873,43.52663421630859,17.86196899414062,-16.55853271484375,2,106462.532744375,2,0,1582559372.704819,1582558685.643339,11,0.6387488,0,0,10.91,0,0,1582558765.788069,106460.811131,0,2.549835,99.33411
1582559373.813431,80,0,1582559372.998363,41.20620008737534,29.07338136318349,177.4473,0.06816529,224.6674204448456,3,16.00241654736175,-9999,106463.643767625,1.012741088867188,0.1329345703125,-0.0250701904296875,106463.637755625,1.50074207334952,1.526961679551442,-0.1251550854770569,-0.01722072437405586,0.1644538342952728,-0.06087984144687653,0.02019912004470825,0.002546876668930054,0.0122111439704895,2,0.5036225874544313,-0.4739465798418566,-0.460042991633284,-0.5568656234210635,0.9912251830101013,0.1248286068439484,-0.0434778593480587,43.52663421630859,17.86196899414062,-16.55853271484375,2,106462.532744375,2,0,1582559372.704819,1582558685.643339,11,0.6387488,0,0,10.91,0,0,1582558765.788069,106460.811131,0,2.549835,99.33411
1582559373.817976,81,0,1582559372.998363,41.20620008737534,29.07338136318349,177.4473,0.06816529,224.6674204448456,3,16.00241654736175,-9999,106463.653807625,1.012039184570312,0.13079833984375,-0.0289459228515625,106463.647795625,1.500875536501862,1.527852674252414,-0.1257830927641405,-0.01762302219867706,0.09976928681135178,-0.05895108357071877,0.01906436681747437,0.007798105478286743,0.01539826393127441,2,0.5040153439306809,-0.4739967159997301,-0.459687490380658,-0.556761223942598,0.9911850690841675,0.1254516839981079,-0.04259129241108894,43.67327117919922,18.03471374511719,-16.44140625,2,106462.532744375,2,0,1582559372.704819,1582558685.643339,11,0.6387488,0,0,10.91,0,0,1582558765.788069,106460.811131,0,2.549835,99.33411
1582559373.828181,82,0,1582559372.998363,41.20620008737534,29.07338136318349,177.4473,0.06816529,224.6674204448456,3,16.00241654736175,-9999,106463.663848625,1.005599975585938,0.13555908203125,-0.026458740234375,106463.657836625,1.500961251067634,1.527992376418048,-0.1263989050062493,-0.01216274220496416,0.0139507818967104,-0.05925894528627396,0.02180600166320801,0.004699617624282837,0.01488995552062988,2,0.5042209337534088,-0.4738528243996541,-0.4595110742688342,-0.5568430467736907,0.9911134839057922,0.1260626018047333,-0.04244950041174889,43.67327117919922,18.03471374511719,-16.44140625,2,106462.532744375,2,0,1582559372.704819,1582558685.643339,11,0.6387488,0,0,10.91,0,0,1582558765.788069,106460.811131,0,2.549835,99.33411
1582559373.838037,83,0,1582559372.998363,41.20620008737534,29.07338136318349,177.4473,0.06816529,224.6674204448456,3,16.00241654736175,-9999,106463.673888625,0.9742279052734375,0.1296844482421875,-0.0566864013671875,106463.667876625,1.500982522905888,1.527955456559327,-0.1270864824328777,-0.004513640888035297,-0.003366002812981606,-0.06714519858360291,0.007581591606140137,0.009357810020446777,0.01112329959869385,2,0.504388389983111,-0.4736572229458737,-0.4593420114931241,-0.5569973434727983,0.9910252094268799,0.1267446577548981,-0.04248237609863281,43.67375946044922,18.09965515136719,-16.61590576171875,2,106462.532744375,2,0,1582559372.704819,1582558685.643339,11,0.6387488,0,0,10.91,0,0,1582558765.788069,106460.811131,0,2.549835,99.33411
1582559373.847912,84,0,1582559372.998363,41.20620008737534,29.07338136318349,177.4473,0.06816529,224.6674204448456,3,16.00241654736175,-9999,106463.683928625,0.9712371826171875,0.125701904296875,-0.0643463134765625,106463.677916625,1.500994778960535,1.528253031003901,-0.1279193447469828,-0.004494732245802879,0.03096187673509121,-0.08350419998168945,-0.02049297094345093,-9.003281593322754e-05,-0.01957190036773682,2,0.5046665767749279,-0.4735189183593895,-0.4590469888586199,-0.5571060757763868,0.9909318685531616,0.1275707632303238,-0.04218295961618423,43.67375946044922,18.09965515136719,-16.61590576171875,2,106462.532744375,2,0,1582559372.704819,1582558685.643339,11,0.6387488,0,0,10.91,0,0,1582558765.788069,106460.811131,0,2.549835,99.33411
1582559373.857941,85,0,1582559372.998363,41.20620008737534,29.07338136318349,177.4473,0.06816529,224.6674204448456,3,16.00241654736175,-9999,106463.693968625,0.98187255859375,0.1324005126953125,-0.0474700927734375,106463.687956625,1.500989714085427,1.528592218426042,-0.1288277913778118,-0.003890337655320764,0.03727871924638748,-0.09206723421812057,-0.01769030094146729,-0.001830697059631348,-0.02041661739349365,2,0.5049687356753679,-0.4733768082659406,-0.4587162654799451,-0.5572256062285965,0.99083012342453,0.1284717321395874,-0.04184194654226303,43.67200469970703,18.19613647460938,-16.5579833984375,2,106462.532744375,2,0,1582559372.704819,1582558685.643339,11,0.6387488,0,0,10.91,0,0,1582558765.788069,106460.811131,0,2.549835,99.33411
1582559373.878429,86,0,1582559372.998363,41.20620008737534,29.07338136318349,177.4473,0.06816529,224.6674204448456,3,16.00241654736175,-9999,106463.704009625,0.9772186279296875,0.1387176513671875,-0.0450286865234375,106463.697997625,1.500963045305176,1.528667267830762,-0.1297102704051123,-0.001359801972284913,0.01021514274179935,-0.08858142793178558,-0.009034872055053711,0.004083901643753052,-0.004001319408416748,2,0.5051986769303539,-0.4731732268555183,-0.4584529582883095,-0.5574066296536493,0.9907194375991821,0.1293468475341797,-0.04176278784871101,43.67200469970703,18.19613647460938,-16.5579833984375,2,106462.532744375,2,0,1582559372.704819,1582558685.643339,11,0.6387488,0,0,10.91,0,0,1582558765.788069,106460.811131,0,2.549835,99.33411
1582559373.879431,87,0,1582559372.998363,41.20620008737534,29.07338136318349,177.4473,0.06816529,224.6674204448456,3,16.00241654736175,-9999,106463.714049625,0.9746551513671875,0.1412200927734375,-0.04742431640625,106463.708037625,1.500940240618079,1.528604188029351,-0.1305232014673826,-0.0005675184656865895,-0.00551556795835495,-0.08108914643526077,-0.01528984308242798,0.009777635335922241,-0.004294276237487793,2,0.505380480766364,-0.4729483608840861,-0.4582442457449968,-0.5576042830695337,0.9906114339828491,0.1301529109477997,-0.04182083532214165,43.55602264404297,18.06372833251953,-16.2083740234375,2,106462.532744375,2,0,1582559372.704819,1582558685.643339,11,0.6387488,0,0,10.91,0,0,1582558765.788069,106460.811131,0,2.549835,99.33411
1582559373.888122,88,0,1582559372.998363,41.20620008737534,29.07338136318349,177.4473,0.06816529,224.6674204448456,3,16.00241654736175,-9999,106463.724089625,0.97589111328125,0.1392669677734375,-0.0465087890625,106463.718077625,1.500913224730375,1.528452045900127,-0.1313020388862287,0.0003062647010665387,-0.01609311066567898,-0.07793329656124115,-0.01611262559890747,0.009722232818603516,-0.005765140056610107,2,0.5055323698968343,-0.4727085779084136,-0.458065966461829,-0.5578164142266927,0.9905035495758057,0.1309250891208649,-0.0419672466814518,43.55602264404297,18.06372833251953,-16.2083740234375,2,106462.532744375,2,0,1582559372.704819,1582558685.643339,11,0.6387488,0,0,10.91,0,0,1582558765.788069,106460.811131,0,2.549835,99.33411
1582559373.898088,89,0,1582559372.998363,41.20620008737534,29.07338136318349,177.4473,0.06816529,224.6674204448456,3,16.00241654736175,-9999,106463.734129625,0.9851837158203125,0.13629150390625,-0.04803466796875,106463.728118625,1.500871872446113,1.528194569441399,-0.1320975270188592,0.001289251842536032,-0.02521267347037792,-0.07875265926122665,-0.01407486200332642,0.007300525903701782,-0.004949808120727539,2,0.5056608338073297,-0.4724385732972729,-0.4579058049116543,-0.5580602415771155,0.9903884530067444,0.1317136883735657,-0.04221783205866814,43.74970245361328,18.22064208984375,-16.42022705078125,2,106462.532744375,2,0,1582559372.704819,1582558685.643339,11,0.6387488,0,0,10.91,0,0,1582558765.788069,106460.811131,0,2.549835,99.33411
1582559373.908308,90,0,1582559372.998363,41.20620008737534,29.07338136318349,177.4473,0.06816529,224.6674204448456,3,16.00241654736175,-9999,106463.744170625,0.9946136474609375,0.134796142578125,-0.0491180419921875,106463.738158625,1.500835949519226,1.527816900932901,-0.1329759654055539,0.0003227906709071249,-0.03927815705537796,-0.08890516310930252,-0.003261804580688477,0.00270611047744751,-0.006152510643005371,2,0.5057836409847389,-0.4721117136296115,-0.4577551870148398,-0.5583490092155308,0.9902563691139221,0.132584422826767,-0.04258687794208527,43.74970245361328,18.22064208984375,-16.42022705078125,2,106462.532744375,2,0,1582559372.704819,1582558685.643339,11,0.6387488,0,0,10.91,0,0,1582558765.788069,106460.811131,0,2.549835,99.33411
1582559373.918281,91,0,1582559372.998363,41.20620008737534,29.07338136318349,177.4473,0.06816529,224.6674204448456,3,16.00241654736175,-9999,106463.754210625,0.9959259033203125,0.141204833984375,-0.0407257080078125,106463.748198625,1.500803995930813,1.527269531010231,-0.1339354350328667,-0.001432006829418242,-0.05059552937746048,-0.09606819599866867,0.004869759082794189,0.001907259225845337,-0.006180405616760254,2,0.5058886435805452,-0.4717149644280365,-0.4576267641615756,-0.5586942391637267,0.9901052117347717,0.1335353553295135,-0.04312334582209587,43.60004425048828,18.23186492919922,-16.42242431640625,2,106462.532744375,2,0,1582559372.704819,1582558685.643339,11,0.6387488,0,0,10.91,0,0,1582558765.788069,106460.811131,0,2.549835,99.33411
1582559373.941286,92,0,1582559372.998363,41.20620008737534,29.07338136318349,177.4473,0.06816529,224.6674204448456,3,16.00241654736175,-9999,106463.7642555417,0.9702301025390625,0.14892578125,-0.0410614013671875,106463.7582435417,1.500718534020621,1.526262866029527,-0.1348308446204502,0.005314579233527184,-0.1002142205834389,-0.09179249405860901,0.003599286079406738,0.008282631635665894,0.005218267440795898,2,0.5058599990701874,-0.4712200267573082,-0.4576168542399113,-0.5591459558283645,0.9899416565895081,0.1344226896762848,-0.04411469399929047,43.60004425048828,18.23186492919922,-16.42242431640625,2,106462.532744375,2,0,1582559372.704819,1582558685.643339,11,0.6387488,0,0,10.91,0,0,1582558765.788069,106460.811131,0,2.549835,99.33411
1582559373.94284,93,0,1582559372.998363,41.20620008737534,29.07338136318349,177.4473,0.06816529,224.6674204448456,3,16.00241654736175,-9999,106463.7742965417,0.9255828857421875,0.1520233154296875,-0.0641937255859375,106463.7682845417,1.500643261266702,1.525148590670133,-0.1354278540879341,0.004283410497009754,-0.1150882095098495,-0.06063937395811081,-0.02944302558898926,0.01506078243255615,-0.000136256217956543,2,0.5057352922261436,-0.4707704151620112,-0.4577171148302273,-0.5595551871812076,0.9898114800453186,0.1350142657756805,-0.04521406069397926,43.42742156982422,18.46654510498047,-16.50634765625,2,106462.532744375,2,0,1582559372.704819,1582558685.643339,11,0.6387488,0,0,10.91,0,0,1582558765.788069,106460.811131,0,2.549835,99.33411
1582559373.948328,94,0,1582559372.998363,41.20620008737534,29.07338136318349,177.4473,0.06816529,224.6674204448456,3,16.00241654736175,-9999,106463.7843665417,0.9234161376953125,0.147064208984375,-0.0776214599609375,106463.7783245417,1.500592631770433,1.524562757121482,-0.1357074901007178,0.003390985075384378,-0.05475589260458946,-0.02747183293104172,-0.07065379619598389,0.01623314619064331,-0.02406370639801025,2,0.5056586398978091,-0.4705456997447722,-0.4577759156861898,-0.5597652869211752,0.9897469878196716,0.1352913230657578,-0.04579216986894608,43.42742156982422,18.46654510498047,-16.50634765625,2,106462.532744375,2,0,1582559372.704819,1582558685.643339,11,0.6387488,0,0,10.91,0,0,1582558765.788069,106460.811131,0,2.549835,99.33411
1582559373.958449,95,0,1582559372.998363,41.20620008737534,29.07338136318349,177.4473,0.06816529,224.6674204448456,3,16.00241654736175,-9999,106463.7944075417,0.97412109375,0.1436004638671875,-0.05029296875,106463.7883645417,1.500559377806218,1.52419486903174,-0.1358347747537484,0.00243990239687264,-0.03260153904557228,-0.01122563891112804,-0.05871772766113281,0.01007974147796631,-0.02894926071166992,2,0.5055981662568014,-0.4704176381489897,-0.457825418437635,-0.5598870657255538,0.9897128939628601,0.1354174464941025,-0.04615547880530357,43.43857574462891,18.41018676757812,-16.5699462890625,2,106462.532744375,2,0,1582559372.704819,1582558685.643339,11,0.6387488,0,0,10.91,0,0,1582558765.788069,106460.811131,0,2.549835,99.33411
1582559373.96848,96,0,1582559372.998363,41.20620008737534,29.07338136318349,177.4473,0.06816529,224.6674204448456,3,16.00241654736175,-9999,106463.8044475417,1.006607055664062,0.1456451416015625,-0.0331878662109375,106463.7984055417,1.500516103702066,1.523420520006306,-0.1359659376210962,0.004303050227463245,-0.07434339076280594,-0.01355297490954399,-0.00660097599029541,0.008240729570388794,0.001373052597045898,2,0.505443216066057,-0.4701772533225714,-0.4579738105091149,-0.5601075606364891,0.9896591901779175,0.135547399520874,-0.0469210110604763,43.43857574462891,18.41018676757812,-16.5699462890625,2,106462.532744375,2,0,1582559372.704819,1582558685.643339,11,0.6387488,0,0,10.91,0,0,1582558765.788069,106460.811131,0,2.549835,99.33411
1582559373.978451,97,0,1582559372.998363,41.20620008737534,29.07338136318349,177.4473,0.06816529,224.6674204448456,3,16.00241654736175,-9999,106463.8144875417,1.007736206054688,0.145965576171875,-0.035400390625,106463.8084455417,1.50047257985177,1.521981017267069,-0.1361072842714439,0.003769179806113243,-0.1469059735536575,-0.01315154880285263,0.01881635189056396,0.01035889983177185,0.01588940620422363,2,0.5051383501770624,-0.4697477271717717,-0.4582873242484504,-0.5604863454227971,0.9895713925361633,0.1356874406337738,-0.04834463819861412,43.40727996826172,18.47659301757812,-16.55584716796875,2,106462.532744375,2,0,1582559372.704819,1582558685.643339,11,0.6387488,0,0,10.91,0,0,1582558765.788069,106460.811131,0,2.549835,99.33411
1582559374.00318,98,0,1582559372.998363,41.20620008737534,29.07338136318349,177.4473,0.06816529,224.6674204448456,3,16.00241654736175,-9999,106463.8245285417,1.000259399414062,0.141998291015625,-0.0506134033203125,106463.8184855417,1.50041427524085,1.520187518831041,-0.1363367888128363,0.004344422370195389,-0.176978662610054,-0.02234344929456711,0.01541119813919067,0.009643137454986572,0.01085829734802246,2,0.5047704943476421,-0.469199163234906,-0.4586622419697185,-0.5609704834089748,0.9894521236419678,0.1359148174524307,-0.05011778697371483,43.40727996826172,18.47659301757812,-16.55584716796875,2,106462.532744375,2,0,1582559372.704819,1582558685.643339,11,0.6387488,0,0,10.91,0,0,1582558765.788069,106460.811131,0,2.549835,99.33411
1582559374.004644,99,0,1582559372.998363,41.20620008737534,29.07338136318349,177.4473,0.06816529,224.6674204448456,3,16.00241654736175,-9999,106463.8345685417,1.015243530273438,0.1376800537109375,-0.0472564697265625,106463.8285255417,1.500328063486877,1.518106532239527,-0.1367803135060477,0.005848901346325874,-0.2058259844779968,-0.04432997107505798,0.01237380504608154,0.004320710897445679,0.0006318092346191406,2,0.5043831568620825,-0.4685198703971054,-0.4590440792859485,-0.5615738245474861,0.9892851710319519,0.1363542079925537,-0.05217352509498596,43.33699798583984,18.60626983642578,-16.62872314453125,2,106463.8180885417,4,2,1582559373.990163,1582558685.643339,11,0.6387488,0,0,10.91,0,0,1582558765.788069,106460.811131,0,2.549835,99.33411
1582559374.008845,100,0,1582559372.998363,41.20620008737534,29.07338136318349,177.4473,0.06816529,224.6674204448456,3,16.00241654736175,-9999,106463.8446085417,1.005279541015625,0.1414337158203125,-0.0550384521484375,106463.8385665417,1.500204203658823,1.515681108273909,-0.1374980645855577,0.008087554015219212,-0.2436167746782303,-0.07177464663982391,0.02685320377349854,0.0008170604705810547,0.006902933120727539,2,0.503975810674114,-0.467680102011056,-0.4594284202038021,-0.5623248902659006,0.9890579581260681,0.1370652168989182,-0.05456740781664848,43.33699798583984,18.60626983642578,-16.62872314453125,2,106463.8180885417,4,2,1582559373.990163,1582558685.643339,11,0.6387488,0,0,10.91,0,0,1582558765.788069,106460.811131,0,2.549835,99.33411
1582559374.018808,101,0,1582559372.998363,41.20620008737534,29.07338136318349,177.4473,0.06816529,224.6674204448456,3,16.00241654736175,-9999,106463.8546485417,0.988037109375,0.1352996826171875,-0.0785369873046875,106463.8486065417,1.500065732050594,1.513249272238624,-0.1384958993044701,0.009589365683495998,-0.2423942983150482,-0.09912247210741043,0.01093637943267822,0.003459662199020386,-0.002814173698425293,2,0.5036331949461004,-0.4667668761547661,-0.4597348534212736,-0.5631395837939579,0.9887852668762207,0.1380535662174225,-0.05696457624435425,43.18755340576172,18.7840576171875,-16.9107666015625,2,106463.8180885417,4,2,1582559373.990163,1582558685.643339,11,0.6387488,0,0,10.91,0,0,1582558765.788069,106460.811131,0,2.549835,99.33411
1582559374.028634,102,0,1582559372.998363,41.20620008737534,29.07338136318349,177.4473,0.06816529,224.6674204448456,3,16.00241654736175,-9999,106463.8646895417,0.979278564453125,0.14166259765625,-0.07501220703125,106463.8586465417,1.50000151208519,1.510992151124252,-0.1396942089872576,-0.001097367145121098,-0.219559833407402,-0.1187337264418602,-0.00265204906463623,-0.00479242205619812,-0.0225791335105896,2,0.5033979467122982,-0.4658297458416183,-0.4599643348530423,-0.5639379849303662,0.9884883761405945,0.1392403095960617,-0.05918630957603455,43.18755340576172,18.7840576171875,-16.9107666015625,2,106463.8180885417,4,2,1582559373.990163,1582558685.643339,11,0.6387488,0,0,10.91,0,0,1582558765.788069,106460.811131,0,2.549835,99.33411
1582559374.040693,103,0,1582559372.998363,41.20620008737534,29.07338136318349,177.4473,0.06816529,224.6674204448456,3,16.00241654736175,-9999,106463.8747295417,0.96636962890625,0.152587890625,-0.0634765625,106463.8686875417,1.499918160808178,1.508610206069903,-0.1409235024680162,0.001535798073746264,-0.2353661358356476,-0.1224262863397598,-0.01109504699707031,0.004579305648803711,-0.009888768196105957,2,0.5031372522727321,-0.4648525753330852,-0.4602113764853199,-0.5647747274445356,0.9881729483604431,0.1404575258493423,-0.0615299753844738,43.06114959716797,18.75914764404297,-17.1419677734375,2,106463.8180885417,4,2,1582559373.990163,1582558685.643339,11,0.6387488,0,0,10.91,0,0,1582558765.788069,106460.811131,0,2.549835,99.33411
1582559374.062009,104,0,1582559372.998363,41.20620008737534,29.07338136318349,177.4473,0.06816529,224.6674204448456,3,16.00241654736175,-9999,106463.8847695417,0.936309814453125,0.148101806640625,-0.0811004638671875,106463.8787275417,1.499855709526649,1.506273649405004,-0.142055703947165,-0.001955606043338776,-0.2360915690660477,-0.1137196123600006,-0.02723801136016846,0.01032429933547974,-0.002202749252319336,2,0.5028675703032551,-0.4639073088975721,-0.460478701407925,-0.565573635321359,0.9878671169281006,0.1415784060955048,-0.06382843106985092,43.06114959716797,18.75914764404297,-17.1419677734375,2,106463.8180885417,4,2,1582559373.990163,1582558685.643339,11,0.6387488,0,0,10.91,0,0,1582558765.788069,106460.811131,0,2.549835,99.33411
1582559374.063638,105,0,1582559372.998363,41.20620008737534,29.07338136318349,177.4473,0.06816529,224.6674204448456,3,16.00241654736175,-9999,106463.8948105417,0.9233551025390625,0.1509857177734375,-0.0879974365234375,106463.8887985417,1.499823832449864,1.504257242748194,-0.1429714396302592,-0.002547564450651407,-0.2032500505447388,-0.09116405993700027,-0.05657941102981567,0.006045162677764893,-0.01805603504180908,2,0.502624526024945,-0.4631012717131714,-0.4607319021782775,-0.5662436784179602,0.9876066446304321,0.1424848586320877,-0.06581159681081772,42.92415618896484,18.87909698486328,-17.17034912109375,2,106463.8180885417,4,2,1582559373.990163,1582558685.643339,11,0.6387488,0,0,10.91,0,0,1582558765.788069,106460.811131,0,2.549835,99.33411
1582559374.069029,106,0,1582559372.998363,41.20620008737534,29.07338136318349,177.4473,0.06816529,224.6674204448456,3,16.00241654736175,-9999,106463.9048505417,0.92803955078125,0.1466827392578125,-0.098052978515625,106463.8988385417,1.49981878458753,1.502676476452566,-0.1437005262290903,-0.002320929430425167,-0.1602405309677124,-0.07304630428552628,-0.06459474563598633,0.007199972867965698,-0.02286416292190552,2,0.5024413121237813,-0.4624607277234357,-0.4609329942017652,-0.5667659816402409,0.9873975515365601,0.1432064771652222,-0.0673656091094017,42.92415618896484,18.87909698486328,-17.17034912109375,2,106463.8180885417,4,2,1582559373.990163,1582558685.643339,11,0.6387488,0,0,10.91,0,0,1582558765.788069,106460.811131,0,2.549835,99.33411
1582559374.079438,107,0,1582559372.998363,41.20620008737534,29.07338136318349,177.4473,0.06816529,224.6674204448456,3,16.00241654736175,-9999,106463.9148905417,0.9553985595703125,0.1483154296875,-0.0890960693359375,106463.9088785417,1.499861999747134,1.501533366202627,-0.144336094847021,-0.007714239880442619,-0.1115420460700989,-0.0621565505862236,-0.05690330266952515,0.002374470233917236,-0.03037768602371216,2,0.502346745102406,-0.4619564640686883,-0.4610626989300585,-0.567155310175484,0.9872288107872009,0.1438354551792145,-0.06848794966936111,42.91693878173828,18.80424499511719,-17.3514404296875,2,106463.8180885417,4,2,1582559373.990163,1582558685.643339,11,0.6387488,0,0,10.91,0,0,1582558765.788069,106460.811131,0,2.549835,99.33411
1582559374.089027,108,0,1582559372.998363,41.20620008737534,29.07338136318349,177.4473,0.06816529,224.6674204448456,3,16.00241654736175,-9999,106463.9249305417,1.005889892578125,0.1503143310546875,-0.0758514404296875,106463.9189185417,1.499933374764372,1.500416483379022,-0.1450360543335545,-0.01216384954750538,-0.112219825387001,-0.06770578026771545,-0.02280509471893311,0.00426018238067627,-0.017120361328125,2,0.5022807540626588,-0.4614350780760868,-0.4611766569515113,-0.5675454159806853,0.9870510697364807,0.1445281058549881,-0.06958342343568802,42.91693878173828,18.80424499511719,-17.3514404296875,2,106463.8180885417,4,2,1582559373.990163,1582558685.643339,11,0.6387488,0,0,10.91,0,0,1582558765.788069,106460.811131,0,2.549835,99.33411
1582559374.101537,109,0,1582559372.998363,41.20620008737534,29.07338136318349,177.4473,0.06816529,224.6674204448456,3,16.00241654736175,-9999,106463.9349715417,1.039154052734375,0.1568145751953125,-0.05328369140625,106463.9289595417,1.499938369631033,1.498846613673618,-0.1460158936517299,-0.006751119159162045,-0.156158447265625,-0.0974191278219223,0.02796894311904907,0.005594313144683838,-0.001221776008605957,2,0.5021649486728129,-0.4607266320987992,-0.4613108739310137,-0.5681141225072963,0.9867989420890808,0.145497590303421,-0.0711226686835289,42.64679718017578,18.72034454345703,-17.58935546875,2,106463.8180885417,4,2,1582559373.990163,1582558685.643339,11,0.6387488,0,0,10.91,0,0,1582558765.788069,106460.811131,0,2.549835,99.33411
1582559374.129044,110,0,1582559372.998363,41.20620008737534,29.07338136318349,177.4473,0.06816529,224.6674204448456,3,16.00241654736175,-9999,106463.9450115417,1.022918701171875,0.15618896484375,-0.0614776611328125,106463.9389995417,1.499832798638138,1.49654123239665,-0.1472782698844873,0.001174980658106506,-0.23410864174366,-0.1276641190052032,0.05282533168792725,0.01092138886451721,0.02182292938232422,2,0.5019247293369216,-0.4597604777373707,-0.46152288430484,-0.5689362811186083,0.986448347568512,0.1467464119195938,-0.07338374108076096,42.57289886474609,18.99864196777344,-17.8580322265625,2,106463.8180885417,4,2,1582559373.990163,1582558685.643339,11,0.6387488,0,0,10.91,0,0,1582558765.788069,106460.811131,0,2.549835,99.33411
1582559374.130406,111,0,1582559372.998363,41.20620008737534,29.07338136318349,177.4473,0.06816529,224.6674204448456,3,16.00241654736175,-9999,106463.9550515417,0.9825592041015625,0.1551971435546875,-0.0764312744140625,106463.9490395417,1.499623715621827,1.493986648428037,-0.1486968947366229,0.01168057788163424,-0.2500388026237488,-0.1440937668085098,0.02841377258300781,0.007289707660675049,0.009252071380615234,2,0.5016423721585073,-0.4587060323372975,-0.4617261361512059,-0.5698707812337496,0.9860491156578064,0.1481495350599289,-0.07588741183280945,42.57289886474609,18.99864196777344,-17.8580322265625,2,106463.8180885417,4,2,1582559373.990163,1582558685.643339,11,0.6387488,0,0,10.91,0,0,1582558765.788069,106460.811131,0,2.549835,99.33411
1582559374.131363,112,0,1582559372.998363,41.20620008737534,29.07338136318349,177.4473,0.06816529,224.6674204448456,3,16.00241654736175,-9999,106463.9650925417,0.94927978515625,0.1590423583984375,-0.0857391357421875,106463.9590805417,1.499365491110561,1.491347258886741,-0.1500884515769887,0.0145831573754549,-0.2638489007949829,-0.1396854370832443,-0.01080286502838135,0.006279170513153076,0.0009750127792358398,2,0.5013225206700764,-0.4576451595988422,-0.4619435593192371,-0.5708281939395554,0.9856389164924622,0.1495255976915359,-0.0784732773900032,42.39212799072266,18.94566345214844,-17.89202880859375,2,106463.8180885417,4,2,1582559373.990163,1582558685.643339,11,0.6387488,0,0,10.91,0,0,1582558765.788069,106460.811131,0,2.549835,99.33411
1582559374.13929,113,0,1582559372.998363,41.20620008737534,29.07338136318349,177.4473,0.06816529,224.6674204448456,3,16.00241654736175,-9999,106463.9751325417,0.9124298095703125,0.1563720703125,-0.1062469482421875,106463.9691205417,1.499081605906608,1.488984037166537,-0.1513125405384755,0.02024766243994236,-0.2310291528701782,-0.1245452687144279,-0.04332935810089111,0.008257359266281128,-0.009450793266296387,2,0.501018746131237,-0.4567127717570542,-0.4621286986993943,-0.5716911469952631,0.9852675795555115,0.1507358103990555,-0.08078732341527939,42.39212799072266,18.94566345214844,-17.89202880859375,2,106463.8180885417,4,2,1582559373.990163,1582558685.643339,11,0.6387488,0,0,10.91,0,0,1582558765.788069,106460.811131,0,2.549835,99.33411
1582559374.149108,114,0,1582559373.998356,41.20619896714042,29.07337703950185,177.4606,0.0857615,225.4930127305817,3,16.00241654736175,-9999,106463.9851725417,0.88763427734375,0.150726318359375,-0.12384033203125,106463.9791605417,1.498943642858874,1.48723646731761,-0.1522037466422397,0.006942775100469589,-0.1726246923208237,-0.0884956568479538,-0.07974958419799805,0.003240823745727539,-0.02818620204925537,2,0.500807109279489,-0.4560080615230884,-0.4622897102866902,-0.572308606904961,0.9849905967712402,0.1516167670488358,-0.08249777555465698,42.35834503173828,19.02452850341797,-17.93194580078125,2,106463.8180885417,4,2,1582559373.990163,1582558685.643339,11,0.6387488,0,0,10.91,0,0,1582558765.788069,106460.811131,0,2.549835,99.33411
1582559374.160193,115,0,1582559373.998356,41.20619896714042,29.07337703950185,177.4606,0.0857615,225.4930127305817,3,16.00241654736175,-9999,106463.9952125417,0.888519287109375,0.1550445556640625,-0.1204833984375,106463.9892005417,1.49896069979228,1.486277739974531,-0.1527155691054556,-0.006606768816709518,-0.09047999233007431,-0.05008142441511154,-0.09956628084182739,-0.001492053270339966,-0.04268991947174072,2,0.5007178874909517,-0.4555917470562451,-0.4623984543924184,-0.5726303254138674,0.9848336577415466,0.1521226614713669,-0.08343551307916641,42.35834503173828,19.02452850341797,-17.93194580078125,2,106463.8180885417,4,2,1582559373.990163,1582558685.643339,11,0.6387488,0,0,10.91,0,0,1582558765.788069,106460.811131,0,2.549835,99.33411
1582559374.176411,116,0,1582559373.998356,41.20619896714042,29.07337703950185,177.4606,0.0857615,225.4930127305817,3,16.00241654736175,-9999,106464.0052535417,0.9105682373046875,0.16015625,-0.106842041015625,106463.9992415417,1.499040963305349,1.485847156334956,-0.1529140749992623,-0.01009684149175882,-0.04195719957351685,-0.01850166171789169,-0.09351873397827148,0.004018396139144897,-0.03407448530197144,2,0.5006865160482786,-0.4553949083021412,-0.4624763762152726,-0.5727512150477407,0.9847673177719116,0.1523188501596451,-0.0838569775223732,42.24831390380859,19.28234100341797,-18.1510009765625,2,106463.8180885417,4,2,1582559373.990163,1582558685.643339,11,0.6387488,0,0,10.91,0,0,1582558765.788069,106460.811131,0,2.549835,99.33411
1582559374.179275,117,0,1582559373.998356,41.20619896714042,29.07337703950185,177.4606,0.0857615,225.4930127305817,3,16.00241654736175,-9999,106464.0152935417,0.933319091796875,0.161651611328125,-0.099761962890625,106464.0092815417,1.499097701849651,1.485669392130338,-0.1529022943274289,-0.003806944703683257,-0.02041967771947384,0.002713161054998636,-0.06985437870025635,0.008577227592468262,-0.02076113224029541,2,0.5006553241466017,-0.4553330053932944,-0.462540299327679,-0.5727762247892559,0.9847543835639954,0.1523071974515915,-0.08403220027685165,42.24831390380859,19.28234100341797,-18.1510009765625,2,106463.8180885417,4,2,1582559373.990163,1582558685.643339,11,0.6387488,0,0,10.91,0,0,1582558765.788069,106460.811131,0,2.549835,99.33411
1582559374.189851,118,0,1582559373.998356,41.20619896714042,29.07337703950185,177.4606,0.0857615,225.4930127305817,3,16.00241654736175,-9999,106464.0253335417,0.9444580078125,0.1556243896484375,-0.1074371337890625,106464.0193215417,1.499142995623652,1.485707793687268,-0.1528046215154886,-0.003099609166383743,-0.001028137281537056,0.01002540253102779,-0.04805248975753784,0.008734762668609619,-0.01701372861862183,2,0.5006500232367266,-0.4553589090735095,-0.4625695997052974,-0.5727364623113933,0.984772264957428,0.1522106677293777,-0.08399563282728195,42.10367584228516,18.99873352050781,-18.0484619140625,2,106463.8180885417,4,2,1582559373.990163,1582558685.643339,11,0.6387488,0,0,10.91,0,0,1582558765.788069,106460.811131,0,2.549835,99.33411
1582559374.199354,119,0,1582559373.998356,41.20619896714042,29.07337703950185,177.4606,0.0857615,225.4930127305817,3,16.00241654736175,-9999,106464.0354045417,0.94573974609375,0.1528472900390625,-0.109649658203125,106464.0293625417,1.499211641764665,1.486091840931158,-0.1526783652273788,-0.005726763047277927,0.03876618295907974,0.01258772145956755,-0.04035234451293945,0.00181010365486145,-0.02591991424560547,2,0.5007227038493733,-0.4554857149080128,-0.4625267510877364,-0.5726068887341097,0.9848238229751587,0.1520858854055405,-0.08361907303333282,42.10367584228516,18.99873352050781,-18.0484619140625,2,106463.8180885417,4,2,1582559373.990163,1582558685.643339,11,0.6387488,0,0,10.91,0,0,1582558765.788069,106460.811131,0,2.549835,99.33411
1582559374.209428,120,0,1582559373.998356,41.20619896714042,29.07337703950185,177.4606,0.0857615,225.4930127305817,3,16.00241654736175,-9999,106464.0454445417,0.93280029296875,0.158843994140625,-0.104705810546875,106464.0394025417,1.499321561427687,1.486769115407059,-0.1524987161805397,-0.01131753623485565,0.06602230668067932,0.01886133104562759,-0.04104626178741455,0.00209459662437439,-0.02612721920013428,2,0.5008592491647627,-0.455700381205246,-0.4624364185727374,-0.5723895756035711,0.9849073886871338,0.1519083231687546,-0.08295434713363647,42.12354278564453,19.06555938720703,-18.103515625,2,106463.8180885417,4,2,1582559373.990163,1582558685.643339,11,0.6387488,0,0,10.91,0,0,1582558765.788069,106460.811131,0,2.549835,99.33411
1582559374.220888,121,0,1582559373.998356,41.20619896714042,29.07337703950185,177.4606,0.0857615,225.4930127305817,3,16.00241654736175,-9999,106464.0554855417,0.9248809814453125,0.1590423583984375,-0.1026611328125,106464.0494425417,1.499416463742131,1.487814998862621,-0.1522073312165055,-0.00764140672981739,0.105467677116394,0.0302919764071703,-0.05580985546112061,0.007433384656906128,-0.02285134792327881,2,0.5010495424119432,-0.4560541879781085,-0.4622791264251962,-0.572068155571733,0.985037624835968,0.1516203135251999,-0.08192786574363708,42.12354278564453,19.06555938720703,-18.103515625,2,106463.8180885417,4,2,1582559373.990163,1582558685.643339,11,0.6387488,0,0,10.91,0,0,1582558765.788069,106460.811131,0,2.549835,99.33411
1582559374.240905,122,0,1582559373.998356,41.20619896714042,29.07337703950185,177.4606,0.0857615,225.4930127305817,3,16.00241654736175,-9999,106464.0655255417,0.9374237060546875,0.1629180908203125,-0.087860107421875,106464.0594825417,1.499467019464375,1.489107942899631,-0.1517695007553005,-0.001839710399508476,0.1329791992902756,0.04582379758358002,-0.05924642086029053,0.008125841617584229,-0.02056491374969482,2,0.5012500457494163,-0.4565288501091365,-0.4620861282185078,-0.5716696000013568,0.9852086901664734,0.1511875241994858,-0.08065959811210632,42.29550933837891,19.07270812988281,-18.08233642578125,2,106463.8180885417,4,2,1582559373.990163,1582558685.643339,11,0.6387488,0,0,10.91,0,0,1582558765.788069,106460.811131,0,2.549835,99.33411
1582559374.242199,123,0,1582559373.998356,41.20619896714042,29.07337703950185,177.4606,0.0857615,225.4930127305817,3,16.00241654736175,-9999,106464.0755655417,0.942169189453125,0.1642608642578125,-0.082550048828125,106464.0695235417,1.499451878299105,1.490376434945199,-0.1511892482686645,0.006338072940707207,0.1280338764190674,0.05868696048855782,-0.04590058326721191,0.01286542415618896,-0.006366193294525146,2,0.5013940673950659,-0.4570509428578953,-0.4619183892966268,-0.5712616370712034,0.9853976368904114,0.1506139189004898,-0.07941684871912003,42.29550933837891,19.07270812988281,-18.08233642578125,2,106463.8180885417,4,2,1582559373.990163,1582558685.643339,11,0.6387488,0,0,10.91,0,0,1582558765.788069,106460.811131,0,2.549835,99.33411
1582559374.24978,124,0,1582559373.998356,41.20619896714042,29.07337703950185,177.4606,0.0857615,225.4930127305817,3,16.00241654736175,-9999,106464.0856055417,0.9301605224609375,0.161590576171875,-0.0880889892578125,106464.0795635417,1.499390873058923,1.491697140396509,-0.1504280758277695,0.01321115903556347,0.1319367438554764,0.07768008857965469,-0.04585933685302734,0.01459488272666931,-0.005111157894134521,2,0.5014942828912754,-0.4576475576224899,-0.4617726033766117,-0.5708136817532171,0.985615611076355,0.1498613804578781,-0.07812439650297165,42.34597015380859,19.13723754882812,-17.81427001953125,2,106463.8180885417,4,2,1582559373.990163,1582558685.643339,11,0.6387488,0,0,10.91,0,0,1582558765.788069,106460.811131,0,2.549835,99.33411
1582559374.259664,125,0,1582559373.998356,41.20619896714042,29.07337703950185,177.4606,0.0857615,225.4930127305817,3,16.00241654736175,-9999,106464.0956465417,0.9318084716796875,0.1480712890625,-0.109161376953125,106464.0896035417,1.499369813484717,1.493382089018846,-0.1495104419031873,0.009943719021975994,0.1695473343133926,0.09219617396593094,-0.05717372894287109,0.01034525036811829,-0.01565814018249512,2,0.5016484729134904,-0.458379455540227,-0.4615885498367269,-0.5702394215324555,0.9858824610710144,0.1489540487527847,-0.07647416740655899,42.34597015380859,19.13723754882812,-17.81427001953125,2,106463.8180885417,4,2,1582559373.990163,1582558685.643339,11,0.6387488,0,0,10.91,0,0,1582558765.788069,106460.811131,0,2.549835,99.33411
1582559374.269807,126,0,1582559373.998356,41.20619896714042,29.07337703950185,177.4606,0.0857615,225.4930127305817,3,16.00241654736175,-9999,106464.1056865417,0.9549102783203125,0.143280029296875,-0.112640380859375,106464.0996445417,1.499517041230841,1.49562394323102,-0.1485166296705993,-0.007993203587830067,0.2259280532598495,0.1020077988505363,-0.05274450778961182,-0.002099156379699707,-0.03864103555679321,2,0.5019505984929328,-0.4592473936135094,-0.4613329914222276,-0.5694815430389905,0.9861985445022583,0.1479712575674057,-0.07427485287189484,42.26435089111328,18.83114624023438,-17.74053955078125,2,106463.8180885417,4,2,1582559373.990163,1582558685.643339,11,0.6387488,0,0,10.91,0,0,1582558765.788069,106460.811131,0,2.549835,99.33411
1582559374.280654,127,0,1582559373.998356,41.20619896714042,29.07337703950185,177.4606,0.0857615,225.4930127305817,3,16.00241654736175,-9999,106464.1157265417,0.976898193359375,0.14849853515625,-0.089996337890625,106464.1096845417,1.499796903472264,1.498098681497408,-0.1475816598832703,-0.02232553064823151,0.2445226609706879,0.09403961896896362,-0.02477312088012695,-0.003294885158538818,-0.03762441873550415,2,0.5023515875988097,-0.4601313349173956,-0.4610407348802042,-0.5686506271137657,0.9865170121192932,0.1470465064048767,-0.07184407114982605,42.26435089111328,18.83114624023438,-17.74053955078125,2,106463.8180885417,4,2,1582559373.990163,1582558685.643339,11,0.6387488,0,0,10.91,0,0,1582558765.788069,106460.811131,0,2.549835,99.33411
1582559374.306301,128,0,1582559373.998356,41.20619896714042,29.07337703950185,177.4606,0.0857615,225.4930127305817,3,16.00241654736175,-9999,106464.1257675417,0.96453857421875,0.154296875,-0.0797576904296875,106464.1197245417,1.500108460976403,1.50056876481152,-0.1466378274347384,-0.0245191752910614,0.2434861660003662,0.09584631025791168,-0.0119783878326416,0.003559708595275879,-0.01782095432281494,2,0.5027566129247197,-0.4610069346112521,-0.4607605416452304,-0.5678100200140186,0.9868295192718506,0.1461128741502762,-0.06941679120063782,42.63973236083984,18.78729248046875,-17.51544189453125,2,106463.8180885417,4,2,1582559373.990163,1582558685.643339,11,0.6387488,0,0,10.91,0,0,1582558765.788069,106460.811131,0,2.549835,99.33411
1582559374.307552,129,0,1582559373.998356,41.20619896714042,29.07337703950185,177.4606,0.0857615,225.4930127305817,3,16.00241654736175,-9999,106464.1358075417,0.9576568603515625,0.1591339111328125,-0.07379150390625,106464.1297955417,1.500384421606656,1.503010510377295,-0.1456273897393156,-0.01957575790584087,0.2401994466781616,0.102408155798912,-0.02538394927978516,0.01017504930496216,-0.01157033443450928,2,0.5031303228456976,-0.4618997711063134,-0.460494683187362,-0.5669683963567603,0.98714280128479,0.1451131999492645,-0.06701695919036865,42.63973236083984,18.78729248046875,-17.51544189453125,2,106463.8180885417,4,2,1582559373.990163,1582558685.643339,11,0.6387488,0,0,10.91,0,0,1582558765.788069,106460.811131,0,2.549835,99.33411
1582559374.309822,130,0,1582559373.998356,41.20619896714042,29.07337703950185,177.4606,0.0857615,225.4930127305817,3,16.00241654736175,-9999,106464.1458475417,0.9510345458984375,0.1533050537109375,-0.0827789306640625,106464.1398355417,1.500616494429395,1.505496593469437,-0.144538922919889,-0.01631365157663822,0.243080735206604,0.1108969822525978,-0.03121316432952881,0.01471638679504395,-0.01038426160812378,2,0.5034846781049609,-0.4628355339082453,-0.4602256687498575,-0.5661083513481694,0.9874632954597473,0.1440361738204956,-0.06457289308309555,42.78014373779297,18.46543884277344,-17.310302734375,2,106463.8180885417,4,2,1582559373.990163,1582558685.643339,11,0.6387488,0,0,10.91,0,0,1582558765.788069,106461.747538,0,2.367508,99.33626
1582559374.319937,131,0,1582559373.998356,41.20619896714042,29.07337703950185,177.4606,0.0857615,225.4930127305817,3,16.00241654736175,-9999,106464.1558875417,0.954803466796875,0.1492767333984375,-0.0832672119140625,106464.1498755417,1.500838178293076,1.508253000707949,-0.1434046040858404,-0.01554759591817856,0.2760437428951263,0.1146593168377876,-0.03769940137863159,0.008637428283691406,-0.02332103252410889,2,0.5038873462756442,-0.4638610299466611,-0.4598975520174139,-0.5651766226329002,0.9877999424934387,0.1429135948419571,-0.06186097487807274,42.78014373779297,18.46543884277344,-17.310302734375,2,106463.8180885417,4,2,1582559373.990163,1582558685.643339,11,0.6387488,0,0,10.91,0,0,1582558765.788069,106461.747538,0,2.367508,99.33626
1582559374.330347,132,0,1582559373.998356,41.20619896714042,29.07337703950185,177.4606,0.0857615,225.4930127305817,3,16.00241654736175,-9999,106464.1659285417,0.952117919921875,0.146392822265625,-0.0855865478515625,106464.1599165417,1.501103284300048,1.511208082148599,-0.1421884293290869,-0.01896176859736443,0.2871411442756653,0.1260272860527039,-0.03431224822998047,0.007415771484375,-0.02343893051147461,2,0.5043253059468377,-0.4649515983689375,-0.4595530915639025,-0.5641692759587406,0.9881513118743896,0.1417097896337509,-0.05895199254155159,43.02005767822266,18.69052124023438,-17.3297119140625,2,106463.8180885417,4,2,1582559373.990163,1582558685.643339,11,0.6387488,0,0,10.91,0,0,1582558765.788069,106461.747538,0,2.367508,99.33626
1582559374.341078,133,0,1582559373.998356,41.20619896714042,29.07337703950185,177.4606,0.0857615,225.4930127305817,3,16.00241654736175,-9999,106464.1759685417,0.967193603515625,0.1462860107421875,-0.07763671875,106464.1699565417,1.501423890484255,1.514489864246716,-0.1409471084936365,-0.0247309785336256,0.3281533420085907,0.1266813725233078,-0.03540807962417603,0.00493738055229187,-0.03163337707519531,2,0.5048449831817048,-0.4661246877320865,-0.4591479452534721,-0.5630651962941911,0.988514244556427,0.1404808908700943,-0.05571863800287247,43.02005767822266,18.69052124023438,-17.3297119140625,2,106463.8180885417,4,2,1582559373.990163,1582558685.643339,11,0.6387488,0,0,10.91,0,0,1582558765.788069,106461.747538,0,2.367508,99.33626
1582559374.36297,134,0,1582559373.998356,41.20619896714042,29.07337703950185,177.4606,0.0857615,225.4930127305817,3,16.00241654736175,-9999,106464.1860085417,0.9904022216796875,0.1507568359375,-0.0592041015625,106464.1799965417,1.50177010628596,1.517715953490023,-0.1396986487717189,-0.02947193756699562,0.3215143382549286,0.1275181323289871,-0.01817917823791504,0.007974773645401001,-0.02141785621643066,2,0.5053559593148295,-0.4672751430201938,-0.4587653004050672,-0.5619642330872474,0.9888634085655212,0.1392447054386139,-0.05253858864307404,43.15230560302734,18.5487060546875,-17.00531005859375,2,106463.8180885417,4,2,1582559373.990163,1582558685.643339,11,0.6387488,0,0,10.91,0,0,1582558765.788069,106461.747538,0,2.367508,99.33626
1582559374.36458,135,0,1582559373.998356,41.20619896714042,29.07337703950185,177.4606,0.0857615,225.4930127305817,3,16.00241654736175,-9999,106464.1960495417,1.030029296875,0.1534271240234375,-0.034027099609375,106464.1900375417,1.502034304914777,1.520498314276356,-0.1385973453492776,-0.023664316162467,0.2819257974624634,0.1122443675994873,0.008701503276824951,0.01278910040855408,-0.006447970867156982,2,0.5057825741135785,-0.4682805185211676,-0.4584315588298304,-0.5610149617167273,0.9891581535339355,0.1381540447473526,-0.04979468882083893,43.15230560302734,18.5487060546875,-17.00531005859375,2,106463.8180885417,4,2,1582559373.990163,1582558685.643339,11,0.6387488,0,0,10.91,0,0,1582558765.788069,106461.747538,0,2.367508,99.33626
1582559374.370137,136,0,1582559373.998356,41.20619896714042,29.07337703950185,177.4606,0.0857615,225.4930127305817,3,16.00241654736175,-9999,106464.2060895417,1.008071899414062,0.1549224853515625,-0.02496337890625,106464.2000775417,1.50211735717886,1.522349229470696,-0.1376471459440367,-0.003129479475319386,0.1799903810024261,0.0955471470952034,0.04201918840408325,0.01717925071716309,0.01911616325378418,2,0.5059906503735951,-0.4690292251690495,-0.4582417560496673,-0.5603566468694912,0.989379346370697,0.1372129023075104,-0.04797009378671646,43.31116485595703,18.55146026611328,-16.68896484375,2,106463.8180885417,4,2,1582559373.990163,1582558685.643339,11,0.6387488,0,0,10.91,0,0,1582558765.788069,106461.747538,0,2.367508,99.33626
1582559374.379952,137,0,1582559373.998356,41.20619896714042,29.07337703950185,177.4606,0.0857615,225.4930127305817,3,16.00241654736175,-9999,106464.2161295417,0.9687042236328125,0.144256591796875,-0.0569000244140625,106464.2101175417,1.502149039312709,1.523796781032845,-0.1367157240773052,-0.0001832099515013397,0.141956090927124,0.09511101245880127,0.008437275886535645,0.01692754030227661,0.01564455032348633,2,0.5060989456719618,-0.4696721538298961,-0.458134466773418,-0.5598077546892883,0.9895749688148499,0.1362902224063873,-0.04654385149478912,43.31116485595703,18.55146026611328,-16.68896484375,2,106463.8180885417,4,2,1582559373.990163,1582558685.643339,11,0.6387488,0,0,10.91,0,0,1582558765.788069,106461.747538,0,2.367508,99.33626
1582559374.39023,138,0,1582559373.998356,41.20619896714042,29.07337703950185,177.4606,0.0857615,225.4930127305817,3,16.00241654736175,-9999,106464.2261695417,0.9537506103515625,0.13787841796875,-0.0684661865234375,106464.2201575417,1.502175172637097,1.525481394462504,-0.135786663561434,0.00118139386177063,0.1707693487405777,0.09429528564214706,-0.02643382549285889,0.006602674722671509,-0.01713043451309204,2,0.5062608141518216,-0.4703815088090741,-0.4579649655409831,-0.5592041319123418,0.9897779822349548,0.1353697776794434,-0.04488245025277138,43.43077850341797,18.58457946777344,-16.64276123046875,2,106463.8180885417,4,2,1582559373.990163,1582558685.643339,11,0.6387488,0,0,10.91,0,0,1582558765.788069,106461.747538,0,2.367508,99.33626
1582559374.42649,139,0,1582559373.998356,41.20619896714042,29.07337703950185,177.4606,0.0857615,225.4930127305817,3,16.00241654736175,-9999,106464.2362105417,0.9600677490234375,0.1431427001953125,-0.0568695068359375,106464.2301985417,1.502203880368835,1.527335659255649,-0.1347848947065094,0.001295580994337797,0.1873523741960526,0.1017064154148102,-0.03693497180938721,0.003872662782669067,-0.02471345663070679,2,0.5064440461863272,-0.471155981224323,-0.4577727629836317,-0.5585433521002023,0.9899946451187134,0.1343771666288376,-0.04305293783545494,43.43077850341797,18.58457946777344,-16.64276123046875,2,106463.8180885417,4,2,1582559373.990163,1582558685.643339,11,0.6387488,0,0,10.91,0,0,1582558765.788069,106461.747538,0,2.367508,99.33626
1582559374.427806,140,0,1582559373.998356,41.20619896714042,29.07337703950185,177.4606,0.0857615,225.4930127305817,3,16.00241654736175,-9999,106464.2462505417,0.966094970703125,0.1446380615234375,-0.044586181640625,106464.2402385417,1.502212977096162,1.529160670845088,-0.1337248422950114,0.002198658883571625,0.1884338706731796,0.1063786670565605,-0.02859383821487427,0.01023381948471069,-0.01389658451080322,2,0.5066015538776916,-0.4719415806449356,-0.4575980513282913,-0.5578799920962848,0.9902132749557495,0.1333266496658325,-0.0412520207464695,43.63584136962891,18.36132049560547,-16.4876708984375,2,106463.8180885417,4,2,1582559373.990163,1582558685.643339,11,0.6387488,0,0,10.91,0,0,1582558765.788069,106461.747538,0,2.367508,99.33626
1582559374.42884,141,0,1582559373.998356,41.20619896714042,29.07337703950185,177.4606,0.0857615,225.4930127305817,3,16.00241654736175,-9999,106464.2562905417,0.9646453857421875,0.1462249755859375,-0.0400543212890625,106464.2502785417,1.50215299663901,1.530705856565297,-0.1325649021110764,0.01071139518171549,0.157141700387001,0.1164306774735451,-0.02447688579559326,0.01277270913124084,-0.003015875816345215,2,0.5066539675508511,-0.4726919890991058,-0.457501839871911,-0.5572756932636672,0.9904297590255737,0.1321769654750824,-0.039728082716465,43.63584136962891,18.36132049560547,-16.4876708984375,2,106463.8180885417,4,2,1582559373.990163,1582558685.643339,11,0.6387488,0,0,10.91,0,0,1582558765.788069,106461.747538,0,2.367508,99.33626
1582559374.430362,142,0,1582559373.998356,41.20619896714042,29.07337703950185,177.4606,0.0857615,225.4930127305817,3,16.00241654736175,-9999,106464.2663315417,0.947784423828125,0.1429290771484375,-0.0567474365234375,106464.2603195417,1.502099716138433,1.532183202150957,-0.1312348424263055,0.01074681524187326,0.1486768424510956,0.1340722590684891,-0.02928704023361206,0.0149310827255249,-0.004488468170166016,2,0.5066503755964296,-0.4734655280212456,-0.4574704664160577,-0.5566476264578061,0.9906620979309082,0.1308584660291672,-0.03827157989144325,43.66190338134766,18.10398101806641,-16.35650634765625,2,106463.8180885417,4,2,1582559373.990163,1582558685.643339,11,0.6387488,0,0,10.91,0,0,1582558765.788069,106461.747538,0,2.367508,99.33626
1582559374.440924,143,0,1582559373.998356,41.20619896714042,29.07337703950185,177.4606,0.0857615,225.4930127305817,3,16.00241654736175,-9999,106464.2764015417,0.9382171630859375,0.147003173828125,-0.0576324462890625,106464.2703595417,1.502102102525612,1.533815475715901,-0.129715045947043,0.00560099259018898,0.164564311504364,0.1494345217943192,-0.04497265815734863,0.01360055804252625,-0.02248716354370117,2,0.5066485085910377,-0.47431675731392,-0.4574664120383497,-0.555927382104377,0.9909207224845886,0.1293515861034393,-0.03666180372238159,43.66190338134766,18.10398101806641,-16.35650634765625,2,106463.8180885417,4,2,1582559373.990163,1582558685.643339,11,0.6387488,0,0,10.91,0,0,1582558765.788069,106461.747538,0,2.367508,99.33626
1582559374.450561,144,0,1582559373.998356,41.20619896714042,29.07337703950185,177.4606,0.0857615,225.4930127305817,3,16.00241654736175,-9999,106464.2864425417,0.9458465576171875,0.1458587646484375,-0.0712890625,106464.2803995417,1.502176104383588,1.535972837892226,-0.1280364436769831,-0.002328036585822701,0.2148773074150085,0.1707496643066406,-0.0557938814163208,0.01990479230880737,-0.02551895380020142,2,0.5067444596106623,-0.4753360088435431,-0.4573920470798225,-0.5550299721507914,0.9912132620811462,0.1276869028806686,-0.03453146293759346,43.80823516845703,18.18009185791016,-16.281005859375,2,106463.8180885417,4,2,1582559373.990163,1582558685.643339,11,0.6387488,0,0,10.91,0,0,1582558765.788069,106461.747538,0,2.367508,99.33626
1582559374.485609,145,0,1582559373.998356,41.20619896714042,29.07337703950185,177.4606,0.0857615,225.4930127305817,3,16.00241654736175,-9999,106464.2964825417,0.984527587890625,0.1413421630859375,-0.0459442138671875,106464.2904395417,1.502293684654584,1.538656929194264,-0.126465797485053,-0.008089335635304451,0.2707883715629578,0.1583576202392578,-0.03879410028457642,0.01867121458053589,-0.03853529691696167,2,0.5069980261232696,-0.4764602623747339,-0.4571671288437223,-0.5540188236881032,0.9915015697479248,0.1261289566755295,-0.03187723830342293,43.80823516845703,18.18009185791016,-16.281005859375,2,106463.8180885417,4,2,1582559373.990163,1582558685.643339,11,0.6387488,0,0,10.91,0,0,1582558765.788069,106461.747538,0,2.367508,99.33626
1582559374.487314,146,0,1582559373.998356,41.20619896714042,29.07337703950185,177.4606,0.0857615,225.4930127305817,3,16.00241654736175,-9999,106464.3065225417,0.9900970458984375,0.1250762939453125,-0.036956787109375,106464.3004805417,1.502453117226502,1.541250806207416,-0.125023644324483,-0.01036926824599504,0.2570400536060333,0.1467038989067078,-0.003638744354248047,0.01488426327705383,-0.01188266277313232,2,0.5072727516823416,-0.4775133860935943,-0.4569418552381883,-0.5530455720502434,0.9917616248130798,0.1246981918811798,-0.02931064367294312,43.87099456787109,18.05075836181641,-16.00921630859375,2,106463.8180885417,4,2,1582559373.990163,1582558685.643339,11,0.6387488,0,0,10.91,0,0,1582558765.788069,106461.747538,0,2.367508,99.33626
1582559374.488369,147,0,1582559373.998356,41.20619896714042,29.07337703950185,177.4606,0.0857615,225.4930127305817,3,16.00241654736175,-9999,106464.3165625417,0.984710693359375,0.123748779296875,-0.0316162109375,106464.3105205417,1.502709839267891,1.543653447909238,-0.1237202606435968,-0.02227602899074554,0.238585963845253,0.1319194138050079,-0.00366973876953125,-0.001735568046569824,-0.01085972785949707,2,0.5075613271871856,-0.4784510920539338,-0.4567543790611457,-0.5521245513978408,0.9919909238815308,0.1234048753976822,-0.02693210355937481,43.87099456787109,18.05075836181641,-16.00921630859375,2,106463.8180885417,4,2,1582559373.990163,1582558685.643339,11,0.6387488,0,0,10.91,0,0,1582558765.788069,106461.747538,0,2.367508,99.33626
1582559374.490622,148,0,1582559373.998356,41.20619896714042,29.07337703950185,177.4606,0.0857615,225.4930127305817,3,16.00241654736175,-9999,106464.3266035417,0.9564666748046875,0.13409423828125,-0.0537872314453125,106464.3205605417,1.503012503436969,1.546098936763804,-0.1224655253503535,-0.0245069582015276,0.2338130623102188,0.1278575658798218,-0.01046323776245117,0.004850953817367554,-0.007790088653564453,2,0.5078828673277662,-0.4793746242760497,-0.4565552216720071,-0.551191669903247,0.9922077655792236,0.1221596375107765,-0.02450992539525032,43.98525238037109,17.70576477050781,-15.731201171875,2,106463.8180885417,4,2,1582559373.990163,1582558685.643339,11,0.6387488,0,0,10.91,0,0,1582558765.788069,106461.747538,0,2.367508,99.33626
1582559374.503848,149,0,1582559373.998356,41.20619896714042,29.07337703950185,177.4606,0.0857615,225.4930127305817,3,16.00241654736175,-9999,106464.3366435417,0.9152069091796875,0.1340179443359375,-0.08349609375,106464.3306015417,1.503467464378565,1.549552208899728,-0.1211328171600611,-0.04111681133508682,0.3376691937446594,0.1347248703241348,-0.04567718505859375,0.01258313655853271,-0.04186981916427612,2,0.5084518354466441,-0.480555199143436,-0.4561624949569985,-0.5499629258062274,0.9924483895301819,0.1208368018269539,-0.02108686231076717,43.98525238037109,17.70576477050781,-15.731201171875,2,106463.8180885417,4,2,1582559373.990163,1582558685.643339,11,0.6387488,0,0,10.91,0,0,1582558765.788069,106461.747538,0,2.367508,99.33626
1582559374.510666,150,0,1582559373.998356,41.20619896714042,29.07337703950185,177.4606,0.0857615,225.4930127305817,3,16.00241654736175,-9999,106464.3466835417,0.934234619140625,0.1303558349609375,-0.0640869140625,106464.3406415417,1.504121149351251,1.55412612597535,-0.1195477133493078,-0.06240931525826454,0.4567686915397644,0.1631309390068054,-0.08124709129333496,0.01586660742759705,-0.06719118356704712,2,0.509262142053439,-0.4820548157320969,-0.4556061324367794,-0.5483594550653107,0.9927245378494263,0.119263157248497,-0.0165504515171051,44.22577667236328,17.583984375,-15.3543701171875,2,106463.8180885417,4,2,1582559373.990163,1582558685.643339,11,0.6387488,0,0,10.91,0,0,1582558765.788069,106461.747538,0,2.367508,99.33626
1582559374.540447,151,0,1582559373.998356,41.20619896714042,29.07337703950185,177.4606,0.0857615,225.4930127305817,3,16.00241654736175,-9999,106464.3567245417,1.007125854492188,0.1104736328125,-0.0124053955078125,106464.3506815417,1.50493749686183,1.558786143669694,-0.1179733195147171,-0.07848963141441345,0.4660915434360504,0.1591168642044067,-0.04628276824951172,0.008565425872802734,-0.04406166076660156,2,0.5101339018609675,-0.4835288967633553,-0.4550675841552963,-0.5466961798927018,0.9929776191711426,0.1176998540759087,-0.01192641630768776,44.22577667236328,17.583984375,-15.3543701171875,2,106463.8180885417,4,2,1582559373.990163,1582558685.643339,11,0.6387488,0,0,10.91,0,0,1582558765.788069,106461.747538,0,2.367508,99.33626
1582559374.541373,152,0,1582559373.998356,41.20619896714042,29.07337703950185,177.4606,0.0857615,225.4930127305817,3,16.00241654736175,-9999,106464.3667645417,1.043853759765625,0.110076904296875,0.029541015625,106464.3607215417,1.505758113996921,1.562354648360055,-0.1166927383368554,-0.07789681106805801,0.3497396409511566,0.1316013634204865,0.02530825138092041,-0.007068902254104614,0.007096707820892334,2,0.510830700307534,-0.4846234746040374,-0.4547271892116985,-0.5453578075477905,0.9931635856628418,0.1164280772209167,-0.008384167216718197,44.45574188232422,17.64540863037109,-15.0916748046875,2,106463.8180885417,4,2,1582559373.990163,1582558685.643339,11,0.6387488,0,0,10.91,0,0,1582558765.788069,106461.747538,0,2.367508,99.33626
1582559374.541788,153,0,1582559373.998356,41.20619896714042,29.07337703950185,177.4606,0.0857615,225.4930127305817,3,16.00241654736175,-9999,106464.3768045417,1.034713745117188,0.100372314453125,0.0188140869140625,106464.3707925417,1.506516200868881,1.5646808335292,-0.1158957959399051,-0.07501182705163956,0.2242337763309479,0.0825795903801918,0.05141353607177734,-0.006170123815536499,0.03649365901947021,2,0.5113484771241092,-0.4852685030287379,-0.4545550162604634,-0.5444418148571118,0.9932729601860046,0.115636520087719,-0.006074429955333471,44.45574188232422,17.64540863037109,-15.0916748046875,2,106463.8180885417,4,2,1582559373.990163,1582558685.643339,11,0.6387488,0,0,10.91,0,0,1582558765.788069,106461.747538,0,2.367508,99.33626
1582559374.550886,154,0,1582559373.998356,41.20619896714042,29.07337703950185,177.4606,0.0857615,225.4930127305817,3,16.00241654736175,-9999,106464.3868445417,1.007736206054688,0.0979766845703125,-0.006195068359375,106464.3808325417,1.507209001691833,1.566544235999404,-0.1156884847436998,-0.07071322202682495,0.1782892048358917,0.02302438393235207,0.03500723838806152,-0.01730138063430786,0.01680433750152588,2,0.5118894291271505,-0.4856515055990057,-0.4543229608611918,-0.543785265489513,0.9933065176010132,0.1154306009411812,-0.004223654977977276,44.58612823486328,17.34964752197266,-14.9305419921875,2,106463.8180885417,4,2,1582559373.990163,1582558685.643339,11,0.6387488,0,0,10.91,0,0,1582558765.788069,106461.747538,0,2.367508,99.33626
1582559374.560699,155,0,1582559373.998356,41.20619896714042,29.07337703950185,177.4606,0.0857615,225.4930127305817,3,16.00241654736175,-9999,106464.3968855417,1.023330688476562,0.094940185546875,0.0042724609375,106464.3908735417,1.507748901804324,1.568287419401294,-0.1161364379583,-0.05235392600297928,0.1733763664960861,-0.04473255574703217,0.01315701007843018,-0.01721248030662537,-0.005115330219268799,2,0.5125255426753915,-0.4858719645840034,-0.453901911587707,-0.5433406984067382,0.9932606816291809,0.1158755421638489,-0.002492004306986928,44.58612823486328,17.34964752197266,-14.9305419921875,2,106463.8180885417,4,2,1582559373.990163,1582558685.643339,11,0.6387488,0,0,10.91,0,0,1582558765.788069,106461.747538,0,2.367508,99.33626
1582559374.57098,156,0,1582559373.998356,41.20619896714042,29.07337703950185,177.4606,0.0857615,225.4930127305817,3,16.00241654736175,-9999,106464.4069255417,1.032501220703125,0.1013641357421875,0.018310546875,106464.4009135417,1.508173322124522,1.569487205919431,-0.1171779983752428,-0.04209915921092033,0.1187314987182617,-0.1061322689056396,0.03460800647735596,-0.02313032746315002,0.009073019027709961,2,0.5131543913536681,-0.4858214683271029,-0.4534270730177055,-0.5431886084650319,0.9931415915489197,0.1169100254774094,-0.001300143077969551,44.46930694580078,17.5057373046875,-14.6407470703125,2,106463.8180885417,4,2,1582559373.990163,1582558685.643339,11,0.6387488,0,0,10.91,0,0,1582558765.788069,106461.747538,0,2.367508,99.33626
1582559374.58709,157,0,1582559373.998356,41.20619896714042,29.07337703950185,177.4606,0.0857615,225.4930127305817,3,16.00241654736175,-9999,106464.4169655417,1.004486083984375,0.120819091796875,0.0068817138671875,106464.4109535417,1.508483668715185,1.570042579245,-0.1184911312819616,-0.03219131380319595,0.05271389335393906,-0.128102719783783,0.03511297702789307,-0.01213648915290833,0.01853096485137939,2,0.5136748681121305,-0.485555247896864,-0.4530124561416337,-0.543280622844141,0.9929877519607544,0.1182140558958054,-0.0007484622183255851,44.46930694580078,17.5057373046875,-14.6407470703125,2,106463.8180885417,4,2,1582559373.990163,1582558685.643339,11,0.6387488,0,0,10.91,0,0,1582558765.788069,106461.747538,0,2.367508,99.33626
1582559374.590953,158,0,1582559373.998356,41.20619896714042,29.07337703950185,177.4606,0.0857615,225.4930127305817,3,16.00241654736175,-9999,106464.4270065417,0.9987640380859375,0.1157684326171875,0.0004119873046875,106464.4209945417,1.508603264127654,1.570346104064713,-0.1199608125831614,-0.0127121526747942,0.03785398602485657,-0.1421176195144653,0.006845414638519287,0.002013355493545532,0.003626585006713867,2,0.5141295467263364,-0.4852291372765629,-0.4525678533023386,-0.543512353242203,0.9928130507469177,0.1196733042597771,-0.0004469870473258197,44.51949310302734,17.53255462646484,-14.5294189453125,2,106463.8180885417,4,2,1582559373.990163,1582558685.643339,11,0.6387488,0,0,10.91,0,0,1582558765.788069,106461.747538,0,2.367508,99.33626
1582559374.601134,159,0,1582559373.998356,41.20619896714042,29.07337703950185,177.4606,0.0857615,225.4930127305817,3,16.00241654736175,-9999,106464.4370465417,1.015548706054688,0.112701416015625,0.0199737548828125,106464.4310345417,1.508554379249542,1.570220701567937,-0.1215359654547266,0.0036052823998034,0.002571024000644684,-0.15793776512146,0.007996678352355957,-0.007485777139663696,0.002179741859436035,2,0.5144714773275694,-0.4848024437012058,-0.452158850277565,-0.543910052374302,0.992623507976532,0.1212369874119759,-0.000571379205211997,44.51949310302734,17.53255462646484,-14.5294189453125,2,106463.8180885417,4,2,1582559373.990163,1582558685.643339,11,0.6387488,0,0,10.91,0,0,1582558765.788069,106461.747538,0,2.367508,99.33626
1582559374.61089,160,0,1582559373.998356,41.20619896714042,29.07337703950185,177.4606,0.0857615,225.4930127305817,3,16.00241654736175,-9999,106464.4470865417,1.026596069335938,0.1125335693359375,0.0277862548828125,106464.4410745417,1.50841370465886,1.569011988118313,-0.123041942727755,0.01500654127448797,-0.1208092272281647,-0.1509656012058258,0.02652287483215332,-0.009545862674713135,0.02570319175720215,2,0.5145295115638753,-0.484121841995451,-0.4520220776810287,-0.5445744363661357,0.9924381375312805,0.1227317154407501,-0.001770847709849477,44.33292388916016,17.62637329101562,-14.63580322265625,2,106463.8180885417,4,2,1582559373.990163,1582558685.643339,11,0.6387488,0,0,10.91,0,0,1582558765.788069,106461.747538,0,2.367508,99.33626
