loggingTime,loggingSample,identifierForVendor,locationTimestamp_since1970,locationLatitude,locationLongitude,locationAltitude,locationSpeed,locationCourse,locationVerticalAccuracy,locationHorizontalAccuracy,locationFloor,accelerometerTimestamp_sinceReboot,accelerometerAccelerationX,accelerometerAccelerationY,accelerometerAccelerationZ,motionTimestamp_sinceReboot,motionYaw,motionRoll,motionPitch,motionRotationRateX,motionRotationRateY,motionRotationRateZ,motionUserAccelerationX,motionUserAccelerationY,motionUserAccelerationZ,motionAttitudeReferenceFrame,motionQuaternionX,motionQuaternionY,motionQuaternionZ,motionQuaternionW,motionGravityX,motionGravityY,motionGravityZ,motionMagneticFieldX,motionMagneticFieldY,motionMagneticFieldZ,motionMagneticFieldCalibrationAccuracy,activityTimestamp_sinceReboot,activity,activityActivityConfidence,activityActivityStartDate,pedometerStartDate,pedometerNumberofSteps,pedometerAverageActivePace,pedometerCurrentPace,pedometerCurrentCadence,pedometerDistance,pedometerFloorAscended,pedometerFloorDescended,pedometerEndDate,altimeterTimestamp_sinceReboot,altimeterReset,altimeterRelativeAltitude,altimeterPressure
1580907126.74167,1,0,1580907081.99744,41.20925486917037,29.07624497871732,260.2424,-1,-1,15.67298984527588,48.00724964208526,-9999,10842.50921604167,0.976593017578125,0.0899810791015625,-0.176239013671875,10842.50418004167,-1.583180565467408,1.390328282765979,-0.0960741638330088,-0.008512867614626884,0.06793937832117081,-0.0001063831150531769,-0.02538293600082397,-0.005974024534225464,-0.009798884391784668,2,-0.4292669382244377,-0.4758137723670862,0.5673564152382111,-0.5171439014627751,0.9792230725288391,0.095926433801651,-0.1786623001098633,40.25509643554688,27.33939170837402,-9.469146728515625,2,10841.78791991667,2,0,1580907126.029086,1580903939.50652,2188,0.4597634,0,0,2731.799,9,8,1580907102.640174,10839.458293,0,16.9584,97.00626
1580907126.74256,2,0,1580907081.99744,41.20925486917037,29.07624497871732,260.2424,-1,-1,15.67298984527588,48.00724964208526,-9999,10842.51925604167,0.961456298828125,0.095245361328125,-0.17315673828125,10842.51422104167,-1.583057286833375,1.390459477762058,-0.09607869788712195,-0.01254462637007236,0.004922859370708466,0.01208157371729612,-0.01475542783737183,-0.006054878234863281,-0.004159927368164062,2,-0.429273522112776,-0.475875361906855,0.5672973620242536,-0.5171466499696631,0.979246199131012,0.09593094885349274,-0.1785337626934052,40.08428955078125,27.42426490783691,-9.50634765625,2,10841.78791991667,2,0,1580907126.029086,1580903939.50652,2188,0.4597634,0,0,2731.799,9,8,1580907102.640174,10839.458293,0,16.9584,97.00626
1580907126.743329,3,0,1580907081.99744,41.20925486917037,29.07624497871732,260.2424,-1,-1,15.67298984527588,48.00724964208526,-9999,10842.52929604167,0.9568328857421875,0.0907440185546875,-0.187896728515625,10842.52426104167,-1.583009304665672,1.390646776728486,-0.0959991422038059,-0.002743544988334179,0.01946384459733963,0.01251520402729511,-0.00939488410949707,-0.001931935548782349,0.008108675479888916,2,-0.4293375580966826,-0.4759132346876354,0.5672278928954011,-0.5171347767803839,0.9792870283126831,0.09585175663232803,-0.1783517152070999,40.08428955078125,27.42426490783691,-9.50634765625,2,10841.78791991667,2,0,1580907126.029086,1580903939.50652,2188,0.4597634,0,0,2731.799,9,8,1580907102.640174,10839.458293,0,16.9584,97.00626
1580907126.749118,4,0,1580907081.99744,41.20925486917037,29.07624497871732,260.2424,-1,-1,15.67298984527588,48.00724964208526,-9999,10842.53936704167,0.956085205078125,0.0900726318359375,-0.1865386962890625,10842.53430104167,-1.582914958964327,1.390911495055447,-0.09591594122361437,-0.002936091739684343,0.02933618053793907,0.009796382859349251,-0.02838611602783203,-0.003374725580215454,-0.0109637975692749,2,-0.4294135053546888,-0.4759801401325087,0.5671290495982855,-0.5171185624120535,0.9793421030044556,0.09576894342899323,-0.178093895316124,40.33259582519531,27.39804458618164,-9.504852294921875,2,10841.78791991667,2,0,1580907126.029086,1580903939.50652,2188,0.4597634,0,0,2731.799,9,8,1580907102.640174,10839.458293,0,16.9584,97.00626
1580907126.759174,5,0,1580907081.99744,41.20925486917037,29.07624497871732,260.2424,-1,-1,15.67298984527588,48.00724964208526,-9999,10842.54940804167,0.9636688232421875,0.0920562744140625,-0.1795806884765625,10842.54434204167,-1.582869533972609,1.391175041750446,-0.09581493104758232,-0.00276583805680275,0.02542885392904282,0.01058289129287004,-0.02365148067474365,-0.006615668535232544,-0.01161754131317139,2,-0.42950573741196,-0.4760315776747863,0.5670393205563278,-0.5170930357411692,0.9793984889984131,0.09566839039325714,-0.1778375208377838,40.33259582519531,27.39804458618164,-9.504852294921875,2,10841.78791991667,2,0,1580907126.029086,1580903939.50652,2188,0.4597634,0,0,2731.799,9,8,1580907102.640174,10839.458293,0,16.9584,97.00626
1580907126.769165,6,0,1580907081.99744,41.20925486917037,29.07624497871732,260.2424,-1,-1,15.67298984527588,48.00724964208526,-9999,10842.55944804167,0.969879150390625,0.09326171875,-0.1767578125,10842.55438204167,-1.582796548592754,1.391287634458861,-0.09570230132496579,-0.001665419898927212,0.01248695701360703,0.01150967087596655,-0.0222175121307373,-0.004077106714248657,-0.00594329833984375,2,-0.4295518570764106,-0.4760468647721079,0.5669724099926248,-0.5171140449085874,0.9794291257858276,0.09555628150701523,-0.1777291744947433,40.45191955566406,27.62000274658203,-9.5474853515625,2,10841.78791991667,2,0,1580907126.029086,1580903939.50652,2188,0.4597634,0,0,2731.799,9,8,1580907102.640174,10839.458293,0,16.9584,97.00626
1580907126.786161,7,0,1580907081.99744,41.20925486917037,29.07624497871732,260.2424,-1,-1,15.67298984527588,48.00724964208526,-9999,10842.56948804167,0.970367431640625,0.0943450927734375,-0.17462158203125,10842.56442204167,-1.582840312088311,1.391149527342314,-0.09562666593851027,0.01699002459645271,-0.0148048521950841,-0.0002865344285964966,-0.01243460178375244,-0.0029945969581604,-0.001442551612854004,2,-0.429544358735067,-0.4759819221743715,0.5669973353746882,-0.5171526105295433,0.9794116020202637,0.09548099339008331,-0.1778657138347626,40.38639831542969,27.4799633026123,-9.469757080078125,2,10841.78791991667,2,0,1580907126.029086,1580903939.50652,2188,0.4597634,0,0,2731.799,9,8,1580907102.640174,10839.458293,0,16.9584,97.00626
1580907126.78928,8,0,1580907081.99744,41.20925486917037,29.07624497871732,260.2424,-1,-1,15.67298984527588,48.00724964208526,-9999,10842.57952804167,0.958953857421875,0.0869598388671875,-0.1871795654296875,10842.57449304167,-1.582871163472214,1.391035206311301,-0.0955579988179924,0.004292869940400124,-0.007774373516440392,0.003619257360696793,-0.009887635707855225,-0.0004083812236785889,0.001951694488525391,2,-0.4295384938359496,-0.4759277748049682,0.5670153538401287,-0.5171877271338782,0.9793978333473206,0.09541263431310654,-0.1779788732528687,40.38639831542969,27.4799633026123,-9.469757080078125,2,10841.78791991667,2,0,1580907126.029086,1580903939.50652,2188,0.4597634,0,0,2731.799,9,8,1580907102.640174,10839.458293,0,16.9584,97.00626
1580907126.799318,9,0,1580907081.99744,41.20925486917037,29.07624497871732,260.2424,-1,-1,15.67298984527588,48.00724964208526,-9999,10842.58956904167,0.9622955322265625,0.089599609375,-0.1854400634765625,10842.58453304167,-1.582880931831766,1.39096906927264,-0.09555145273475141,0.003063094802200794,-0.007904521189630032,-0.001337295863777399,-0.021198570728302,-0.007283508777618408,-0.008374691009521484,2,-0.4295239511831199,-0.4759068289062443,0.5670306594778465,-0.5172021309948913,0.979386568069458,0.09540612250566483,-0.1780437380075455,40.45109558105469,27.68177032470703,-9.561370849609375,2,10841.78791991667,2,0,1580907126.029086,1580903939.50652,2188,0.4597634,0,0,2731.799,9,8,1580907102.640174,10839.458293,0,16.9584,97.00626
1580907126.809405,10,0,1580907081.99744,41.20925486917037,29.07624497871732,260.2424,-1,-1,15.67298984527588,48.00724964208526,-9999,10842.59960904167,0.964447021484375,0.0902557373046875,-0.1819000244140625,10842.59457404167,-1.582942069334833,1.390932949115596,-0.09556824092220587,0.006510291248559952,-0.00106445886194706,-0.002252091653645039,-0.02013754844665527,-0.007269740104675293,-0.0104449987411499,2,-0.4295234958265614,-0.4758887914448985,0.5670578264486211,-0.5171895132401944,0.9793787002563477,0.09542283415794373,-0.1780788451433182,40.45109558105469,27.68177032470703,-9.561370849609375,2,10841.78791991667,2,0,1580907126.029086,1580903939.50652,2188,0.4597634,0,0,2731.799,9,8,1580907102.640174,10839.458293,0,16.9584,97.00626
1580907126.819443,11,0,1580907081.99744,41.20925486917037,29.07624497871732,260.2424,-1,-1,15.67298984527588,48.00724964208526,-9999,10842.60964904167,0.9658660888671875,0.0901641845703125,-0.181121826171875,10842.60461404167,-1.582968935285683,1.390808907546096,-0.09561159092587874,0.007033176720142365,-0.012924425303936,-0.005806727334856987,-0.01895171403884888,-0.005146294832229614,-0.007119894027709961,2,-0.4294826424830974,-0.4758622546072245,0.5671005339051285,-0.5172007542429837,0.9793522953987122,0.09546598047018051,-0.1781995445489883,40.40628814697266,27.42879104614258,-9.490570068359375,2,10841.78791991667,2,0,1580907126.029086,1580903939.50652,2188,0.4597634,0,0,2731.799,9,8,1580907102.640174,10839.458293,0,16.9584,97.00626
1580907126.829409,12,0,1580907081.99744,41.20925486917037,29.07624497871732,260.2424,-1,-1,15.67298984527588,48.00724964208526,-9999,10842.61972004167,0.954925537109375,0.089691162109375,-0.185089111328125,10842.61465404167,-1.583011117276419,1.390684381940413,-0.09563754355373662,0.003880261443555355,-0.01330206170678139,-0.003241037949919701,-0.01485300064086914,-0.005736768245697021,-0.004312515258789062,2,-0.4294500731932518,-0.475827805856084,0.5671436932160591,-0.5172122301411118,0.9793277382850647,0.09549181908369064,-0.1783210635185242,40.40628814697266,27.42879104614258,-9.490570068359375,2,10841.78791991667,2,0,1580907126.029086,1580903939.50652,2188,0.4597634,0,0,2731.799,9,8,1580907102.640174,10839.458293,0,16.9584,97.00626
1580907126.844584,13,0,1580907081.99744,41.20925486917037,29.07624497871732,260.2424,-1,-1,15.67298984527588,48.00724964208526,-9999,10842.62976004167,0.950439453125,0.090118408203125,-0.1870574951171875,10842.62469404167,-1.583002408179746,1.390695936102854,-0.09561431833151801,0.004133447073400021,0.003559894859790802,0.001328964717686176,-0.02318847179412842,-0.005637258291244507,-0.007283687591552734,2,-0.4294577870168412,-0.4758265794279292,0.5671340428500814,-0.5172175447759582,0.9793319702148438,0.09546869993209839,-0.1783101558685303,40.28235626220703,27.82746315002441,-9.532257080078125,2,10841.78791991667,2,0,1580907126.029086,1580903939.50652,2188,0.4597634,0,0,2731.799,9,8,1580907102.640174,10839.458293,0,16.9584,97.00626
1580907126.849561,14,0,1580907081.99744,41.20925486917037,29.07624497871732,260.2424,-1,-1,15.67298984527588,48.00724964208526,-9999,10842.63980104167,0.95794677734375,0.091217041015625,-0.183990478515625,10842.63473504167,-1.583002471571545,1.390776649540839,-0.09554013111495663,0.001794393174350262,0.008791675791144371,0.007477404549717903,-0.03184628486633301,-0.006081998348236084,-0.01138973236083984,2,-0.4295014412653467,-0.4758280284408234,0.5671010502379615,-0.5172163073965821,0.9793534874916077,0.09539484977722168,-0.1782324016094208,40.28235626220703,27.82746315002441,-9.532257080078125,2,10841.78791991667,2,0,1580907126.029086,1580903939.50652,2188,0.4597634,0,0,2731.799,9,8,1580907102.640174,10839.458293,0,16.9584,97.00626
1580907126.859583,15,0,1580907081.99744,41.20925486917037,29.07624497871732,260.2424,-1,-1,15.67298984527588,48.00724964208526,-9999,10842.64984104167,0.96185302734375,0.0916900634765625,-0.18414306640625,10842.64477504167,-1.582961533631863,1.390875092245817,-0.0954413029667778,0.000629340298473835,0.009694002568721771,0.01032009720802307,-0.02647155523300171,-0.0045185387134552,-0.008539736270904541,2,-0.4295473206901015,-0.475836381707769,0.5670483857146082,-0.5172282660748836,0.9793803095817566,0.0952964723110199,-0.1781376749277115,40.40017700195312,27.59366989135742,-9.668182373046875,2,10841.78791991667,2,0,1580907126.029086,1580903939.50652,2188,0.4597634,0,0,2731.799,9,8,1580907102.640174,10839.458293,0,16.9584,97.00626
1580907126.869568,16,0,1580907081.99744,41.20925486917037,29.07624497871732,260.2424,-1,-1,15.67298984527588,48.00724964208526,-9999,10842.65988104167,0.96185302734375,0.091033935546875,-0.1833343505859375,10842.65484604167,-1.582971823133316,1.391004368238461,-0.09535462167381285,0.003514875657856464,0.01351483911275864,0.00844922661781311,-0.02020096778869629,-0.004233717918395996,-0.00845181941986084,2,-0.4296107776489281,-0.4758448542972187,0.5670048695889022,-0.5172152759217908,0.979411244392395,0.09521018713712692,-0.1780125051736832,40.40017700195312,27.59366989135742,-9.668182373046875,2,10841.78791991667,2,0,1580907126.029086,1580903939.50652,2188,0.4597634,0,0,2731.799,9,8,1580907102.640174,10839.458293,0,16.9584,97.00626
1580907126.879633,17,0,1580907081.99744,41.20925486917037,29.07624497871732,260.2424,-1,-1,15.67298984527588,48.00724964208526,-9999,10842.66992104167,0.9648590087890625,0.089569091796875,-0.1842803955078125,10842.66488604167,-1.582934002649799,1.391143578954166,-0.09529164154610029,0.0001103850081562996,0.01435155048966408,0.005833039060235023,-0.02043002843856812,-0.003743588924407959,-0.007412314414978027,2,-0.4296588508121661,-0.4758725064630697,0.5669518752296646,-0.5172081616372302,0.9794420599937439,0.09514749050140381,-0.1778772622346878,40.33404541015625,27.45757484436035,-9.651885986328125,2,10841.78791991667,2,0,1580907126.029086,1580903939.50652,2188,0.4597634,0,0,2731.799,9,8,1580907102.640174,10839.458293,0,16.9584,97.00626
1580907126.889576,18,0,1580907081.99744,41.20925486917037,29.07624497871732,260.2424,-1,-1,15.67298984527588,48.00724964208526,-9999,10842.67996204167,0.97027587890625,0.0902252197265625,-0.180511474609375,10842.67492604167,-1.582928479747445,1.391239571268817,-0.09523869228932959,5.632266402244568e-05,0.01071447320282459,0.004900666885077953,-0.01849889755249023,-0.005796462297439575,-0.008711099624633789,2,-0.4296996208456759,-0.4758846233743906,0.5669185778293877,-0.5171995322959529,0.9794639945030212,0.09509478509426117,-0.1777841150760651,40.33404541015625,27.45757484436035,-9.651885986328125,2,10841.78791991667,2,0,1580907126.029086,1580903939.50652,2188,0.4597634,0,0,2731.799,9,8,1580907102.640174,10839.458293,0,16.9584,97.00626
1580907126.903965,19,0,1580907081.99744,41.20925486917037,29.07624497871732,260.2424,-1,-1,15.67298984527588,48.00724964208526,-9999,10842.69000204167,0.969635009765625,0.09075927734375,-0.17864990234375,10842.68496704167,-1.582888594373493,1.391239821484939,-0.09519910714937287,-0.0002654818817973137,0.00124758668243885,0.003302082419395447,-0.01268911361694336,-0.005360215902328491,-0.006208240985870361,2,-0.4297012704849928,-0.4758829020284537,0.5668998400751132,-0.5172203767285092,0.9794678092002869,0.09505537897348404,-0.1777845621109009,40.39546966552734,27.5288028717041,-9.60662841796875,2,10841.78791991667,2,0,1580907126.029086,1580903939.50652,2188,0.4597634,0,0,2731.799,9,8,1580907102.640174,10839.458293,0,16.9584,97.00626
1580907126.909674,20,0,1580907081.99744,41.20925486917037,29.07624497871732,260.2424,-1,-1,15.67298984527588,48.00724964208526,-9999,10842.70007304167,0.970794677734375,0.092437744140625,-0.17572021484375,10842.69500704167,-1.582912466119636,1.39106055884809,-0.09516765384799296,0.003136173821985722,-0.01825367659330368,0.001745731569826603,-0.01204979419708252,-0.004474371671676636,-0.003025650978088379,2,-0.429664951094134,-0.4758231717694812,0.5669378620687596,-0.5172638321326254,0.9794389009475708,0.09502406418323517,-0.177960678935051,40.39546966552734,27.5288028717041,-9.60662841796875,2,10841.78791991667,2,0,1580907126.029086,1580903939.50652,2188,0.4597634,0,0,2731.799,9,8,1580907102.640174,10839.458293,0,16.9584,97.00626
1580907126.91981,21,0,1580907081.99744,41.20925486917037,29.07624497871732,260.2424,-1,-1,15.67298984527588,48.00724964208526,-9999,10842.71011304167,0.962738037109375,0.090728759765625,-0.181976318359375,10842.70504704167,-1.582945390041764,1.390748551836804,-0.09515996847743922,0.007390548475086689,-0.0320448987185955,-0.0005261143669486046,-0.01135396957397461,-0.00362744927406311,-0.0005831718444824219,2,-0.4295865268088628,-0.4757333606501863,0.5670117419079385,-0.517330456952527,0.9793839454650879,0.09501641243696213,-0.1782663762569427,40.36847686767578,27.47719764709473,-9.60699462890625,2,10841.78791991667,2,0,1580907126.029086,1580903939.50652,2188,0.4597634,0,0,2731.799,9,8,1580907102.640174,10839.458293,0,16.9584,97.00626
1580907126.929787,22,0,1580907081.99744,41.20925486917037,29.07624497871732,260.2424,-1,-1,15.67298984527588,48.00724964208526,-9999,10842.72015304167,0.9548187255859375,0.090179443359375,-0.1878204345703125,10842.71508704167,-1.583047615240964,1.390545038817772,-0.09519998057916459,0.009918420575559139,-0.01673012413084507,-0.005936326459050179,-0.0152658224105835,-0.003362268209457397,-0.002444028854370117,2,-0.4295419440424871,-0.4756692364162534,0.567090355740324,-0.5173401964236821,0.9793438315391541,0.09505624324083328,-0.1784649938344955,40.36847686767578,27.47719764709473,-9.60699462890625,2,10841.78791991667,2,0,1580907126.029086,1580903939.50652,2188,0.4597634,0,0,2731.799,9,8,1580907102.640174,10839.458293,0,16.9584,97.00626
1580907126.939903,23,0,1580907081.99744,41.20925486917037,29.07624497871732,260.2424,-1,-1,15.67298984527588,48.00724964208526,-9999,10842.73019404167,0.963134765625,0.088531494140625,-0.1828765869140625,10842.72512804167,-1.583119038507897,1.390394918109932,-0.09527970457130944,0.008827324025332928,-0.01400144957005978,-0.01037901174277067,-0.02693510055541992,-0.005318611860275269,-0.01111757755279541,2,-0.4294939793867329,-0.4756359835744751,0.567157981659511,-0.5173365657630796,0.9793096780776978,0.09513560682535172,-0.1786106675863266,40.50759887695312,27.38134956359863,-9.714630126953125,2,10841.78791991667,2,0,1580907126.029086,1580903939.50652,2188,0.4597634,0,0,2731.799,9,8,1580907102.640174,10839.458293,0,16.9584,97.00626
1580907126.950357,24,0,1580907081.99744,41.20925486917037,29.07624497871732,260.2424,-1,-1,15.67298984527588,48.00724964208526,-9999,10842.74023404167,0.9668121337890625,0.0902099609375,-0.182098388671875,10842.73519904167,-1.583223588033076,1.390229934454119,-0.09538413111110319,0.00871866662055254,-0.01531731709837914,-0.01264030113816261,-0.02120423316955566,-0.006506174802780151,-0.007524073123931885,2,-0.4294427450758782,-0.4755982516104893,0.5672425898677202,-0.5173211241840935,0.9792704582214355,0.09523955732584,-0.1787704676389694,40.50759887695312,27.38134956359863,-9.714630126953125,2,10841.78791991667,2,0,1580907126.029086,1580903939.50652,2188,0.4597634,0,0,2731.799,9,8,1580907102.640174,10839.458293,0,16.9584,97.00626
1580907126.96608,25,0,1580907081.99744,41.20925486917037,29.07624497871732,260.2424,-1,-1,15.67298984527588,48.00724964208526,-9999,10842.75027404167,0.9649505615234375,0.0909271240234375,-0.18310546875,10842.74523904167,-1.583312519649973,1.390020179733071,-0.09550144851726343,0.01100061554461718,-0.01956813037395477,-0.0141523340716958,-0.01549452543258667,-0.006058722734451294,-0.004924595355987549,2,-0.429371538598813,-0.4755556370031968,0.5673354372091844,-0.5173174586779863,0.9792218208312988,0.09535634517669678,-0.1789738386869431,40.47927856445312,27.46087265014648,-9.764404296875,2,10841.78791991667,2,0,1580907126.029086,1580903939.50652,2188,0.4597634,0,0,2731.799,9,8,1580907102.640174,10839.458293,0,16.9584,97.00626
1580907126.969955,26,0,1580907081.99744,41.20925486917037,29.07624497871732,260.2424,-1,-1,15.67298984527588,48.00724964208526,-9999,10842.76031504167,0.9589080810546875,0.090850830078125,-0.183685302734375,10842.75527904167,-1.583407569018648,1.389780027800446,-0.09560046391113119,0.008105759508907795,-0.02340787649154663,-0.0109746502712369,-0.0150301456451416,-0.004799455404281616,-0.00575864315032959,2,-0.4292982396667189,-0.4754990794186432,0.5674325358890744,-0.5173237949762129,0.9791695475578308,0.09545490890741348,-0.1792072951793671,40.47927856445312,27.46087265014648,-9.764404296875,2,10841.78791991667,2,0,1580907126.029086,1580903939.50652,2188,0.4597634,0,0,2731.799,9,8,1580907102.640174,10839.458293,0,16.9584,97.00626
1580907126.980086,27,0,1580907081.99744,41.20925486917037,29.07624497871732,260.2424,-1,-1,15.67298984527588,48.00724964208526,-9999,10842.77035504167,0.95635986328125,0.092193603515625,-0.186065673828125,10842.76531904167,-1.58344632651196,1.389588141932794,-0.09565135363580458,0.006840130314230919,-0.01755355857312679,-0.006374288350343704,-0.02085018157958984,-0.004773944616317749,-0.005952596664428711,2,-0.4292387106139861,-0.4754544879994572,0.5674945368017512,-0.5173462607331653,0.9791304469108582,0.09550556540489197,-0.179394319653511,40.43115234375,27.61968231201172,-9.6298828125,2,10841.78791991667,2,0,1580907126.029086,1580903939.50652,2188,0.4597634,0,0,2731.799,9,8,1580907102.640174,10839.458293,0,16.9584,97.00626
1580907126.990182,28,0,1580907081.99744,41.20925486917037,29.07624497871732,260.2424,-1,-1,15.67298984527588,48.00724964208526,-9999,10842.78042604167,0.9613800048828125,0.0939483642578125,-0.1842041015625,10842.77536004167,-1.583517382602992,1.389384508184802,-0.09560412467296833,0.008042814210057259,-0.02058769762516022,0.003505772911012173,-0.02563989162445068,-0.003811299800872803,-0.008208513259887695,2,-0.4292110384345779,-0.475374191187093,0.5675466470201611,-0.5173859301219412,0.979098379611969,0.09545855224132538,-0.1795945316553116,40.43115234375,27.61968231201172,-9.6298828125,2,10841.78791991667,2,0,1580907126.029086,1580903939.50652,2188,0.4597634,0,0,2731.799,9,8,1580907102.640174,10839.458293,0,16.9584,97.00626
1580907127.000121,29,0,1580907081.99744,41.20925486917037,29.07624497871732,260.2424,-1,-1,15.67298984527588,48.00724964208526,-9999,10842.79046604167,0.9658203125,0.09295654296875,-0.1823883056640625,10842.78540004167,-1.583585227228741,1.389134663078325,-0.09549895858289162,0.01247914228588343,-0.02321860566735268,0.008782200515270233,-0.0217747688293457,-0.002073705196380615,-0.007168114185333252,2,-0.4291857995863215,-0.4752673810521182,0.5675955331647885,-0.5174512064297826,0.9790632724761963,0.095353864133358,-0.179840937256813,40.41757202148438,27.52136611938477,-9.78155517578125,2,10841.78791991667,2,0,1580907126.029086,1580903939.50652,2188,0.4597634,0,0,2731.799,9,8,1580907102.640174,10839.458293,0,16.9584,97.00626
1580907127.010763,30,0,1580907081.99744,41.20925486917037,29.07624497871732,260.2424,-1,-1,15.67298984527588,48.00724964208526,-9999,10842.80050604167,0.98046875,0.0932464599609375,-0.17633056640625,10842.79544004167,-1.583733815171132,1.388688705640494,-0.09540794947638341,0.0169103778898716,-0.04039652645587921,0.006835696287453175,-0.01735401153564453,-0.001952320337295532,-0.004958748817443848,2,-0.4291200249478004,-0.4750962467744057,0.5677104456898995,-0.5175369447502278,0.9789915680885315,0.09526327252388,-0.1802791208028793,40.41757202148438,27.52136611938477,-9.78155517578125,2,10841.78791991667,2,0,1580907126.029086,1580903939.50652,2188,0.4597634,0,0,2731.799,9,8,1580907102.640174,10839.458293,0,16.9584,97.00626
1580907127.024996,31,0,1580907081.99744,41.20925486917037,29.07624497871732,260.2424,-1,-1,15.67298984527588,48.00724964208526,-9999,10842.81054604167,0.989288330078125,0.09149169921875,-0.174224853515625,10842.80548104167,-1.58389114850649,1.387860945772457,-0.09538113497222192,0.01959126070141792,-0.08020474761724472,-0.001317777670919895,-0.006296634674072266,-0.00273430347442627,0.0002638101577758789,2,-0.4289298963258603,-0.4748412317625766,0.5679230662266579,-0.5176953183977052,0.9788445234298706,0.09523657709360123,-0.1810898929834366,40.34481811523438,27.50101089477539,-9.7720947265625,2,10841.78791991667,2,0,1580907126.029086,1580903939.50652,2188,0.4597634,0,0,2731.799,9,8,1580907102.640174,10839.458293,0,16.9584,97.00626
1580907127.030257,32,0,1580907081.99744,41.20925486917037,29.07624497871732,260.2424,-1,-1,15.67298984527588,48.00724964208526,-9999,10842.82058704167,0.9792327880859375,0.0885467529296875,-0.1791839599609375,10842.81555104167,-1.584058560553929,1.386718927591828,-0.09541012159679002,0.01522980351001024,-0.113884411752224,-0.005511723458766937,0.007784366607666016,-0.002793759107589722,0.00666344165802002,2,-0.4286371717441097,-0.4745172518312348,0.5682173342529839,-0.5179117119246081,0.978634238243103,0.09526543319225311,-0.1822071075439453,40.34481811523438,27.50101089477539,-9.7720947265625,2,10841.78791991667,2,0,1580907126.029086,1580903939.50652,2188,0.4597634,0,0,2731.799,9,8,1580907102.640174,10840.403986,0,16.9584,97.00626
1580907127.040302,33,0,1580907081.99744,41.20925486917037,29.07624497871732,260.2424,-1,-1,15.67298984527588,48.00724964208526,-9999,10842.83062704167,0.962371826171875,0.0852508544921875,-0.1898956298828125,10842.82559204167,-1.584135476822486,1.38550670484306,-0.0955057844004286,0.009029217064380646,-0.1214274689555168,-0.01230324245989323,0.002827763557434082,-0.00632244348526001,0.004066944122314453,2,-0.4282840338238978,-0.474211946512227,0.5685171678648684,-0.5181545076412962,0.9784037470817566,0.0953606590628624,-0.1833916306495667,40.15225982666016,27.69289779663086,-9.863250732421875,2,10841.78791991667,2,0,1580907126.029086,1580903939.50652,2188,0.4597634,0,0,2731.799,9,8,1580907102.640174,10840.403986,0,16.9584,97.00626
1580907127.050334,34,0,1580907081.99744,41.20925486917037,29.07624497871732,260.2424,-1,-1,15.67298984527588,48.00724964208526,-9999,10842.84066704167,0.9453277587890625,0.0860595703125,-0.1974029541015625,10842.83563204167,-1.58415923210854,1.384467760228231,-0.09558340391326006,-0.0001373840495944023,-0.1042958870530128,-0.007149759214371443,-0.01290357112884521,-0.009375303983688354,-0.004131793975830078,2,-0.427972488773958,-0.473958034565476,0.5687620814227914,-0.5183753656956654,0.9782053828239441,0.09543792903423309,-0.1844066679477692,40.15225982666016,27.69289779663086,-9.863250732421875,2,10841.78791991667,2,0,1580907126.029086,1580903939.50652,2188,0.4597634,0,0,2731.799,9,8,1580907102.640174,10840.403986,0,16.9584,97.00626
1580907127.060376,35,0,1580907081.99744,41.20925486917037,29.07624497871732,260.2424,-1,-1,15.67298984527588,48.00724964208526,-9999,10842.85070804167,0.94036865234375,0.09002685546875,-0.1955413818359375,10842.84567204167,-1.58412609725596,1.383702010504647,-0.09561509319143818,-0.0009885299950838089,-0.07447380572557449,-0.003409349359571934,-0.03094732761383057,-0.01055139303207397,-0.01284188032150269,2,-0.4277379148102069,-0.4737749647689327,0.568924004379086,-0.5185586951492652,0.9780609607696533,0.09546946734189987,-0.1851551234722137,40.23508453369141,27.48210525512695,-9.95672607421875,2,10841.78791991667,2,0,1580907126.029086,1580903939.50652,2188,0.4597634,0,0,2731.799,9,8,1580907102.640174,10840.403986,0,16.9584,97.00626
1580907127.070865,36,0,1580907081.99744,41.20925486917037,29.07624497871732,260.2424,-1,-1,15.67298984527588,48.00724964208526,-9999,10842.86077804167,0.94384765625,0.0955810546875,-0.1893310546875,10842.85571204167,-1.584144712081979,1.383057268481813,-0.09557586842004857,0.0025268429890275,-0.06290476769208908,0.003717003390192986,-0.03984916210174561,-0.007109522819519043,-0.01361298561096191,2,-0.4275699473777128,-0.4735934543678358,0.5690584109010524,-0.5187154232773658,0.9779450297355652,0.09543042629957199,-0.1857863664627075,40.23508453369141,27.48210525512695,-9.95672607421875,2,10841.78791991667,2,0,1580907126.029086,1580903939.50652,2188,0.4597634,0,0,2731.799,9,8,1580907102.640174,10840.403986,0,16.9584,97.00626
1580907127.084682,37,0,1580907081.99744,41.20925486917037,29.07624497871732,260.2424,-1,-1,15.67298984527588,48.00724964208526,-9999,10842.87081904167,0.9524383544921875,0.097259521484375,-0.1892547607421875,10842.86575304167,-1.584179935442899,1.382406139139233,-0.09544792274780206,0.01038130465894938,-0.06585241854190826,0.01184768788516521,-0.03816825151443481,-0.001534521579742432,-0.006426572799682617,2,-0.4274289838218369,-0.4733833355497401,0.5691797691161956,-0.5188901430796369,0.9778357744216919,0.09530305862426758,-0.1864253580570221,40.20985412597656,27.54130935668945,-10.07223510742188,2,10841.78791991667,2,0,1580907126.029086,1580903939.50652,2188,0.4597634,0,0,2731.799,9,8,1580907102.640174,10840.403986,0,16.9584,97.00626
1580907127.090524,38,0,1580907081.99744,41.20925486917037,29.07624497871732,260.2424,-1,-1,15.67298984527588,48.00724964208526,-9999,10842.88085904167,0.95404052734375,0.0921173095703125,-0.1938323974609375,10842.87579304167,-1.584256183497758,1.381808412668818,-0.09523796621906545,0.01279173139482737,-0.05913379788398743,0.01920120790600777,-0.03044664859771729,0.002169251441955566,-0.003395497798919678,2,-0.4273359286749098,-0.4731566587879104,0.5692830854125187,-0.5190601541762714,0.9777437448501587,0.09509406238794327,-0.187013566493988,40.20985412597656,27.54130935668945,-10.07223510742188,2,10841.78791991667,2,0,1580907126.029086,1580903939.50652,2188,0.4597634,0,0,2731.799,9,8,1580907102.640174,10840.403986,0,16.9584,97.00626
1580907127.100552,39,0,1580907081.99744,41.20925486917037,29.07624497871732,260.2424,-1,-1,15.67298984527588,48.00724964208526,-9999,10842.89089904167,0.946441650390625,0.0868988037109375,-0.1973724365234375,10842.88583304167,-1.58422897164866,1.381365092146283,-0.0949508668571518,0.005038711242377758,-0.04443632066249847,0.02737928740680218,-0.02486652135848999,-0.00120621919631958,-0.00712120532989502,2,-0.4272839428652184,-0.4729718254676825,0.5693103733929208,-0.5192416935016915,0.9776877164840698,0.09480825811624527,-0.1874521672725677,40.10542297363281,27.40163421630859,-9.86279296875,2,10841.78791991667,2,0,1580907126.029086,1580903939.50652,2188,0.4597634,0,0,2731.799,9,8,1580907102.640174,10840.403986,0,16.9584,97.00626
1580907127.110609,40,0,1580907081.99744,41.20925486917037,29.07624497871732,260.2424,-1,-1,15.67298984527588,48.00724964208526,-9999,10842.90094004167,0.9505157470703125,0.0854949951171875,-0.1978912353515625,10842.89590404167,-1.584161871358462,1.381124410055713,-0.09462607280645681,-0.0002644415944814682,-0.02606636844575405,0.03204274922609329,-0.03222161531448364,-0.006329536437988281,-0.01060295104980469,2,-0.4272909409821558,-0.4728380619515317,0.5692759688960085,-0.519395250669855,0.9776726365089417,0.09448491781949997,-0.1876932382583618,40.10542297363281,27.40163421630859,-9.86279296875,2,10841.78791991667,2,0,1580907126.029086,1580903939.50652,2188,0.4597634,0,0,2731.799,9,8,1580907102.640174,10840.403986,0,16.9584,97.00626
1580907127.120635,41,0,1580907081.99744,41.20925486917037,29.07624497871732,260.2424,-1,-1,15.67298984527588,48.00724964208526,-9999,10842.91098004167,0.95477294921875,0.08612060546875,-0.1963653564453125,10842.90594404167,-1.583996527974511,1.381071188081278,-0.09431359484166121,-0.006383760832250118,-0.005466240458190441,0.03373628482222557,-0.03182870149612427,-0.00923725962638855,-0.01251351833343506,2,-0.4273245525014694,-0.4727772319719078,0.5691786221048608,-0.5195296503034891,0.9776915907859802,0.09417383372783661,-0.187750831246376,40.27691650390625,27.39012908935547,-10.07342529296875,2,10841.78791991667,2,0,1580907126.029086,1580903939.50652,2188,0.4597634,0,0,2731.799,9,8,1580907102.640174,10840.403986,0,16.9584,97.00626
1580907127.131225,42,0,1580907081.99744,41.20925486917037,29.07624497871732,260.2424,-1,-1,15.67298984527588,48.00724964208526,-9999,10842.92102004167,0.95806884765625,0.0880279541015625,-0.19140625,10842.91598504167,-1.583843253164676,1.381047999530122,-0.09403983129126645,-0.009674894623458385,-0.003696570172905922,0.02992503717541695,-0.02634131908416748,-0.007926374673843384,-0.01150941848754883,2,-0.4273586651127289,-0.4727318332158768,0.5690861328531174,-0.5196442848711047,0.9777125716209412,0.09390128403902054,-0.1877783685922623,40.27691650390625,27.39012908935547,-10.07342529296875,2,10841.78791991667,2,0,1580907126.029086,1580903939.50652,2188,0.4597634,0,0,2731.799,9,8,1580907102.640174,10840.403986,0,16.9584,97.00626
1580907127.146668,43,0,1580907081.99744,41.20925486917037,29.07624497871732,260.2424,-1,-1,15.67298984527588,48.00724964208526,-9999,10842.93106004167,0.9549713134765625,0.09210205078125,-0.189544677734375,10842.92602504167,-1.583685488943134,1.380958064231665,-0.09375866882535869,-0.006648048758506775,-0.01073673367500305,0.02953836135566235,-0.02288663387298584,-0.006745457649230957,-0.006991147994995117,2,-0.4273747959369624,-0.4726681037478427,0.5690051694115401,-0.519777758458003,0.9777216911315918,0.09362135827541351,-0.1878712922334671,40.26087951660156,27.37043380737305,-10.04849243164062,2,10841.78791991667,2,0,1580907126.029086,1580903939.50652,2188,0.4597634,0,0,2731.799,9,8,1580907102.640174,10840.403986,0,16.9584,97.00626
1580907127.150929,44,0,1580907081.99744,41.20925486917037,29.07624497871732,260.2424,-1,-1,15.67298984527588,48.00724964208526,-9999,10842.94113104167,0.9399566650390625,0.09161376953125,-0.196502685546875,10842.93606504167,-1.583573213318464,1.380948044262973,-0.09341675106906934,-0.0003033336251974106,-0.001930458471179008,0.03456534445285797,-0.02296197414398193,-0.002589553594589233,-0.003740429878234863,2,-0.4274415471445519,-0.4725993727306203,0.5689060905954463,-0.5198937557333175,0.9777511358261108,0.09328094124794006,-0.187887117266655,40.26094818115234,27.46749877929688,-9.926849365234375,2,10841.78791991667,2,0,1580907126.029086,1580903939.50652,2188,0.4597634,0,0,2731.799,9,8,1580907102.640174,10840.403986,0,16.9584,97.00626
1580907127.161281,45,0,1580907081.99744,41.20925486917037,29.07624497871732,260.2424,-1,-1,15.67298984527588,48.00724964208526,-9999,10842.95117104167,0.9348602294921875,0.0863037109375,-0.20037841796875,10842.94610604167,-1.583505233874865,1.381223984216697,-0.09300877828574007,1.805368810892105e-05,0.02819162048399448,0.04147906973958015,-0.03573155403137207,-0.000778496265411377,-0.007971286773681641,2,-0.4276186656096715,-0.4725780933306337,0.5687434349512565,-0.519945307723245,0.9778401255607605,0.09287473559379578,-0.1876244395971298,40.26094818115234,27.46749877929688,-9.926849365234375,2,10841.78791991667,2,0,1580907126.029086,1580903939.50652,2188,0.4597634,0,0,2731.799,9,8,1580907102.640174,10840.403986,0,16.9584,97.00626
1580907127.170954,46,0,1580907081.99744,41.20925486917037,29.07624497871732,260.2424,-1,-1,15.67298984527588,48.00724964208526,-9999,10842.96121204167,0.94921875,0.0907745361328125,-0.1890106201171875,10842.95614604167,-1.583432364786239,1.381616858298928,-0.09251503304514304,0.005177395418286324,0.04097346216440201,0.04832339286804199,-0.04644012451171875,-0.004924356937408447,-0.01585531234741211,2,-0.4278519306565429,-0.4725656612387009,0.5685363289539664,-0.5199910813117274,0.977958619594574,0.09238311648368835,-0.1872488409280777,40.43373870849609,27.36220169067383,-9.99609375,2,10841.78791991667,2,0,1580907126.029086,1580903939.50652,2188,0.4597634,0,0,2731.799,9,8,1580907102.640174,10840.403986,0,16.9584,97.00626
1580907127.180982,47,0,1580907081.99744,41.20925486917037,29.07624497871732,260.2424,-1,-1,15.67298984527588,48.00724964208526,-9999,10842.97125204167,0.9483489990234375,0.098175048828125,-0.1805877685546875,10842.96618604167,-1.58340860968087,1.381827991031009,-0.09182406597024804,0.01045493315905333,0.02203736826777458,0.06697207689285278,-0.03612059354782104,-0.004020959138870239,-0.007978439331054688,2,-0.4281004158609476,-0.472443518004689,0.5683391956908754,-0.5201130849318721,0.9780606031417847,0.09169508516788483,-0.187054306268692,40.43373870849609,27.36220169067383,-9.99609375,2,10841.78791991667,2,0,1580907126.029086,1580903939.50652,2188,0.4597634,0,0,2731.799,9,8,1580907102.640174,10840.403986,0,16.9584,97.00626
1580907127.191069,48,0,1580907081.99744,41.20925486917037,29.07624497871732,260.2424,-1,-1,15.67298984527588,48.00724964208526,-9999,10842.98129204167,0.9376983642578125,0.10748291015625,-0.176910400390625,10842.97625704167,-1.58339266424151,1.381758592404571,-0.09077515628009923,0.01888490468263626,-0.005499983206391335,0.1020184829831123,-0.0292283296585083,0.006028890609741211,0.002605915069580078,2,-0.4283714336724244,-0.4721523289500172,0.5681284952988677,-0.5203846571192614,0.9781416654586792,0.09065054357051849,-0.1871401816606522,40.26316070556641,27.30509567260742,-10.03573608398438,2,10841.78791991667,2,0,1580907126.029086,1580903939.50652,2188,0.4597634,0,0,2731.799,9,8,1580907102.640174,10840.403986,0,16.9584,97.00626
1580907127.20722,49,0,1580907081.99744,41.20925486917037,29.07624497871732,260.2424,-1,-1,15.67298984527588,48.00724964208526,-9999,10842.99133304167,0.95013427734375,0.11541748046875,-0.169952392578125,10842.98629704167,-1.583627670832205,1.381230925894724,-0.08935284935022721,0.04898389056324959,-0.04665681719779968,0.1342815458774567,-0.04115700721740723,0.01401036977767944,0.007740378379821777,2,-0.4286762746862141,-0.4715892916387729,0.5680022482443853,-0.5207817451064742,0.9781683683395386,0.08923400193452835,-0.1876803785562515,40.26316070556641,27.30509567260742,-10.03573608398438,2,10841.78791991667,2,0,1580907126.029086,1580903939.50652,2188,0.4597634,0,0,2731.799,9,8,1580907102.640174,10840.403986,0,16.9584,97.00626
1580907127.211063,50,0,1580907081.99744,41.20925486917037,29.07624497871732,260.2424,-1,-1,15.67298984527588,48.00724964208526,-9999,10843.00137304167,0.99169921875,0.1178131103515625,-0.1504669189453125,10842.99633704167,-1.584147080400862,1.379740687524456,-0.08773132279694962,0.0828355997800827,-0.131340816617012,0.1526328474283218,-0.03654575347900391,0.02713474631309509,0.01449310779571533,2,-0.4288303519164969,-0.4706612127057975,0.568114456218505,-0.5213717397366125,0.9780283570289612,0.08761882781982422,-0.1891651004552841,40.42826843261719,27.39779472351074,-10.13479614257812,2,10841.78791991667,2,0,1580907126.029086,1580903939.50652,2188,0.4597634,0,0,2731.799,9,8,1580907102.640174,10840.403986,0,16.9584,97.00626
1580907127.221591,51,0,1580907081.99744,41.20925486917037,29.07624497871732,260.2424,-1,-1,15.67298984527588,48.00724964208526,-9999,10843.01141304167,1.01885986328125,0.0943145751953125,-0.1540679931640625,10843.00637804167,-1.585093124012471,1.376741468743722,-0.08635920396063244,0.1191636323928833,-0.307853102684021,0.1185567826032639,-0.00555729866027832,0.0295579731464386,0.0311734676361084,2,-0.4285852688594003,-0.4693126750310191,0.5687145004776701,-0.5221340755964919,0.977573573589325,0.08625189960002899,-0.1921205669641495,40.42826843261719,27.39779472351074,-10.13479614257812,2,10841.78791991667,2,0,1580907126.029086,1580903939.50652,2188,0.4597634,0,0,2731.799,9,8,1580907102.640174,10840.403986,0,16.9584,97.00626
1580907127.231211,52,0,1580907081.99744,41.20925486917037,29.07624497871732,260.2424,-1,-1,15.67298984527588,48.00724964208526,-9999,10843.02149279167,0.9634552001953125,0.0540771484375,-0.2107086181640625,10843.01642679167,-1.586329946098903,1.373746429294915,-0.08551547623180336,0.1465055048465729,-0.2787085473537445,0.05441135540604591,0.04678678512573242,0.02051299810409546,0.04993021488189697,2,-0.4282596009629942,-0.4680414885248946,0.5695013879584236,-0.5226844500067936,0.9770649075508118,0.08541128784418106,-0.1950617581605911,40.36648559570312,27.22980117797852,-10.5277099609375,2,10841.78791991667,2,0,1580907126.029086,1580903939.50652,2188,0.4597634,0,0,2731.799,9,8,1580907102.640174,10840.403986,0,16.9584,97.00626
1580907127.241167,53,0,1580907081.99744,41.20925486917037,29.07624497871732,260.2424,-1,-1,15.67298984527588,48.00724964208526,-9999,10843.03153279167,0.977386474609375,0.0594482421875,-0.2033233642578125,10843.02646679167,-1.587568510416739,1.370831644381362,-0.08508858062719446,0.1249871328473091,-0.2848615348339081,0.01656709052622318,-0.007301211357116699,-0.0215105414390564,-0.003497958183288574,2,-0.4278383237843951,-0.4669007694402378,0.5703592980003734,-0.5231140152858142,0.9765278100967407,0.08498594164848328,-0.1979160755872726,40.36648559570312,27.22980117797852,-10.5277099609375,2,10841.78791991667,2,0,1580907126.029086,1580903939.50652,2188,0.4597634,0,0,2731.799,9,8,1580907102.640174,10840.403986,0,16.9584,97.00626
1580907127.251247,54,0,1580907081.99744,41.20925486917037,29.07624497871732,260.2424,-1,-1,15.67298984527588,48.00724964208526,-9999,10843.04157379167,0.939422607421875,0.0783843994140625,-0.220703125,10843.03650779167,-1.588825201499719,1.368211723738773,-0.08488531524469656,0.1304586082696915,-0.2509320974349976,-0.00478214118629694,-0.00287318229675293,-0.03240063786506653,-0.007567644119262695,2,-0.4274407468723886,-0.4658924315549013,0.5712056558578347,-0.5234145031641987,0.9760228395462036,0.0847834125161171,-0.2004773020744324,40.40557098388672,27.12771224975586,-11.02072143554688,2,10841.78791991667,2,0,1580907126.029086,1580903939.50652,2188,0.4597634,0,0,2731.799,9,8,1580907102.640174,10840.403986,0,16.9584,97.00626
1580907127.264925,55,0,1580907081.99744,41.20925486917037,29.07624497871732,260.2424,-1,-1,15.67298984527588,48.00724964208526,-9999,10843.05161379167,0.927520751953125,0.066925048828125,-0.236053466796875,10843.04654779167,-1.590050699733319,1.36633190231871,-0.08480966935279058,0.1238480731844902,-0.1759808957576752,-0.01814867369830608,-0.02590703964233398,-0.007956773042678833,-0.01265478134155273,2,-0.4272099922633678,-0.4651183913578677,0.5719122442818313,-0.5235197870401299,0.9756506085395813,0.08470803499221802,-0.2023130059242249,40.40557098388672,27.12771224975586,-11.02072143554688,2,10841.78791991667,2,0,1580907126.029086,1580903939.50652,2188,0.4597634,0,0,2731.799,9,8,1580907102.640174,10840.403986,0,16.9584,97.00626
1580907127.271332,56,0,1580907081.99744,41.20925486917037,29.07624497871732,260.2424,-1,-1,15.67298984527588,48.00724964208526,-9999,10843.06165379167,0.924346923828125,0.0617828369140625,-0.24493408203125,10843.05661879167,-1.590970264500929,1.36535468135418,-0.08473556232330445,0.09554293006658554,-0.09390521049499512,-0.01215043570846319,-0.0507083535194397,-0.01433730125427246,-0.03269380331039429,2,-0.4271650205322868,-0.464646361806639,0.5723461726115262,-0.5235013580605793,0.9754585027694702,0.0846341997385025,-0.2032676041126251,40.509521484375,27.11907577514648,-11.1168212890625,2,10841.78791991667,2,0,1580907126.029086,1580903939.50652,2188,0.4597634,0,0,2731.799,9,8,1580907102.640174,10840.403986,0,16.9584,97.00626
1580907127.28129,57,0,1580907081.99744,41.20925486917037,29.07624497871732,260.2424,-1,-1,15.67298984527588,48.00724964208526,-9999,10843.07169379167,0.9160919189453125,0.0639495849609375,-0.2498321533203125,10843.06665879167,-1.591568448476114,1.365564688985099,-0.084581679105695,0.06100054085254669,0.03067465126514435,0.004573263227939606,-0.05062675476074219,-0.02195018529891968,-0.03967165946960449,2,-0.4274072962686344,-0.4645323519370402,0.5724257072112535,-0.5233177572059239,0.9755138754844666,0.08448086678981781,-0.2030653953552246,40.509521484375,27.11907577514648,-11.1168212890625,2,10841.78791991667,2,0,1580907126.029086,1580903939.50652,2188,0.4597634,0,0,2731.799,9,8,1580907102.640174,10840.403986,0,16.9584,97.00626
1580907127.291456,58,0,1580907081.99744,41.20925486917037,29.07624497871732,260.2424,-1,-1,15.67298984527588,48.00724964208526,-9999,10843.08173479167,0.9362945556640625,0.0718536376953125,-0.2262420654296875,10843.07669879167,-1.59184929776297,1.366515006200726,-0.08435125264803651,0.0349886454641819,0.09687444567680359,0.01890932582318783,-0.06264907121658325,-0.02274236083030701,-0.05225467681884766,2,-0.4278091036265428,-0.4646592911424064,0.5722478978927509,-0.5230713203294988,0.9757255911827087,0.08425126224756241,-0.2021422237157822,40.56162261962891,27.23555374145508,-11.46865844726562,2,10841.78791991667,2,0,1580907126.029086,1580903939.50652,2188,0.4597634,0,0,2731.799,9,8,1580907102.640174,10840.403986,0,16.9584,97.00626
1580907127.301555,59,0,1580907081.99744,41.20925486917037,29.07624497871732,260.2424,-1,-1,15.67298984527588,48.00724964208526,-9999,10843.09177479167,0.923797607421875,0.06842041015625,-0.23638916015625,10843.08673979167,-1.591990957525428,1.368207608788806,-0.08418728964133075,0.01643441058695316,0.1650498062372208,0.01493974588811398,-0.0478980541229248,-0.01380476355552673,-0.03358310461044312,2,-0.4283721594742287,-0.4650276276990428,0.571888351950999,-0.5226762275332646,0.9760798811912537,0.08408787846565247,-0.2004932016134262,40.56162261962891,27.23555374145508,-11.46865844726562,2,10841.78791991667,2,0,1580907126.029086,1580903939.50652,2188,0.4597634,0,0,2731.799,9,8,1580907102.640174,10840.403986,0,16.9584,97.00626
1580907127.311544,60,0,1580907081.99744,41.20925486917037,29.07624497871732,260.2424,-1,-1,15.67298984527588,48.00724964208526,-9999,10843.10184579167,0.942779541015625,0.0669097900390625,-0.22637939453125,10843.09677979167,-1.592066316149855,1.370808816467443,-0.08423847930190735,0.01000127755105495,0.2639673352241516,-0.006671540439128876,-0.04874908924102783,-0.01449680328369141,-0.03501641750335693,2,-0.4291188563370224,-0.465704499897359,0.5713610863211207,-0.5220371517320541,0.9765937328338623,0.08413888514041901,-0.1979526579380035,40.45359802246094,27.12629318237305,-11.33590698242188,2,10841.78791991667,2,0,1580907126.029086,1580903939.50652,2188,0.4597634,0,0,2731.799,9,8,1580907102.640174,10840.403986,0,16.9584,97.00626
1580907127.327162,61,0,1580907081.99744,41.20925486917037,29.07624497871732,260.2424,-1,-1,15.67298984527588,48.00724964208526,-9999,10843.11188579167,0.9850311279296875,0.0670013427734375,-0.2010650634765625,10843.10681979167,-1.592153599395013,1.37361592880721,-0.08455601292392517,0.004101909697055817,0.2839957773685455,-0.03350867703557014,-0.04938274621963501,-0.01786574721336365,-0.04121911525726318,2,-0.4298518364821174,-0.4665027032804808,0.5708476817229109,-0.5212827363107956,0.9771194458007812,0.08445528894662857,-0.1952052563428879,40.45359802246094,27.12629318237305,-11.33590698242188,2,10841.78791991667,2,0,1580907126.029086,1580903939.50652,2188,0.4597634,0,0,2731.799,9,8,1580907102.640174,10840.403986,0,16.9584,97.00626
1580907127.331679,62,0,1580907081.99744,41.20925486917037,29.07624497871732,260.2424,-1,-1,15.67298984527588,48.00724964208526,-9999,10843.12192579167,1.010284423828125,0.064727783203125,-0.1904144287109375,10843.11685979167,-1.59215876091765,1.376216656582643,-0.0852163990575039,-0.01063016429543495,0.2602057456970215,-0.06621628999710083,-0.005368947982788086,-0.01789984107017517,-0.01608359813690186,2,-0.4304104593469451,-0.4673548828379802,0.570428333036606,-0.5205166663329259,0.9775686264038086,0.08511330187320709,-0.1926524937152863,40.67864990234375,27.22945785522461,-11.09429931640625,2,10841.78791991667,2,0,1580907126.029086,1580903939.50652,2188,0.4597634,0,0,2731.799,9,8,1580907102.640174,10840.403986,0,16.9584,97.00626
1580907127.341667,63,0,1580907081.99744,41.20925486917037,29.07624497871732,260.2424,-1,-1,15.67298984527588,48.00724964208526,-9999,10843.13196679167,1.026214599609375,0.06573486328125,-0.180419921875,10843.12690079167,-1.592180664604694,1.378346434270291,-0.08628521125706064,-0.01881876587867737,0.214158371090889,-0.1066408604383469,0.02403616905212402,-0.02093574404716492,-0.004516720771789551,2,-0.4307240834152954,-0.468188501991513,0.5702002661922752,-0.519757601916349,0.9778870344161987,0.08617818355560303,-0.1905525773763657,40.67864990234375,27.22945785522461,-11.09429931640625,2,10841.78791991667,2,0,1580907126.029086,1580903939.50652,2188,0.4597634,0,0,2731.799,9,8,1580907102.640174,10840.403986,0,16.9584,97.00626
1580907127.351806,64,0,1580907081.99744,41.20925486917037,29.07624497871732,260.2424,-1,-1,15.67298984527588,48.00724964208526,-9999,10843.14200679167,1.022735595703125,0.081756591796875,-0.17364501953125,10843.13697079167,-1.592188451573568,1.379775345909379,-0.08759883517052743,-0.02187740616500378,0.1465532183647156,-0.1310671120882034,0.0411493182182312,-0.02363631129264832,0.003627538681030273,2,-0.4307661958095994,-0.4689070132772818,0.5701707821203181,-0.519106786505383,0.9780462384223938,0.08748684823513031,-0.1891333907842636,40.48834991455078,27.0974235534668,-11.06576538085938,2,10841.78791991667,2,0,1580907126.029086,1580903939.50652,2188,0.4597634,0,0,2731.799,9,8,1580907102.640174,10840.403986,0,16.9584,97.00626
1580907127.361893,65,0,1580907081.99744,41.20925486917037,29.07624497871732,260.2424,-1,-1,15.67298984527588,48.00724964208526,-9999,10843.15204679167,1.007232666015625,0.0878448486328125,-0.1640777587890625,10843.14701179167,-1.592172309508027,1.380267948948173,-0.08886825305452954,-0.02774269878864288,0.05161267518997192,-0.1246921718120575,0.04667466878890991,-0.01259014010429382,0.01035618782043457,2,-0.4305480074873933,-0.4693753325974719,0.5703274649483823,-0.51869240353832,0.9780295491218567,0.08875132352113724,-0.1886304169893265,40.48834991455078,27.0974235534668,-11.06576538085938,2,10841.78791991667,2,0,1580907126.029086,1580903939.50652,2188,0.4597634,0,0,2731.799,9,8,1580907102.640174,10840.403986,0,16.9584,97.00626
1580907127.371905,66,0,1580907081.99744,41.20925486917037,29.07624497871732,260.2424,-1,-1,15.67298984527588,48.00724964208526,-9999,10843.16208679167,1.006027221679688,0.09381103515625,-0.1689453125,10843.15705179167,-1.59212965650566,1.379815007493879,-0.09002306159323932,-0.02344515547156334,-0.03967037051916122,-0.1123739928007126,0.03088611364364624,-0.002741634845733643,0.0210498571395874,2,-0.4300858714065859,-0.4695734672201379,0.5706564720264369,-0.5185345398960463,0.9778426885604858,0.08990151435136795,-0.1890538036823273,40.55272674560547,27.12604522705078,-10.90478515625,2,10841.78791991667,2,0,1580907126.029086,1580903939.50652,2188,0.4597634,0,0,2731.799,9,8,1580907102.640174,10840.403986,0,16.9584,97.00626
1580907127.393141,67,0,1580907081.99744,41.20925486917037,29.07624497871732,260.2424,-1,-1,15.67298984527588,48.00724964208526,-9999,10843.17212779167,1.025863647460938,0.0953369140625,-0.163421630859375,10843.16709179167,-1.59217283616927,1.378291384771033,-0.09116441155221726,-0.01744490675628185,-0.1452370434999466,-0.1122472584247589,0.02322077751159668,0.0004523098468780518,0.02160763740539551,2,-0.4293416624039953,-0.4694719387770637,0.5712344485599358,-0.5186066718487965,0.9774520397186279,0.09103818982839584,-0.1905236691236496,40.55272674560547,27.12604522705078,-10.90478515625,2,10841.78791991667,2,0,1580907126.029086,1580903939.50652,2188,0.4597634,0,0,2731.799,9,8,1580907102.640174,10840.403986,0,16.9584,97.00626
1580907127.393993,68,0,1580907081.99744,41.20925486917037,29.07624497871732,260.2424,-1,-1,15.67298984527588,48.00724964208526,-9999,10843.18219879167,1.011611938476562,0.0884246826171875,-0.1692657470703125,10843.17713279167,-1.592214674047356,1.375575003858536,-0.09238416359528752,-0.01646193489432335,-0.272876501083374,-0.1197698935866356,0.04179751873016357,0.003690212965011597,0.02453696727752686,2,-0.4282332413566874,-0.4690821651948199,0.5720830189079154,-0.5189404204133428,0.9768213033676147,0.09225280582904816,-0.1931564211845398,40.49330139160156,27.21170425415039,-10.92977905273438,2,10841.78791991667,2,0,1580907126.029086,1580903939.50652,2188,0.4597634,0,0,2731.799,9,8,1580907102.640174,10840.403986,0,16.9584,97.00626
1580907127.401898,69,0,1580907081.99744,41.20925486917037,29.07624497871732,260.2424,-1,-1,15.67298984527588,48.00724964208526,-9999,10843.19223879167,0.97576904296875,0.0838165283203125,-0.200592041015625,10843.18717279167,-1.592298885968533,1.372394306896548,-0.09384400720496434,-0.02040558867156506,-0.3188379406929016,-0.1456263363361359,0.04192614555358887,-0.003351718187332153,0.03067576885223389,2,-0.4269326457891373,-0.4686263776737371,0.5730895770917985,-0.5193131332917931,0.9760689735412598,0.09370632469654083,-0.1962356716394424,40.49330139160156,27.21170425415039,-10.92977905273438,2,10841.78791991667,2,0,1580907126.029086,1580903939.50652,2188,0.4597634,0,0,2731.799,9,8,1580907102.640174,10840.403986,0,16.9584,97.00626
1580907127.41218,70,0,1580907081.99744,41.20925486917037,29.07624497871732,260.2424,-1,-1,15.67298984527588,48.00724964208526,-9999,10843.20227879167,0.9431915283203125,0.083160400390625,-0.2176666259765625,10843.19721279167,-1.592323514721856,1.369539076389637,-0.09553134475160957,-0.02835805341601372,-0.28691166639328,-0.1667840927839279,0.008133292198181152,-0.01069670915603638,0.005315303802490234,2,-0.4256451649388175,-0.4683281362425474,0.5740556445471983,-0.5195721137860893,0.9753484725952148,0.09538610279560089,-0.1989898979663849,40.08014678955078,27.09162521362305,-10.95675659179688,2,10841.78791991667,2,0,1580907126.029086,1580903939.50652,2188,0.4597634,0,0,2731.799,9,8,1580907102.640174,10840.403986,0,16.9584,97.00626
1580907127.422168,71,0,1580907081.99744,41.20925486917037,29.07624497871732,260.2424,-1,-1,15.67298984527588,48.00724964208526,-9999,10843.21231879167,0.9044189453125,0.0728759765625,-0.24493408203125,10843.20725279167,-1.592274053373002,1.367745772922711,-0.09745727515815282,-0.0458635650575161,-0.1859065592288971,-0.1882461309432983,-0.0238264799118042,-0.01435807347297668,-0.0149419903755188,2,-0.4245762863014838,-0.4683848471081916,0.5748235030246933,-0.5195464002116101,0.9748081564903259,0.09730307757854462,-0.2007012218236923,40.08014678955078,27.09162521362305,-10.95675659179688,2,10841.78791991667,2,0,1580907126.029086,1580903939.50652,2188,0.4597634,0,0,2731.799,9,8,1580907102.640174,10840.403986,0,16.9584,97.00626
1580907127.434185,72,0,1580907081.99744,41.20925486917037,29.07624497871732,260.2424,-1,-1,15.67298984527588,48.00724964208526,-9999,10843.22235979167,0.926788330078125,0.0788116455078125,-0.23944091796875,10843.21732379167,-1.592162497509256,1.367407107401763,-0.09963692061422247,-0.04970251396298409,-0.02357623912394047,-0.213582381606102,-0.06241166591644287,-0.02295655012130737,-0.03632175922393799,2,-0.4238383080143028,-0.4688998539027134,0.5753176339647726,-0.519137317383997,0.9745301008224487,0.09947214275598526,-0.2009880244731903,40.07195281982422,27.61092758178711,-11.15692138671875,2,10841.78791991667,2,0,1580907126.029086,1580903939.50652,2188,0.4597634,0,0,2731.799,9,8,1580907102.640174,10840.403986,0,16.9584,97.00626
1580907127.456989,73,0,1580907081.99744,41.20925486917037,29.07624497871732,260.2424,-1,-1,15.67298984527588,48.00724964208526,-9999,10843.23239979167,0.9644927978515625,0.0855712890625,-0.20648193359375,10843.22736479167,-1.591946164940752,1.367457062182818,-0.1019725433184533,-0.07006065547466278,0.001021329313516617,-0.2241304218769073,-0.06534945964813232,-0.0263848602771759,-0.04986107349395752,2,-0.4231428481896262,-0.4695787329024777,0.575733732450658,-0.5186294948085808,0.9743099808692932,0.1017959117889404,-0.2008918821811676,40.07195281982422,27.61092758178711,-11.15692138671875,2,10841.78791991667,2,0,1580907126.029086,1580903939.50652,2188,0.4597634,0,0,2731.799,9,8,1580907102.640174,10840.403986,0,16.9584,97.00626
1580907127.458143,74,0,1580907081.99744,41.20925486917037,29.07624497871732,260.2424,-1,-1,15.67298984527588,48.00724964208526,-9999,10843.24243979167,0.978973388671875,0.0942230224609375,-0.1975555419921875,10843.23740479167,-1.591692989568184,1.367408040373069,-0.104518475471068,-0.07324525713920593,-0.006728735752403736,-0.2447478175163269,-0.01814591884613037,-0.02127894759178162,-0.0143287181854248,2,-0.422350103894592,-0.4702946626901073,0.5762039102218242,-0.5181044813620197,0.9740431308746338,0.1043282821774483,-0.2008866369724274,39.99502563476562,27.56926345825195,-10.97100830078125,2,10841.78791991667,2,0,1580907126.029086,1580903939.50652,2188,0.4597634,0,0,2731.799,9,8,1580907102.640174,10840.403986,0,16.9584,97.00626
1580907127.462395,75,0,1580907081.99744,41.20925486917037,29.07624497871732,260.2424,-1,-1,15.67298984527588,48.00724964208526,-9999,10843.25247979167,0.993988037109375,0.1085052490234375,-0.1897125244140625,10843.24744479167,-1.591564727794859,1.366929331821337,-0.1072581407421569,-0.06702942401170731,-0.05201639980077744,-0.2682055532932281,-0.003177642822265625,-0.01593822240829468,-0.0006293058395385742,2,-0.4214070696669828,-0.4709234778056308,0.5768360834546142,-0.5175977535870071,0.9736634492874146,0.1070526018738747,-0.2012943178415298,39.99502563476562,27.56926345825195,-10.97100830078125,2,10841.78791991667,2,0,1580907126.029086,1580903939.50652,2188,0.4597634,0,0,2731.799,9,8,1580907102.640174,10840.403986,0,16.9584,97.00626
1580907127.472405,76,0,1580907081.99744,41.20925486917037,29.07624497871732,260.2424,-1,-1,15.67298984527588,48.00724964208526,-9999,10843.26255079167,0.967559814453125,0.124969482421875,-0.198089599609375,10843.25748479167,-1.591497008609088,1.366084200432574,-0.109900085248206,-0.05743325501680374,-0.0913238525390625,-0.2591465413570404,0.01735490560531616,-0.006577849388122559,0.008895635604858398,2,-0.4203991455096824,-0.4714181910689288,0.5775393678982441,-0.5171824721855769,0.9732125401496887,0.1096789911389351,-0.2020588964223862,39.73271942138672,27.81435203552246,-10.86151123046875,2,10841.78791991667,2,0,1580907126.029086,1580903939.50652,2188,0.4597634,0,0,2731.799,9,8,1580907102.640174,10840.403986,0,16.9584,97.00626
1580907127.482459,77,0,1580907081.99744,41.20925486917037,29.07624497871732,260.2424,-1,-1,15.67298984527588,48.00724964208526,-9999,10843.27259179167,0.974761962890625,0.1246490478515625,-0.197784423828125,10843.26752579167,-1.591609026542461,1.36497634135127,-0.1123292996085785,-0.03919161111116409,-0.1070158258080482,-0.243048831820488,0.002738237380981445,0.008610516786575317,0.007007062435150146,2,-0.4194166479526266,-0.4717506937340175,0.5782989672260211,-0.5168281440189811,0.9727244973182678,0.1120932251214981,-0.2030819207429886,39.73271942138672,27.81435203552246,-10.86151123046875,2,10841.78791991667,2,0,1580907126.029086,1580903939.50652,2188,0.4597634,0,0,2731.799,9,8,1580907102.640174,10840.403986,0,16.9584,97.00626
1580907127.494996,78,0,1580907081.99744,41.20925486917037,29.07624497871732,260.2424,-1,-1,15.67298984527588,48.00724964208526,-9999,10843.28263179167,1.020294189453125,0.12921142578125,-0.1805572509765625,10843.27756579167,-1.591908145858556,1.362991542577431,-0.1146387851133847,-0.01266279816627502,-0.1948314309120178,-0.2326886057853699,-0.01022541522979736,0.009850054979324341,0.001426339149475098,2,-0.4182571750913674,-0.4717857957969278,0.5792639967443074,-0.5166548539608461,0.9720634818077087,0.1143878549337387,-0.2049582004547119,39.61679840087891,27.95627212524414,-10.91567993164062,2,10841.78791991667,2,0,1580907126.029086,1580903939.50652,2188,0.4597634,0,0,2731.799,9,8,1580907102.640174,10840.403986,0,16.9584,97.00626
1580907127.519859,79,0,1580907081.99744,41.20925486917037,29.07624497871732,260.2424,-1,-1,15.67298984527588,48.00724964208526,-9999,10843.29267179167,1.021759033203125,0.126922607421875,-0.1814117431640625,10843.28760579167,-1.592442087995448,1.359968090244747,-0.117062732670408,0.002590226009488106,-0.2969968914985657,-0.249324843287468,0.03570365905761719,0.01143410801887512,0.02181488275527954,2,-0.4168171937054586,-0.4715343332286432,0.5805268251762604,-0.5166306892621094,0.9711653590202332,0.1167955473065376,-0.2078375965356827,39.61679840087891,27.95627212524414,-10.91567993164062,2,10841.78791991667,2,0,1580907126.029086,1580903939.50652,2188,0.4597634,0,0,2731.799,9,8,1580907102.640174,10840.403986,0,16.9584,97.00626
1580907127.52174,80,0,1580907081.99744,41.20925486917037,29.07624497871732,260.2424,-1,-1,15.67298984527588,48.00724964208526,-9999,10843.30271179167,0.9848785400390625,0.1196746826171875,-0.1969451904296875,10843.29767679167,-1.5930663272394,1.356170543770189,-0.119569793975393,0.008409764617681503,-0.3740293681621552,-0.2605947852134705,0.05406451225280762,0.007336139678955078,0.02857542037963867,2,-0.4151463868438093,-0.471086956173182,0.5819863051077556,-0.516742098262718,0.9700799584388733,0.1192850843071938,-0.2114611119031906,39.37081146240234,28.17937278747559,-10.97872924804688,2,10841.78791991667,2,0,1580907126.029086,1580903939.50652,2188,0.4597634,0,0,2731.799,9,8,1580907102.640174,10840.403986,0,16.9584,97.00626
1580907127.523139,81,0,1580907081.99744,41.20925486917037,29.07624497871732,260.2424,-1,-1,15.67298984527588,48.00724964208526,-9999,10843.31275279167,0.8949737548828125,0.117645263671875,-0.2286376953125,10843.30771679167,-1.593733179345135,1.35249054999657,-0.1218218841802131,0.01474565733224154,-0.3593807220458984,-0.2358046323060989,0.02925300598144531,0.001066446304321289,0.02446460723876953,2,-0.4135884266067886,-0.4705945079697056,0.5833755626673329,-0.5168736046361355,0.969030499458313,0.1215207874774933,-0.2149708420038223,39.37081146240234,28.17937278747559,-10.97872924804688,2,10841.78791991667,2,0,1580907126.029086,1580903939.50652,2188,0.4597634,0,0,2731.799,9,8,1580907102.640174,10840.403986,0,16.9584,97.00626
1580907127.532597,82,0,1580907081.99744,41.20925486917037,29.07624497871732,260.2424,-1,-1,15.67298984527588,48.00724964208526,-9999,10843.32279279167,0.8871307373046875,0.12103271484375,-0.2380218505859375,10843.31775779167,-1.594325471859282,1.349530682966721,-0.1236852625655428,0.02008742466568947,-0.2816576957702637,-0.1953490823507309,-0.04863220453262329,-0.007104665040969849,-0.004510164260864258,2,-0.4123307632824705,-0.4702013537274791,0.5845142989328193,-0.5169498866341464,0.9681675434112549,0.1233701482415199,-0.2177880555391312,39.34161376953125,28.65656280517578,-11.27890014648438,2,10841.78791991667,2,0,1580907126.029086,1580903939.50652,2188,0.4597634,0,0,2731.799,9,8,1580907102.640174,10840.403986,0,16.9584,97.00626
1580907127.543097,83,0,1580907081.99744,41.20925486917037,29.07624497871732,260.2424,-1,-1,15.67298984527588,48.00724964208526,-9999,10843.33283279167,0.9487457275390625,0.1197509765625,-0.2288970947265625,10843.32779779167,-1.594934105899254,1.346819380607595,-0.1253727601591583,0.02225706353783607,-0.2627644538879395,-0.1769935488700867,-0.0946611762046814,-0.004526197910308838,-0.0202367901802063,2,-0.4111976290932845,-0.4698230243392515,0.5855676812481572,-0.5170041743443238,0.967369019985199,0.1250445693731308,-0.2203656733036041,39.34161376953125,28.65656280517578,-11.27890014648438,2,10841.78791991667,2,0,1580907126.029086,1580903939.50652,2188,0.4597634,0,0,2731.799,9,8,1580907102.640174,10840.403986,0,16.9584,97.00626
1580907127.555136,84,0,1580907081.99744,41.20925486917037,29.07624497871732,260.2424,-1,-1,15.67298984527588,48.00724964208526,-9999,10843.34290379167,0.9551544189453125,0.1190948486328125,-0.229095458984375,10843.33783779167,-1.595495617493833,1.344150081803572,-0.127104640260883,0.0186439510434866,-0.2604765295982361,-0.1825659573078156,-0.03645145893096924,-0.006630122661590576,-0.008969902992248535,2,-0.4100508001218617,-0.4694776785392628,0.586606442846653,-0.5170512860903455,0.966564953327179,0.1267626732587814,-0.2228980958461761,39.21269989013672,28.89752578735352,-11.47625732421875,2,10841.78791991667,2,0,1580907126.029086,1580903939.50652,2188,0.4597634,0,0,2731.799,9,8,1580907102.640174,10840.403986,0,16.9584,97.00626
1580907127.577716,85,0,1580907081.99744,41.20925486917037,29.07624497871732,260.2424,-1,-1,15.67298984527588,48.00724964208526,-9999,10843.35294379167,0.9147491455078125,0.1216888427734375,-0.23638916015625,10843.34787779167,-1.596022146301471,1.341714393689246,-0.1288689809406454,0.01477345544844866,-0.2406555861234665,-0.1849843412637711,-0.006967425346374512,-0.01096317172050476,-0.006539642810821533,2,-0.4089529962051731,-0.4692090937045023,0.587592072236318,-0.5170453655357513,0.965799868106842,0.1285125911235809,-0.2252005487680435,38.90779876708984,28.79521751403809,-11.699462890625,2,10841.78791991667,2,0,1580907126.029086,1580903939.50652,2188,0.4597634,0,0,2731.799,9,8,1580907102.640174,10840.403986,0,16.9584,97.00626
1580907127.578842,86,0,1580907081.99744,41.20925486917037,29.07624497871732,260.2424,-1,-1,15.67298984527588,48.00724964208526,-9999,10843.36298479167,0.8614654541015625,0.11041259765625,-0.2657012939453125,10843.35791879167,-1.596419092811319,1.340262860686997,-0.1305537558780615,-0.0009921910241246223,-0.1432448774576187,-0.1709388196468353,-0.03802692890167236,-0.008060336112976074,-0.006786465644836426,2,-0.4081353181151396,-0.4692007591959108,0.5883251923715179,-0.5168653987544618,0.965259850025177,0.1301832050085068,-0.2265524119138718,38.90779876708984,28.79521751403809,-11.699462890625,2,10841.78791991667,2,0,1580907126.029086,1580903939.50652,2188,0.4597634,0,0,2731.799,9,8,1580907102.640174,10840.403986,0,16.9584,97.00626
1580907127.582809,87,0,1580907081.99744,41.20925486917037,29.07624497871732,260.2424,-1,-1,15.67298984527588,48.00724964208526,-9999,10843.37302479167,0.891357421875,0.1113433837890625,-0.265411376953125,10843.36795879167,-1.596587384872166,1.34011818270745,-0.1321999103482872,-0.01924759894609451,-0.005262999795377254,-0.1616175919771194,-0.09451591968536377,-0.01845505833625793,-0.03193420171737671,2,-0.4076590096549114,-0.469566581421588,0.5887238061054967,-0.516454764464957,0.9650169014930725,0.131815180182457,-0.2266427129507065,38.72805023193359,28.9882984161377,-11.84130859375,2,10841.78791991667,2,0,1580907126.029086,1580903939.50652,2188,0.4597634,0,0,2731.799,9,8,1580907102.640174,10840.403986,0,16.9584,97.00626
1580907127.592748,88,0,1580907081.99744,41.20925486917037,29.07624497871732,260.2424,-1,-1,15.67298984527588,48.00724964208526,-9999,10843.38306479167,0.9625091552734375,0.1234283447265625,-0.2398681640625,10843.37802979167,-1.596699214522872,1.340307193547723,-0.1340267463967568,-0.03292852267622948,0.01953688822686672,-0.1780833899974823,-0.09596991539001465,-0.02474111318588257,-0.04650038480758667,2,-0.4072153551303768,-0.4700778483524383,0.589075133308765,-0.5159389103927917,0.9648237824440002,0.1336258500814438,-0.2264049351215363,38.72805023193359,28.9882984161377,-11.84130859375,2,10841.78791991667,2,0,1580907126.029086,1580903939.50652,2188,0.4597634,0,0,2731.799,9,8,1580907102.640174,10840.403986,0,16.9584,97.00626
1580907127.603784,89,0,1580907081.99744,41.20925486917037,29.07624497871732,260.2424,-1,-1,15.67298984527588,48.00724964208526,-9999,10843.39310479167,0.9682464599609375,0.13897705078125,-0.2095947265625,10843.38806979167,-1.596906417663787,1.340143826079287,-0.1360520636227526,-0.02067472413182259,-0.01195172686129808,-0.2019247263669968,-0.01992213726043701,-0.01683485507965088,-0.02293682098388672,2,-0.4066329194010494,-0.4705311345821303,0.5895613680140324,-0.5154295326578452,0.9645214080810547,0.13563272356987,-0.2265002429485321,38.85813903808594,28.83796310424805,-11.70404052734375,2,10841.78791991667,2,0,1580907126.029086,1580903939.50652,2188,0.4597634,0,0,2731.799,9,8,1580907102.640174,10840.403986,0,16.9584,97.00626
1580907127.61474,90,0,1580907081.99744,41.20925486917037,29.07624497871732,260.2424,-1,-1,15.67298984527588,48.00724964208526,-9999,10843.40314579167,0.8982391357421875,0.1423187255859375,-0.214202880859375,10843.39810979167,-1.597234334613535,1.339544489638885,-0.1380592555193569,-0.01219229027628899,-0.0671558603644371,-0.2059708684682846,0.005872130393981934,-0.003050684928894043,0.006479620933532715,2,-0.4059551643634152,-0.4708425476191818,0.5901627771044633,-0.5149908547066198,0.964118480682373,0.1376210898160934,-0.2270154058933258,38.85813903808594,28.83796310424805,-11.70404052734375,2,10841.78791991667,2,0,1580907126.029086,1580903939.50652,2188,0.4597634,0,0,2731.799,9,8,1580907102.640174,10840.403986,0,16.9584,97.00626
1580907127.64185,91,0,1580907081.99744,41.20925486917037,29.07624497871732,260.2424,-1,-1,15.67298984527588,48.00724964208526,-9999,10843.41318579167,0.814056396484375,0.1291351318359375,-0.2614593505859375,10843.40815079167,-1.597421958521081,1.339764333135339,-0.1396660821485932,-0.01537809520959854,0.02513430826365948,-0.1621005535125732,-0.03769230842590332,0.003959894180297852,0.01923203468322754,2,-0.40560107614915,-0.4712870685759371,0.5904823398448981,-0.5144968177505036,0.9639519453048706,0.1392124593257904,-0.2267525345087051,38.47743988037109,29.29853057861328,-11.76712036132812,2,10841.78791991667,2,0,1580907126.029086,1580903939.50652,2188,0.4597634,0,0,2731.799,9,8,1580907102.640174,10840.403986,0,16.9584,97.00626
1580907127.643275,92,0,1580907081.99744,41.20925486917037,29.07624497871732,260.2424,-1,-1,15.67298984527588,48.00724964208526,-9999,10843.42325679167,0.795501708984375,0.122650146484375,-0.273956298828125,10843.41819079167,-1.597341332605468,1.341493364595738,-0.1407123803407558,-0.03315283358097076,0.1702012121677399,-0.09918523579835892,-0.1357500553131104,-0.007317394018173218,-0.02548706531524658,2,-0.4057908716618132,-0.4720250426196643,0.5903164814345226,-0.5138605426524934,0.9642001390457153,0.1402484923601151,-0.2250522524118423,38.47743988037109,29.29853057861328,-11.76712036132812,2,10841.78791991667,2,0,1580907126.029086,1580903939.50652,2188,0.4597634,0,0,2731.799,9,8,1580907102.640174,10840.403986,0,16.9584,97.00626
1580907127.64433,93,0,1580907081.99744,41.20925486917037,29.07624497871732,260.2424,-1,-1,15.67298984527588,48.00724964208526,-9999,10843.43329679167,0.8160247802734375,0.124847412109375,-0.27252197265625,10843.42823079167,-1.596883999877538,1.34488996205956,-0.1411878945611863,-0.05120141804218292,0.336620956659317,-0.03543393686413765,-0.1694807410240173,-0.01804327964782715,-0.05370426177978516,2,-0.4065477566258005,-0.4731156611281038,0.5896028332923551,-0.5130779516593156,0.9648938179016113,0.1407192945480347,-0.2217609882354736,38.41135406494141,29.41046714782715,-11.50286865234375,2,10841.78791991667,2,0,1580907126.029086,1580903939.50652,2188,0.4597634,0,0,2731.799,9,8,1580907102.640174,10840.403986,0,16.9584,97.00626
1580907127.65352,94,0,1580907081.99744,41.20925486917037,29.07624497871732,260.2424,-1,-1,15.67298984527588,48.00724964208526,-9999,10843.44333679167,0.916961669921875,0.1340484619140625,-0.2361297607421875,10843.43827179167,-1.596288517207814,1.349279943729228,-0.1413213982565432,-0.06105032190680504,0.44298255443573,0.002268435433506966,-0.1660804748535156,-0.01710769534111023,-0.05841511487960815,2,-0.4076613348263227,-0.4743973076881102,0.5885829550239076,-0.5121811177898472,0.965839684009552,0.1408514678478241,-0.2175188660621643,38.41135406494141,29.41046714782715,-11.50286865234375,2,10841.78791991667,2,0,1580907126.029086,1580903939.50652,2188,0.4597634,0,0,2731.799,9,8,1580907102.640174,10840.403986,0,16.9584,97.00626
1580907127.663867,95,0,1580907081.99744,41.20925486917037,29.07624497871732,260.2424,-1,-1,15.67298984527588,48.00724964208526,-9999,10843.45337779167,1.018463134765625,0.15087890625,-0.1837310791015625,10843.44831179167,-1.595774910797378,1.35306199968572,-0.1414838771665937,-0.05106125026941299,0.3761018514633179,-0.003438952378928661,-0.08836925029754639,-0.01215729117393494,-0.04125523567199707,2,-0.4086048252082524,-0.4755127074051561,0.5877119267327356,-0.5113946700391413,0.9666332006454468,0.1410123258829117,-0.2138595283031464,38.53945159912109,29.23174476623535,-11.22512817382812,2,10841.78791991667,2,0,1580907126.029086,1580903939.50652,2188,0.4597634,0,0,2731.799,9,8,1580907102.640174,10840.403986,0,16.9584,97.00626
1580907127.675327,96,0,1580907081.99744,41.20925486917037,29.07624497871732,260.2424,-1,-1,15.67298984527588,48.00724964208526,-9999,10843.46341779167,1.013717651367188,0.1533050537109375,-0.184478759765625,10843.45838279167,-1.595513686559188,1.355629449121081,-0.141836713486062,-0.03279995545744896,0.2481484115123749,-0.0297565758228302,0.0259242057800293,0.005543708801269531,0.0150221586227417,2,-0.4091954439786341,-0.4763149086781095,0.5871902733418247,-0.5107746770858774,0.9671303629875183,0.1413616240024567,-0.2113664001226425,38.53945159912109,29.23174476623535,-11.22512817382812,2,10841.78791991667,2,0,1580907126.029086,1580903939.50652,2188,0.4597634,0,0,2731.799,9,8,1580907102.640174,10840.403986,0,16.9584,97.00626
1580907127.699655,97,0,1580907081.99744,41.20925486917037,29.07624497871732,260.2424,-1,-1,15.67298984527588,48.00724964208526,-9999,10843.47345779167,0.953887939453125,0.139984130859375,-0.216033935546875,10843.46842279167,-1.595308381308841,1.357708630204051,-0.1422194683679149,-0.0242808535695076,0.1992476582527161,-0.03466321527957916,0.05704808235168457,0.01206088066101074,0.02752065658569336,2,-0.4096468246459319,-0.4769881054651253,0.5867883378936412,-0.5102463485950668,0.9675148129463196,0.1417405158281326,-0.2093436568975449,38.57433319091797,29.35227012634277,-11.116943359375,2,10841.78791991667,2,0,1580907126.029086,1580903939.50652,2188,0.4597634,0,0,2731.799,9,8,1580907102.640174,10840.403986,0,16.9584,97.00626
1580907127.700861,98,0,1580907081.99744,41.20925486917037,29.07624497871732,260.2424,-1,-1,15.67298984527588,48.00724964208526,-9999,10843.48349879167,0.9327392578125,0.1323394775390625,-0.238372802734375,10843.47846279167,-1.595107934195372,1.360237745882475,-0.1424850411555211,-0.02532534673810005,0.2529769539833069,-0.02119721099734306,-0.0004645586013793945,0.002748876810073853,0.0004010200500488281,2,-0.4102644428954053,-0.4777436554827026,0.5862717140345558,-0.5096368720633634,0.9680044651031494,0.1420034021139145,-0.2068881690502167,38.57433319091797,29.35227012634277,-11.116943359375,2,10841.78791991667,2,0,1580907126.029086,1580903939.50652,2188,0.4597634,0,0,2731.799,9,8,1580907102.640174,10840.403986,0,16.9584,97.00626
1580907127.703343,99,0,1580907081.99744,41.20925486917037,29.07624497871732,260.2424,-1,-1,15.67298984527588,48.00724964208526,-9999,10843.49353879167,0.96868896484375,0.1378173828125,-0.2154998779296875,10843.48850279167,-1.59492982913575,1.363032408501302,-0.1426408163445345,-0.01783895865082741,0.2816424071788788,-0.01080244965851307,-0.03850948810577393,-0.01005524396896362,-0.03449726104736328,2,-0.4109960173126029,-0.4785326523061121,0.5856836326792184,-0.5089828892264419,0.9685571193695068,0.1421575993299484,-0.2041775435209274,38.59942626953125,29.22167778015137,-10.9173583984375,2,10841.78791991667,2,0,1580907126.029086,1580903939.50652,2188,0.4597634,0,0,2731.799,9,8,1580907102.640174,10840.403986,0,16.9584,97.00626
1580907127.713306,100,0,1580907081.99744,41.20925486917037,29.07624497871732,260.2424,-1,-1,15.67298984527588,48.00724964208526,-9999,10843.50360979167,0.995819091796875,0.1431732177734375,-0.1910552978515625,10843.49854379167,-1.594868659994811,1.365380138245269,-0.1428035456343849,-0.009719246998429298,0.2379170358181,-0.01404644642025232,-0.01633596420288086,-0.006600409746170044,-0.02474302053451538,2,-0.4116219855138914,-0.479184893330211,0.5852177725050967,-0.5083989293199269,0.9690111875534058,0.1423186808824539,-0.2018983513116837,38.59942626953125,29.22167778015137,-10.9173583984375,2,10841.78791991667,2,0,1580907126.029086,1580903939.50652,2188,0.4597634,0,0,2731.799,9,8,1580907102.640174,10840.403986,0,16.9584,97.00626
1580907127.723978,101,0,1580907081.99744,41.20925486917037,29.07624497871732,260.2424,-1,-1,15.67298984527588,48.00724964208526,-9999,10843.51364979167,0.973052978515625,0.1455535888671875,-0.187774658203125,10843.50858379167,-1.594801565112133,1.367013539223818,-0.1429651668317553,-0.004219886846840382,0.1597251892089844,-0.01861290633678436,0.01956641674041748,-0.001527011394500732,0.001573324203491211,2,-0.4120375029056124,-0.4796559079550547,0.5848966755918319,-0.5079873027404853,0.9693169593811035,0.1424786597490311,-0.200310617685318,38.51366424560547,29.26448822021484,-10.65615844726562,2,10841.78791991667,2,0,1580907126.029086,1580903939.50652,2188,0.4597634,0,0,2731.799,9,8,1580907102.640174,10840.403986,0,16.9584,97.00626
1580907127.758574,102,0,1580907081.99744,41.20925486917037,29.07624497871732,260.2424,-1,-1,15.67298984527588,48.00724964208526,-9999,10843.52368979167,0.8997039794921875,0.145477294921875,-0.2032318115234375,10843.51862379167,-1.594702436998401,1.368547632545931,-0.1428420531719075,-0.006701952777802944,0.153216153383255,0.01210399437695742,0.01588523387908936,0.003508448600769043,0.01166731119155884,2,-0.4124974236034136,-0.4800337778155573,0.5845306383014764,-0.5076784524389625,0.9696403741836548,0.1423567980527878,-0.1988268941640854,38.51366424560547,29.26448822021484,-10.65615844726562,2,10841.78791991667,2,0,1580907126.029086,1580903939.50652,2188,0.4597634,0,0,2731.799,9,8,1580907102.640174,10840.403986,0,16.9584,97.00626
1580907127.759781,103,0,1580907081.99744,41.20925486917037,29.07624497871732,260.2424,-1,-1,15.67298984527588,48.00724964208526,-9999,10843.53372979167,0.88018798828125,0.142120361328125,-0.21405029296875,10843.52866479167,-1.594507547926071,1.370469034306439,-0.1422667000160092,-0.005247853230684996,0.189023569226265,0.06165989860892296,-0.05211168527603149,0.002675563097000122,-0.005061805248260498,2,-0.4131764646004683,-0.4804116406449002,0.5839691302927635,-0.5074149848900285,0.9701007604598999,0.1417872756719589,-0.1969797313213348,38.63744354248047,29.32549095153809,-10.5789794921875,2,10841.78791991667,2,0,1580907126.029086,1580903939.50652,2188,0.4597634,0,0,2731.799,9,8,1580907102.640174,10840.403986,0,16.9584,97.00626
1580907127.760829,104,0,1580907081.99744,41.20925486917037,29.07624497871732,260.2424,-1,-1,15.67298984527588,48.00724964208526,-9999,10843.54377079167,0.898529052734375,0.136871337890625,-0.2200775146484375,10843.53873479167,-1.594266139029425,1.372956616325271,-0.14131374659097,-0.004118673037737608,0.2445914894342422,0.09827090799808502,-0.09622001647949219,0.003499329090118408,-0.01598501205444336,2,-0.4141166159169056,-0.4808443002491669,0.5832017592498773,-0.5071211595707815,0.9707196950912476,0.1408438831567764,-0.1945923715829849,38.63744354248047,29.32549095153809,-10.5789794921875,2,10841.78791991667,2,0,1580907126.029086,1580903939.50652,2188,0.4597634,0,0,2731.799,9,8,1580907102.640174,10840.403986,0,16.9584,97.00626
1580907127.763689,105,0,1580907081.99744,41.20925486917037,29.07624497871732,260.2424,-1,-1,15.67298984527588,48.00724964208526,-9999,10843.55381079167,0.9257965087890625,0.140289306640625,-0.2037811279296875,10843.54877579167,-1.593955197252496,1.375775395664227,-0.1400677029118994,-0.00237055029720068,0.2800042331218719,0.1287660598754883,-0.07928341627120972,-0.003244221210479736,-0.03261113166809082,2,-0.4152187510257395,-0.4812990567092973,0.582287210591144,-0.5068393642053897,0.9714357256889343,0.139610156416893,-0.1918892115354538,38.80223846435547,29.27443695068359,-10.38653564453125,2,10841.78791991667,2,0,1580907126.029086,1580903939.50652,2188,0.4597634,0,0,2731.799,9,8,1580907102.640174,10840.403986,0,16.9584,97.00626
1580907127.773642,106,0,1580907081.99744,41.20925486917037,29.07624497871732,260.2424,-1,-1,15.67298984527588,48.00724964208526,-9999,10843.56385079167,0.9636077880859375,0.1366424560546875,-0.190765380859375,10843.55881579167,-1.593727566360933,1.37854508419113,-0.1387386302580276,0.003323021344840527,0.2766739428043365,0.1362093389034271,-0.05970007181167603,0.001386463642120361,-0.02118992805480957,2,-0.4163484746612258,-0.4817025501225152,0.5813848996483578,-0.5065650863742942,0.9721448421478271,0.138293981552124,-0.18923319876194,38.80223846435547,29.27443695068359,-10.38653564453125,2,10841.78791991667,2,0,1580907126.029086,1580903939.50652,2188,0.4597634,0,0,2731.799,9,8,1580907102.640174,10840.403986,0,16.9584,97.00626
1580907127.783525,107,0,1580907081.99744,41.20925486917037,29.07624497871732,260.2424,-1,-1,15.67298984527588,48.00724964208526,-9999,10843.57389179167,1.029449462890625,0.1345367431640625,-0.18695068359375,10843.56885579167,-1.593569944907856,1.380782865876701,-0.1375485173934646,0.009004342369735241,0.2260046303272247,0.1200050637125969,-0.02436411380767822,0.0001878440380096436,-0.008798539638519287,2,-0.4172993331143691,-0.4819928896635174,0.5806371964288682,-0.506364096819988,0.9727268218994141,0.1371151953935623,-0.1870882362127304,38.98670959472656,28.92549896240234,-10.1754150390625,2,10841.78791991667,2,0,1580907126.029086,1580903939.50652,2188,0.4597634,0,0,2731.799,9,8,1580907102.640174,10840.403986,0,16.9584,97.00626
1580907127.794559,108,0,1580907081.99744,41.20925486917037,29.07624497871732,260.2424,-1,-1,15.67298984527588,48.00724964208526,-9999,10843.58396179167,1.00238037109375,0.1328582763671875,-0.178497314453125,10843.57889679167,-1.593469235765919,1.382312444791679,-0.1365746742488872,0.006630134768784046,0.1445491909980774,0.09750082343816757,0.0336906909942627,-0.001667886972427368,-0.004955291748046875,2,-0.4179958280802073,-0.4821482550201582,0.5800943177184077,-0.5062639473065349,0.9731425642967224,0.1361504942178726,-0.1856250911951065,38.98670959472656,28.92549896240234,-10.1754150390625,2,10841.78791991667,2,0,1580907126.029086,1580903939.50652,2188,0.4597634,0,0,2731.799,9,8,1580907102.640174,10840.403986,0,16.9584,97.00626
1580907127.815057,109,0,1580907081.99744,41.20925486917037,29.07624497871732,260.2424,-1,-1,15.67298984527588,48.00724964208526,-9999,10843.59400279167,0.9685211181640625,0.1279754638671875,-0.1971282958984375,10843.58893679167,-1.593338463872067,1.383839460935065,-0.135686711734818,0.008113748393952847,0.1554026305675507,0.08914768695831299,0.04798328876495361,-0.001686215400695801,0.004532933235168457,2,-0.4186593356743582,-0.4823315635339513,0.5795609423730463,-0.5061517707730963,0.9735431671142578,0.135270744562149,-0.1841612458229065,39.06679534912109,28.83608245849609,-10.13522338867188,2,10841.78791991667,2,0,1580907126.029086,1580903939.50652,2188,0.4597634,0,0,2731.799,9,8,1580907102.640174,10840.403986,0,16.9584,97.00626
1580907127.816349,110,0,1580907081.99744,41.20925486917037,29.07624497871732,260.2424,-1,-1,15.67298984527588,48.00724964208526,-9999,10843.60404279167,0.968170166015625,0.131622314453125,-0.1874542236328125,10843.59897679167,-1.59325029904928,1.385349855405561,-0.1347829153710227,0.007216797210276127,0.1479329764842987,0.0904206782579422,-0.006659388542175293,-0.006403565406799316,-0.01353543996810913,2,-0.4193320651449731,-0.4824977374466254,0.5790378646895109,-0.5060353787643679,0.9739401340484619,0.13437519967556,-0.1827131062746048,39.06679534912109,28.83608245849609,-10.13522338867188,2,10841.78791991667,2,0,1580907126.029086,1580903939.50652,2188,0.4597634,0,0,2731.799,9,8,1580907102.640174,10840.403986,0,16.9584,97.00626
1580907127.824042,111,0,1580907081.99744,41.20925486917037,29.07624497871732,260.2424,-1,-1,15.67298984527588,48.00724964208526,-9999,10843.61408279167,0.9534454345703125,0.1331939697265625,-0.188140869140625,10843.60901679167,-1.59317433483274,1.386833786651563,-0.1338043909588509,0.01220995653420687,0.1478448212146759,0.09769643843173981,-0.006494641304016113,-0.003279894590377808,-0.01134419441223145,2,-0.4200207271378583,-0.4826352517872401,0.5785072649486453,-0.5059399298608658,0.9743389487266541,0.1334054917097092,-0.1812916100025177,39.1361083984375,28.79277420043945,-10.00332641601562,2,10841.78791991667,2,0,1580907126.029086,1580903939.50652,2188,0.4597634,0,0,2731.799,9,8,1580907102.640174,10840.403986,0,16.9584,97.00626
1580907127.83384,112,0,1580907081.99744,41.20925486917037,29.07624497871732,260.2424,-1,-1,15.67298984527588,48.00724964208526,-9999,10843.62412379167,0.9511260986328125,0.13385009765625,-0.1866912841796875,10843.61908779167,-1.593191593137999,1.38832688121849,-0.132676169793282,0.02187936380505562,0.151721328496933,0.1120029389858246,-0.0193791389465332,0.0001604855060577393,-0.009067773818969727,2,-0.420776287309594,-0.4827166915446163,0.5779667906968342,-0.5058521400401484,0.9747560024261475,0.1322872638702393,-0.1798638254404068,39.1361083984375,28.79277420043945,-10.00332641601562,2,10841.78791991667,2,0,1580907126.029086,1580903939.50652,2188,0.4597634,0,0,2731.799,9,8,1580907102.640174,10840.403986,0,16.9584,97.00626
1580907127.844427,113,0,1580907081.99744,41.20925486917037,29.07624497871732,260.2424,-1,-1,15.67298984527588,48.00724964208526,-9999,10843.63416379167,0.970672607421875,0.1346282958984375,-0.1727142333984375,10843.62912779167,-1.593285040928372,1.389658365973602,-0.1313868691716973,0.0327552855014801,0.1451908499002457,0.1249377056956291,-0.02797961235046387,0.002784550189971924,-0.01178795099258423,2,-0.4215484688765345,-0.482699397384266,0.5774455756185096,-0.5058209317561059,0.9751614928245544,0.1310091912746429,-0.1785963624715805,39.35973358154297,28.74474716186523,-10.0657958984375,2,10841.78791991667,2,0,1580907126.029086,1580903939.50652,2188,0.4597634,0,0,2731.799,9,8,1580907102.640174,10840.403986,0,16.9584,97.00626
1580907127.854966,114,0,1580907081.99744,41.20925486917037,29.07624497871732,260.2424,-1,-1,15.67298984527588,48.00724964208526,-9999,10843.64420379167,0.986724853515625,0.1425628662109375,-0.1543121337890625,10843.63916879167,-1.593562838350469,1.390194925121903,-0.1299702434930379,0.04937979951500893,0.05907594412565231,0.1355645209550858,-0.01513504981994629,0.003063499927520752,-0.003124058246612549,2,-0.4221710463461821,-0.4824090348073168,0.5771116699459565,-0.5059597690353137,0.9754387736320496,0.1296046376228333,-0.1781062632799149,39.35973358154297,28.74474716186523,-10.0657958984375,2,10841.78791991667,2,0,1580907126.029086,1580903939.50652,2188,0.4597634,0,0,2731.799,9,8,1580907102.640174,10840.403986,0,16.9584,97.00626
1580907127.879119,115,0,1580907081.99744,41.20925486917037,29.07624497871732,260.2424,-1,-1,15.67298984527588,48.00724964208526,-9999,10843.65424379167,0.989715576171875,0.13885498046875,-0.162750244140625,10843.64920879167,-1.593977030279676,1.389862378303546,-0.1284824884423814,0.07176588475704193,-0.02965432778000832,0.1403606832027435,0.006112813949584961,0.01224824786186218,0.01943731307983398,2,-0.4225954344751249,-0.481851152261104,0.5769808383292904,-0.5062862034874601,0.9755681157112122,0.1281292885541916,-0.1784651279449463,39.35356140136719,28.70932960510254,-10.09478759765625,2,10841.78791991667,2,0,1580907126.029086,1580903939.50652,2188,0.4597634,0,0,2731.799,9,8,1580907102.640174,10840.403986,0,16.9584,97.00626
1580907127.880426,116,0,1580907081.99744,41.20925486917037,29.07624497871732,260.2424,-1,-1,15.67298984527588,48.00724964208526,-9999,10843.66431479167,0.9849853515625,0.1251678466796875,-0.1805419921875,10843.65924879167,-1.594491243345587,1.389147200805706,-0.1270698238221957,0.07620324194431305,-0.06823794543743134,0.1299003064632416,0.01102268695831299,0.01487362384796143,0.01859760284423828,2,-0.4229119650017022,-0.481194156868577,0.5769716703680702,-0.506657045864059,0.9756172895431519,0.1267281323671341,-0.179195299744606,39.35356140136719,28.70932960510254,-10.09478759765625,2,10841.78791991667,2,0,1580907126.029086,1580903939.50652,2188,0.4597634,0,0,2731.799,9,8,1580907102.640174,10840.403986,0,16.9584,97.00626
1580907127.884164,117,0,1580907081.99744,41.20925486917037,29.07624497871732,260.2424,-1,-1,15.67298984527588,48.00724964208526,-9999,10843.67435479167,0.9813995361328125,0.115325927734375,-0.1931304931640625,10843.66928979167,-1.594940610359389,1.388494373589005,-0.125841651875412,0.07016478478908539,-0.05974192544817924,0.1123141348361969,0.009202241897583008,0.002926737070083618,0.003303587436676025,2,-0.4231784683133388,-0.4806140439018401,0.5769709695155659,-0.506985775174574,0.9756523370742798,0.1255097687244415,-0.1798602491617203,39.55192565917969,28.51159858703613,-10.24478149414062,2,10841.78791991667,2,0,1580907126.029086,1580903939.50652,2188,0.4597634,0,0,2731.799,9,8,1580907102.640174,10840.403986,0,16.9584,97.00626
1580907127.89414,118,0,1580907081.99744,41.20925486917037,29.07624497871732,260.2424,-1,-1,15.67298984527588,48.00724964208526,-9999,10843.68439579167,0.972686767578125,0.1102294921875,-0.1951141357421875,10843.67932979167,-1.595327598584279,1.388052554623747,-0.1248646532441626,0.05352429673075676,-0.03633593395352364,0.0884263813495636,0.004248380661010742,-0.006736785173416138,-0.01284337043762207,2,-0.4234196715804843,-0.4801656260509541,0.5769616139270251,-0.5072199716249424,0.9756929874420166,0.1245404407382011,-0.1803135126829147,39.55192565917969,28.51159858703613,-10.24478149414062,2,10841.78791991667,2,0,1580907126.029086,1580903939.50652,2188,0.4597634,0,0,2731.799,9,8,1580907102.640174,10840.403986,0,16.9584,97.00626
1580907127.904274,119,0,1580907081.99744,41.20925486917037,29.07624497871732,260.2424,-1,-1,15.67298984527588,48.00724964208526,-9999,10843.69443579167,0.9843902587890625,0.1175994873046875,-0.181365966796875,10843.68936979167,-1.595685829174966,1.387598186340842,-0.1241153310940717,0.0524156466126442,-0.03844539076089859,0.0658477321267128,-0.00346684455871582,-0.0140785276889801,-0.0168527364730835,2,-0.4235859364827423,-0.479779182864958,0.5769945428931663,-0.5074094596903888,0.9757025241851807,0.1237969174981117,-0.1807737797498703,39.42711639404297,28.47425270080566,-10.38677978515625,2,10841.78791991667,2,0,1580907126.029086,1580903939.50652,2188,0.4597634,0,0,2731.799,9,8,1580907102.640174,10840.403986,0,16.9584,97.00626
1580907127.915285,120,0,1580907081.99744,41.20925486917037,29.07624497871732,260.2424,-1,-1,15.67298984527588,48.00724964208526,-9999,10843.70447579167,0.9884490966796875,0.1109771728515625,-0.184661865234375,10843.69944079167,-1.596004989574594,1.386950381474206,-0.1236228177212386,0.04055605828762054,-0.06034376472234726,0.0421658419072628,0.0008783340454101562,-0.007622450590133667,-0.006702065467834473,2,-0.4236145350775993,-0.4794186812667071,0.577111377133977,-0.5075932676844146,0.9756449460983276,0.1233081817626953,-0.1814169138669968,39.42711639404297,28.47425270080566,-10.38677978515625,2,10841.78791991667,2,0,1580907126.029086,1580903939.50652,2188,0.4597634,0,0,2731.799,9,8,1580907102.640174,10840.403986,0,16.9584,97.00626
1580907127.941521,121,0,1580907081.99744,41.20925486917037,29.07624497871732,260.2424,-1,-1,15.67298984527588,48.00724964208526,-9999,10843.71451679167,0.98297119140625,0.1107025146484375,-0.19024658203125,10843.70948079167,-1.596215809634453,1.386293687251213,-0.1234038465894099,0.0273517370223999,-0.05918677151203156,0.01842600479722023,0.01238477230072021,-0.009632378816604614,-0.001004338264465332,2,-0.423537296861103,-0.4791501819528024,0.5772589448739455,-0.507743455627215,0.9755521416664124,0.1230908781290054,-0.1820625215768814,39.48049163818359,28.28066444396973,-10.40682983398438,2,10841.78791991667,2,0,1580907126.029086,1580903939.50652,2188,0.4597634,0,0,2731.799,9,8,1580907102.640174,10840.403986,0,16.9584,97.00626
1580907127.942893,122,0,1580907081.99744,41.20925486917037,29.07624497871732,260.2424,-1,-1,15.67298984527588,48.00724964208526,-9999,10843.72455679167,0.9720458984375,0.1163482666015625,-0.1827850341796875,10843.71952179167,-1.596431109305427,1.385560233630721,-0.1233812947891378,0.02150716632604599,-0.06874272227287292,-0.001679795794188976,0.005893826484680176,-0.01360774040222168,-0.01018941402435303,2,-0.4233834958992439,-0.4789124792717572,0.5774642659805236,-0.5078624882319277,0.9754210710525513,0.1230684965848923,-0.1827785074710846,39.48049163818359,28.28066444396973,-10.40682983398438,2,10843.71311279167,1,2,1580907127.954279,1580903939.50652,2188,0.4597634,0,0,2731.799,9,8,1580907102.640174,10840.403986,0,16.9584,97.00626
1580907127.944275,123,0,1580907081.99744,41.20925486917037,29.07624497871732,260.2424,-1,-1,15.67298984527588,48.00724964208526,-9999,10843.73459679167,0.9662017822265625,0.1119537353515625,-0.19287109375,10843.72956179167,-1.596552014739574,1.38481738963063,-0.1235137086940957,0.01347772497683764,-0.0789157897233963,-0.01428874861449003,-0.001506924629211426,-0.008765161037445068,-0.003149271011352539,2,-0.4231606082986828,-0.4787328074106892,0.5776793432596875,-0.5079728567335591,0.9752688407897949,0.1231999024748802,-0.1834999918937683,39.38921356201172,28.36803436279297,-10.56838989257812,2,10843.71311279167,1,2,1580907127.954279,1580903939.50652,2188,0.4597634,0,0,2731.799,9,8,1580907102.640174,10840.403986,0,16.9584,97.00626
1580907127.954574,124,0,1580907081.99744,41.20925486917037,29.07624497871732,260.2424,-1,-1,15.67298984527588,48.00724964208526,-9999,10843.74463679167,0.963134765625,0.102996826171875,-0.210113525390625,10843.73960179167,-1.59652282295216,1.384539334679226,-0.1238914164914115,-0.007330084219574928,-0.0275343544781208,-0.03608698770403862,-0.00993955135345459,-0.008759498596191406,-0.005052745342254639,2,-0.4229666635370117,-0.4787670874369436,0.5778083139955252,-0.5079554976676831,0.9751720428466797,0.1235747262835503,-0.1837625503540039,39.39273834228516,28.29552459716797,-10.54580688476562,2,10843.71311279167,1,2,1580907127.954279,1580903939.50652,2188,0.4597634,0,0,2731.799,9,8,1580907102.640174,10840.403986,0,16.9584,97.00626
1580907127.964583,125,0,1580907081.99744,41.20925486917037,29.07624497871732,260.2424,-1,-1,15.67298984527588,48.00724964208526,-9999,10843.75470779167,0.9814910888671875,0.10986328125,-0.1942596435546875,10843.74964179167,-1.596414323341887,1.384512883953456,-0.1245167431295431,-0.02216034568846226,-0.002390749752521515,-0.05943232774734497,-0.01587045192718506,-0.02061203122138977,-0.02612888813018799,2,-0.4227564817746081,-0.4789467097316654,0.5779146960095763,-0.5078401755190518,0.9750911593437195,0.1241952329874039,-0.183774009346962,39.39273834228516,28.29552459716797,-10.54580688476562,2,10843.71311279167,1,2,1580907127.954279,1580903939.50652,2188,0.4597634,0,0,2731.799,9,8,1580907102.640174,10840.403986,0,16.9584,97.00626
1580907127.99984,126,0,1580907081.99744,41.20925486917037,29.07624497871732,260.2424,-1,-1,15.67298984527588,48.00724964208526,-9999,10843.76474879167,0.9795379638671875,0.1082305908203125,-0.190826416015625,10843.75968279167,-1.596126525765376,1.384424169153403,-0.1253860380414286,-0.04251328855752945,-0.01467165164649487,-0.07954718172550201,-0.001709461212158203,-0.01782983541488647,-0.0189824104309082,2,-0.4224164010328171,-0.4792120252556062,0.578038677041085,-0.5077317299032883,0.9749683141708374,0.1250577569007874,-0.1838404387235641,39.35981750488281,28.5396785736084,-10.69528198242188,2,10843.71311279167,1,2,1580907127.954279,1580903939.50652,2188,0.4597634,0,0,2731.799,9,8,1580907102.640174,10841.349703,0,16.96634,97.00618
1580907128.001427,127,0,1580907081.99744,41.20925486917037,29.07624497871732,260.2424,-1,-1,15.67298984527588,48.00724964208526,-9999,10843.77478879167,0.9727325439453125,0.1112213134765625,-0.201629638671875,10843.76972279167,-1.595780624041042,1.384527120251559,-0.1264979679688685,-0.05370477586984634,0.009724333882331848,-0.1027994379401207,0.006664395332336426,-0.01670795679092407,-0.005970954895019531,2,-0.4220490326566311,-0.4796014099291848,0.5781571232624575,-0.5075347134235824,0.974850058555603,0.1261608749628067,-0.1837141960859299,39.35981750488281,28.5396785736084,-10.69528198242188,2,10843.71311279167,1,2,1580907127.954279,1580903939.50652,2188,0.4597634,0,0,2731.799,9,8,1580907102.640174,10841.349703,0,16.96634,97.00618
1580907128.00263,128,0,1580907081.99744,41.20925486917037,29.07624497871732,260.2424,-1,-1,15.67298984527588,48.00724964208526,-9999,10843.78482879167,0.9914398193359375,0.12127685546875,-0.18609619140625,10843.77979379167,-1.595421107407432,1.384584727780064,-0.1278309753258614,-0.0563943013548851,0.003617437556385994,-0.1258568167686462,-0.006820797920227051,-0.01913219690322876,-0.0194251537322998,2,-0.4216025400397552,-0.4800395031670253,0.5783268929155823,-0.5072981670085558,0.9746944904327393,0.1274831146001816,-0.1836267411708832,39.41025543212891,28.53708648681641,-10.37045288085938,2,10843.71311279167,1,2,1580907127.954279,1580903939.50652,2188,0.4597634,0,0,2731.799,9,8,1580907102.640174,10841.349703,0,16.96634,97.00618
1580907128.007145,129,0,1580907081.99744,41.20925486917037,29.07624497871732,260.2424,-1,-1,15.67298984527588,48.00724964208526,-9999,10843.79486879167,0.9937591552734375,0.1321563720703125,-0.1730804443359375,10843.78983379167,-1.595233915894654,1.384242998681466,-0.1293147827662875,-0.046176977455616,-0.03355593234300613,-0.1432139873504639,0.01061093807220459,-0.01104021072387695,-0.01033753156661987,2,-0.4210389133333389,-0.4803789801965483,0.5786551669538591,-0.5070705670066521,0.9744447469711304,0.12895467877388,-0.1839245408773422,39.41025543212891,28.53708648681641,-10.37045288085938,2,10843.71311279167,1,2,1580907127.954279,1580903939.50652,2188,0.4597634,0,0,2731.799,9,8,1580907102.640174,10841.349703,0,16.96634,97.00618
1580907128.014731,130,0,1580907081.99744,41.20925486917037,29.07624497871732,260.2424,-1,-1,15.67298984527588,48.00724964208526,-9999,10843.80490979167,1.0155029296875,0.1329193115234375,-0.16778564453125,10843.79987379167,-1.595247036007205,1.383040596009052,-0.130966715910295,-0.02542110159993172,-0.1171317845582962,-0.1664844155311584,0.01501202583312988,-0.001558542251586914,0.007276535034179688,2,-0.4202261781381451,-0.480501743854248,0.5792490059565165,-0.5069504193059285,0.9740123152732849,0.1305926442146301,-0.185056060552597,39.34377288818359,28.6711311340332,-10.352783203125,2,10843.71311279167,1,2,1580907127.954279,1580903939.50652,2188,0.4597634,0,0,2731.799,9,8,1580907102.640174,10841.349703,0,16.96634,97.00618
1580907128.024836,131,0,1580907081.99744,41.20925486917037,29.07624497871732,260.2424,-1,-1,15.67298984527588,48.00724964208526,-9999,10843.81494979167,0.966583251953125,0.1322021484375,-0.1810455322265625,10843.80991479167,-1.59538279564964,1.381156879941566,-0.1326787860464121,-0.02061141468584538,-0.1895865201950073,-0.1704603880643845,0.03607738018035889,0.00171428918838501,0.01714503765106201,2,-0.4192274613665626,-0.4804417741464568,0.5800278433565511,-0.5069435985417106,0.973440945148468,0.132289856672287,-0.1868480741977692,39.34377288818359,28.6711311340332,-10.352783203125,2,10843.71311279167,1,2,1580907127.954279,1580903939.50652,2188,0.4597634,0,0,2731.799,9,8,1580907102.640174,10841.349703,0,16.96634,97.00618
1580907128.055353,132,0,1580907081.99744,41.20925486917037,29.07624497871732,260.2424,-1,-1,15.67298984527588,48.00724964208526,-9999,10843.82498979167,0.9616851806640625,0.1308135986328125,-0.195709228515625,10843.81995479167,-1.595556185778094,1.379278097848127,-0.1344369050905709,-0.01265442185103893,-0.1823232769966125,-0.1765715479850769,0.01050788164138794,-0.003175914287567139,0.01080048084259033,2,-0.418224802488624,-0.4803873306833116,0.580822680494761,-0.5069132598539807,0.9728583097457886,0.1340323239564896,-0.1886320561170578,38.92933654785156,28.96940040588379,-10.55563354492188,2,10843.71311279167,1,2,1580907127.954279,1580903939.50652,2188,0.4597634,0,0,2731.799,9,8,1580907102.640174,10841.349703,0,16.96634,97.00618
1580907128.056659,133,0,1580907081.99744,41.20925486917037,29.07624497871732,260.2424,-1,-1,15.67298984527588,48.00724964208526,-9999,10843.83506079167,1.006607055664062,0.1297760009765625,-0.19281005859375,10843.82999479167,-1.595811427187517,1.37722574387844,-0.1364513812779308,-0.01383905485272408,-0.194712832570076,-0.2053039520978928,-0.02124404907226562,-0.004414021968841553,-0.005225479602813721,2,-0.4171170100918275,-0.4803388460137119,0.5817245053757486,-0.5068378903344222,0.9722022414207458,0.1360283493995667,-0.1905759871006012,38.92933654785156,28.96940040588379,-10.55563354492188,2,10843.71311279167,1,2,1580907127.954279,1580903939.50652,2188,0.4597634,0,0,2731.799,9,8,1580907102.640174,10841.349703,0,16.96634,97.00618
1580907128.057656,134,0,1580907081.99744,41.20925486917037,29.07624497871732,260.2424,-1,-1,15.67298984527588,48.00724964208526,-9999,10843.84510079167,0.9707489013671875,0.135009765625,-0.178131103515625,10843.84003479167,-1.596117399260948,1.374862537961042,-0.1386844437246141,-0.01506650634109974,-0.231900155544281,-0.2258960455656052,0.02241909503936768,-0.008645713329315186,-0.004447281360626221,2,-0.4158668699372473,-0.480258336313546,0.582745559094606,-0.5067685676355763,0.9714487791061401,0.1382403075695038,-0.1928133517503738,38.86277770996094,29.00414276123047,-10.76373291015625,2,10843.71311279167,1,2,1580907127.954279,1580903939.50652,2188,0.4597634,0,0,2731.799,9,8,1580907102.640174,10841.349703,0,16.96634,97.00618
1580907128.06506,135,0,1580907081.99744,41.20925486917037,29.07624497871732,260.2424,-1,-1,15.67298984527588,48.00724964208526,-9999,10843.85514179167,0.9692840576171875,0.1594390869140625,-0.1559906005859375,10843.85007579167,-1.596703488165863,1.372042250569967,-0.1408976090471757,0.01508902199566364,-0.2642362117767334,-0.229618176817894,0.01452791690826416,-0.009667962789535522,0.01058197021484375,2,-0.4145540580990804,-0.4799991730808796,0.5839252641201611,-0.5067317452122831,0.9705988168716431,0.1404318809509277,-0.1954914480447769,38.86277770996094,29.00414276123047,-10.76373291015625,2,10843.71311279167,1,2,1580907127.954279,1580903939.50652,2188,0.4597634,0,0,2731.799,9,8,1580907102.640174,10841.349703,0,16.96634,97.00618
1580907128.074994,136,0,1580907081.99744,41.20925486917037,29.07624497871732,260.2424,-1,-1,15.67298984527588,48.00724964208526,-9999,10843.86518179167,0.9934844970703125,0.165496826171875,-0.1583099365234375,10843.86014679167,-1.59758300581111,1.368192140357275,-0.1431346893425639,0.04296939074993134,-0.3721219301223755,-0.2359975129365921,-0.01256722211837769,0.009703069925308228,0.03506046533584595,2,-0.4130007521771735,-0.4794254832657309,0.5853931732790386,-0.5068493995419184,0.9695286750793457,0.1426464468240738,-0.1991631686687469,38.74158477783203,29.09954071044922,-10.98583984375,2,10843.71311279167,1,2,1580907127.954279,1580903939.50652,2188,0.4597634,0,0,2731.799,9,8,1580907102.640174,10841.349703,0,16.96634,97.00618
1580907128.085048,137,0,1580907081.99744,41.20925486917037,29.07624497871732,260.2424,-1,-1,15.67298984527588,48.00724964208526,-9999,10843.87522179167,0.9825439453125,0.15411376953125,-0.1712799072265625,10843.87018679167,-1.598908836314997,1.363887529548861,-0.1456469562925669,0.07807611674070358,-0.4153739809989929,-0.2726434469223022,0.02243888378143311,0.02069941163063049,0.04608041048049927,2,-0.4113378809094694,-0.4787179800699906,0.587117317170054,-0.5068760806300737,0.9683085680007935,0.1451325714588165,-0.2032604813575745,38.74158477783203,29.09954071044922,-10.98583984375,2,10843.71311279167,1,2,1580907127.954279,1580903939.50652,2188,0.4597634,0,0,2731.799,9,8,1580907102.640174,10841.349703,0,16.96634,97.00618
1580907128.095298,138,0,1580907081.99744,41.20925486917037,29.07624497871732,260.2424,-1,-1,15.67298984527588,48.00724964208526,-9999,10843.88526179167,0.9849700927734375,0.146514892578125,-0.1920013427734375,10843.88022679167,-1.600487413509122,1.359915734327289,-0.1486130321871953,0.09563513845205307,-0.3830679655075073,-0.3224773108959198,0.01313841342926025,0.009396195411682129,0.03786516189575195,2,-0.4096977316833012,-0.4781640540315067,0.5889206392319624,-0.5066354205720096,0.967068612575531,0.1480665951967239,-0.2070138156414032,38.42948150634766,29.09820747375488,-11.14584350585938,2,10843.71311279167,1,2,1580907127.954279,1580903939.50652,2188,0.4597634,0,0,2731.799,9,8,1580907102.640174,10841.349703,0,16.96634,97.00618
1580907128.120404,139,0,1580907081.99744,41.20925486917037,29.07624497871732,260.2424,-1,-1,15.67298984527588,48.00724964208526,-9999,10843.89530279167,0.994476318359375,0.144744873046875,-0.21307373046875,10843.89026679167,-1.602372247655753,1.357259675382546,-0.1521234889989738,0.1079253554344177,-0.2289103716611862,-0.3763293623924255,0.01927411556243896,-0.0031166672706604,0.02375650405883789,2,-0.4083576178726563,-0.4780261062578385,0.5906327912680078,-0.5058536076168879,0.9660012722015381,0.1515374332666397,-0.209470197558403,38.42948150634766,29.09820747375488,-11.14584350585938,2,10843.71311279167,1,2,1580907127.954279,1580903939.50652,2188,0.4597634,0,0,2731.799,9,8,1580907102.640174,10841.349703,0,16.96634,97.00618
1580907128.121674,140,0,1580907081.99744,41.20925486917037,29.07624497871732,260.2424,-1,-1,15.67298984527588,48.00724964208526,-9999,10843.90534279167,1.059814453125,0.1781158447265625,-0.12847900390625,10843.90030779167,-1.604818780366553,1.355198673384606,-0.1561250451171063,0.1454570144414902,-0.168351411819458,-0.445407509803772,0.01118588447570801,-0.01277229189872742,-0.000456690788269043,2,-0.4071829764900747,-0.4780558272113212,0.592455151453801,-0.5046401002157477,0.9649676084518433,0.1554915606975555,-0.2113292962312698,38.10333251953125,29.19886779785156,-11.5909423828125,2,10843.71311279167,1,2,1580907127.954279,1580903939.50652,2188,0.4597634,0,0,2731.799,9,8,1580907102.640174,10841.349703,0,16.96634,97.00618
1580907128.12509,141,0,1580907081.99744,41.20925486917037,29.07624497871732,260.2424,-1,-1,15.67298984527588,48.00724964208526,-9999,10843.91541379167,1.076629638671875,0.2054901123046875,-0.0810089111328125,10843.91034779167,-1.608335813930265,1.352711899823756,-0.1602008957549391,0.2582629919052124,-0.1858443170785904,-0.4595176577568054,0.09083539247512817,0.002235561609268188,0.03791141510009766,2,-0.406113308643748,-0.4777837181982456,0.5946402540616171,-0.5031875603244621,0.9638122916221619,0.1595165282487869,-0.2135894000530243,38.10333251953125,29.19886779785156,-11.5909423828125,2,10843.71311279167,1,2,1580907127.954279,1580903939.50652,2188,0.4597634,0,0,2731.799,9,8,1580907102.640174,10841.349703,0,16.96634,97.00618
1580907128.135195,142,0,1580907081.99744,41.20925486917037,29.07624497871732,260.2424,-1,-1,15.67298984527588,48.00724964208526,-9999,10843.92545379167,1.3953857421875,0.1470947265625,-0.327056884765625,10843.92038779167,-1.611833430682773,1.349001424754103,-0.1663271909615332,0.2011669427156448,-0.3339357674121857,-0.6492239236831665,0.07788574695587158,0.04134148359298706,0.1566473245620728,2,-0.4040791112042574,-0.4777525959718018,0.5974527410035073,-0.5015204117953138,0.9620416760444641,0.1655613481998444,-0.2169450521469116,37.79315948486328,29.7462043762207,-11.7681884765625,2,10843.71311279167,1,2,1580907127.954279,1580903939.50652,2188,0.4597634,0,0,2731.799,9,8,1580907102.640174,10841.349703,0,16.96634,97.00618
1580907128.145242,143,0,1580907081.99744,41.20925486917037,29.07624497871732,260.2424,-1,-1,15.67298984527588,48.00724964208526,-9999,10843.93549379167,1.386276245117188,0.1164093017578125,-0.359832763671875,10843.93042779167,-1.614917512429185,1.344613102043161,-0.1759626241400131,0.0913352444767952,-0.392439067363739,-1.018816590309143,0.3245934247970581,-0.004813462495803833,-0.02741837501525879,2,-0.4007200965424473,-0.4785656087156511,0.6009461750650074,-0.4992616657942465,0.9594813585281372,0.175055980682373,-0.2207967191934586,37.79315948486328,29.7462043762207,-11.7681884765625,2,10843.71311279167,1,2,1580907127.954279,1580903939.50652,2188,0.4597634,0,0,2731.799,9,8,1580907102.640174,10841.349703,0,16.96634,97.00618
1580907128.176453,144,0,1580907081.99744,41.20925486917037,29.07624497871732,260.2424,-1,-1,15.67298984527588,48.00724964208526,-9999,10843.94553479167,1.026962280273438,0.1692352294921875,-0.2686309814453125,10843.94046879167,-1.617495549968118,1.341125729595463,-0.1870925862486845,-0.003863713704049587,-0.3054117560386658,-1.134702205657959,0.509324312210083,-0.07113179564476013,-0.1663848161697388,2,-0.3970625660794157,-0.4801034553185476,0.6043799483954838,-0.496554987326413,0.9567488431930542,0.1860030144453049,-0.2236839830875397,37.11707305908203,30.08764839172363,-12.01559448242188,2,10843.71311279167,1,2,1580907127.954279,1580903939.50652,2188,0.4597634,0,0,2731.799,9,8,1580907102.640174,10841.349703,0,16.96634,97.00618
1580907128.17784,145,0,1580907081.99744,41.20925486917037,29.07624497871732,260.2424,-1,-1,15.67298984527588,48.00724964208526,-9999,10843.95557479167,1.122756958007812,0.158447265625,-0.3609161376953125,10843.95053979167,-1.619901127881501,1.339262374223574,-0.1993987690516296,-0.04547826945781708,-0.1286042481660843,-1.245706677436829,0.1455338001251221,-0.048296719789505,-0.05762815475463867,2,-0.3934980327220364,-0.4823870556683728,0.6076310927197943,-0.4932003042672885,0.9540301561355591,0.1980800479650497,-0.2249240577220917,37.11707305908203,30.08764839172363,-12.01559448242188,2,10843.71311279167,1,2,1580907127.954279,1580903939.50652,2188,0.4597634,0,0,2731.799,9,8,1580907102.640174,10841.349703,0,16.96634,97.00618
1580907128.178791,146,0,1580907081.99744,41.20925486917037,29.07624497871732,260.2424,-1,-1,15.67298984527588,48.00724964208526,-9999,10843.96561479167,1.2706298828125,0.106719970703125,-0.4248504638671875,10843.96057979167,-1.621508731473831,1.338013889222736,-0.2133996259233847,-0.17213474214077,-0.103647768497467,-1.390317440032959,0.1025182008743286,-0.03421807289123535,-0.09439027309417725,2,-0.389418655897363,-0.4854138176886194,0.6108383818353393,-0.4894926681096837,0.9509567618370056,0.2117836326360703,-0.2254530787467957,36.10719299316406,30.87342834472656,-12.25405883789062,2,10843.71311279167,1,2,1580907127.954279,1580903939.50652,2188,0.4597634,0,0,2731.799,9,8,1580907102.640174,10841.349703,0,16.96634,97.00618
1580907128.185389,147,0,1580907081.99744,41.20925486917037,29.07624497871732,260.2424,-1,-1,15.67298984527588,48.00724964208526,-9999,10843.97565579167,1.292526245117188,0.134552001953125,-0.378662109375,10843.97061979167,-1.622747294060466,1.337647742759462,-0.2295747436302731,-0.2545982003211975,0.001479985192418098,-1.603482484817505,0.3006470203399658,-0.1189770698547363,-0.2065586447715759,2,-0.3848635188735682,-0.4892749078753445,0.6141357081473315,-0.4851056551803493,0.9474169015884399,0.2275634407997131,-0.2249802798032761,36.10719299316406,30.87342834472656,-12.25405883789062,2,10843.71311279167,1,2,1580907127.954279,1580903939.50652,2188,0.4597634,0,0,2731.799,9,8,1580907102.640174,10841.349703,0,16.96634,97.00618
1580907128.195434,148,0,1580907081.99744,41.20925486917037,29.07624497871732,260.2424,-1,-1,15.67298984527588,48.00724964208526,-9999,10843.98569579167,1.409408569335938,0.1240081787109375,-0.4111480712890625,10843.98065979167,-1.623468696460542,1.337349611838234,-0.2480209397711186,-0.3538853526115417,-0.03041642904281616,-1.79534912109375,0.3317489624023438,-0.1134767532348633,-0.1579557657241821,2,-0.379509096621547,-0.4938078154332369,0.6176498537798685,-0.480245023471139,0.9431049823760986,0.2454859465360641,-0.2242533713579178,35.12922668457031,31.77325057983398,-11.95013427734375,2,10843.71311279167,1,2,1580907127.954279,1580903939.50652,2188,0.4597634,0,0,2731.799,9,8,1580907102.640174,10841.349703,0,16.96634,97.00618
1580907128.205586,149,0,1580907081.99744,41.20925486917037,29.07624497871732,260.2424,-1,-1,15.67298984527588,48.00724964208526,-9999,10843.99576679167,1.493881225585938,0.1508941650390625,-0.4136810302734375,10843.99070079167,-1.623862041018821,1.338165688452866,-0.2699064774153034,-0.4700662791728973,0.09275506436824799,-2.122319221496582,0.4356812238693237,-0.1451530754566193,-0.188831090927124,2,-0.373365512329934,-0.4995021105169141,0.6214164896283745,-0.4742757208231535,0.9378344416618347,0.2666412889957428,-0.2221916764974594,35.12922668457031,31.77325057983398,-11.95013427734375,2,10843.71311279167,1,2,1580907127.954279,1580903939.50652,2188,0.4597634,0,0,2731.799,9,8,1580907102.640174,10841.349703,0,16.96634,97.00618
1580907128.239014,150,0,1580907081.99744,41.20925486917037,29.07624497871732,260.2424,-1,-1,15.67298984527588,48.00724964208526,-9999,10844.00580679167,1.723464965820312,0.14727783203125,-0.3721771240234375,10844.00074079167,-1.624407700010947,1.339456106477547,-0.2960873805256342,-0.5514290928840637,0.1635125875473022,-2.547020673751831,0.5271991491317749,-0.1466737389564514,-0.1885358095169067,2,-0.3660817589129113,-0.5062919792567251,0.6257883976105238,-0.4669492517317516,0.9310047626495361,0.2917800843715668,-0.219305157661438,33.64402770996094,33.07610321044922,-11.40679931640625,2,10843.71311279167,1,2,1580907127.954279,1580903939.50652,2188,0.4597634,0,0,2731.799,9,8,1580907102.640174,10841.349703,0,16.96634,97.00618
1580907128.240971,151,0,1580907081.99744,41.20925486917037,29.07624497871732,260.2424,-1,-1,15.67298984527588,48.00724964208526,-9999,10844.015853875,1.886795043945312,0.2021331787109375,-0.1800994873046875,10844.01078079167,-1.625702101686943,1.338846468236891,-0.3269370227316521,-0.5891014933586121,-0.02739175036549568,-3.018428325653076,0.7200146913528442,-0.1775765419006348,-0.1915040016174316,2,-0.3569259078570824,-0.5135701558758566,0.6313394919776555,-0.4585411548025382,0.9216689467430115,0.3211438059806824,-0.2176991850137711,33.64402770996094,33.07610321044922,-11.40679931640625,2,10843.71311279167,1,2,1580907127.954279,1580903939.50652,2188,0.4597634,0,0,2731.799,9,8,1580907102.640174,10841.349703,0,16.96634,97.00618
1580907128.242173,152,0,1580907081.99744,41.20925486917037,29.07624497871732,260.2424,-1,-1,15.67298984527588,48.00724964208526,-9999,10844.025893875,1.838088989257812,0.2392425537109375,-0.048492431640625,10844.020828875,-1.628695971222905,1.336461148621347,-0.3623216941344076,-0.5390082001686096,-0.156442403793335,-3.501134872436523,0.9500595331192017,-0.1711376011371613,-0.02176469564437866,2,-0.3461832404076394,-0.5211491898547099,0.6381319133955291,-0.4487185903963633,0.9095197916030884,0.354446142911911,-0.2171213775873184,31.42835235595703,35.06596755981445,-10.90335083007812,2,10843.71311279167,1,2,1580907127.954279,1580903939.50652,2188,0.4597634,0,0,2731.799,9,8,1580907102.640174,10841.349703,0,16.96634,97.00618
1580907128.245495,153,0,1580907081.99744,41.20925486917037,29.07624497871732,260.2424,-1,-1,15.67298984527588,48.00724964208526,-9999,10844.035934875,1.795562744140625,0.228057861328125,-0.1637115478515625,10844.030898875,-1.633478483134094,1.333627118482409,-0.4016806297107818,-0.4829761683940887,-0.09957492351531982,-3.90837025642395,0.9721177220344543,-0.1634990274906158,0.1368324756622314,2,-0.3344440539134699,-0.5291707030056734,0.6457358464492921,-0.4372079965666116,0.894640326499939,0.3909657597541809,-0.2162510901689529,31.42835235595703,35.06596755981445,-10.90335083007812,2,10843.71311279167,1,2,1580907127.954279,1580903939.50652,2188,0.4597634,0,0,2731.799,9,8,1580907102.640174,10841.349703,0,16.96634,97.00618
1580907128.256511,154,0,1580907081.99744,41.20925486917037,29.07624497871732,260.2424,-1,-1,15.67298984527588,48.00724964208526,-9999,10844.045974875,2.049484252929688,0.0314483642578125,-0.37701416015625,10844.040939875,-1.639567850087265,1.328788802525475,-0.4452014083984416,-0.4751123785972595,-0.2200086563825607,-4.336853504180908,0.8995014429092407,-0.1775925755500793,0.1281604766845703,2,-0.3209972266933002,-0.5374149943013226,0.6541943909316712,-0.4244710890789022,0.8762234449386597,0.4306396543979645,-0.2162918150424957,28.38066864013672,37.12892913818359,-10.58352661132812,2,10843.71311279167,1,2,1580907127.954279,1580903939.50652,2188,0.4597634,0,0,2731.799,9,8,1580907102.640174,10841.349703,0,16.96634,97.00618
1580907128.265977,155,0,1580907081.99744,41.20925486917037,29.07624497871732,260.2424,-1,-1,15.67298984527588,48.00724964208526,-9999,10844.056014875,2.050689697265625,0.1899871826171875,-0.2367706298828125,10844.050979875,-1.646536811705751,1.321088249523426,-0.4933086935961674,-0.585953414440155,-0.4730587601661682,-4.820218086242676,1.111995697021484,-0.3942186832427979,-0.1401854753494263,2,-0.3052663077864884,-0.545879073749549,0.6634271621743933,-0.4107222568156517,0.8534532785415649,0.4735426902770996,-0.2176570296287537,28.38066864013672,37.12892913818359,-10.58352661132812,2,10843.71311279167,1,2,1580907127.954279,1580903939.50652,2188,0.4597634,0,0,2731.799,9,8,1580907102.640174,10841.349703,0,16.96634,97.00618
1580907128.295896,156,0,1580907081.99744,41.20925486917037,29.07624497871732,260.2424,-1,-1,15.67298984527588,48.00724964208526,-9999,10844.066055875,1.89422607421875,0.3861541748046875,-0.245025634765625,10844.061019875,-1.655266776804571,1.313344368363112,-0.5439686813380769,-0.525201141834259,-0.3356159627437592,-5.055621147155762,1.266929864883423,-0.4232321381568909,-0.06450581550598145,2,-0.2890283406461054,-0.5545534356875158,0.6727248374987481,-0.3954419021252328,0.8274604082107544,0.517535924911499,-0.2178662121295929,24.46657562255859,39.23621368408203,-10.189453125,2,10843.71311279167,1,2,1580907127.954279,1580903939.50652,2188,0.4597634,0,0,2731.799,9,8,1580907102.640174,10841.349703,0,16.96634,97.00618
1580907128.296956,157,0,1580907081.99744,41.20925486917037,29.07624497871732,260.2424,-1,-1,15.67298984527588,48.00724964208526,-9999,10844.076125875,1.88140869140625,0.300323486328125,-0.2119293212890625,10844.071059875,-1.66590031803122,1.307023858151605,-0.5976563319607681,-0.5113233923912048,-0.04863104969263077,-5.390849113464355,1.123517155647278,-0.195750892162323,-0.0196681022644043,2,-0.2726821352482766,-0.5638081820721644,0.6818316518737668,-0.3779820711776833,0.7980653643608093,0.5627065896987915,-0.2155295759439468,24.46657562255859,39.23621368408203,-10.189453125,2,10843.71311279167,1,2,1580907127.954279,1580903939.50652,2188,0.4597634,0,0,2731.799,9,8,1580907102.640174,10841.349703,0,16.96634,97.00618
1580907128.297604,158,0,1580907081.99744,41.20925486917037,29.07624497871732,260.2424,-1,-1,15.67298984527588,48.00724964208526,-9999,10844.086166875,1.969039916992188,0.1466827392578125,-0.27960205078125,10844.081100875,-1.678615818937359,1.302240594289222,-0.6545554721604613,-0.4915502071380615,0.2782445251941681,-5.718531131744385,1.111099243164062,-0.274529755115509,-0.01114684343338013,2,-0.2562919106564189,-0.5736420311544616,0.6906513234931053,-0.3581201691337235,0.7648822665214539,0.6088066697120667,-0.2104985564947128,19.68991088867188,41.5151252746582,-9.6534423828125,2,10843.71311279167,1,2,1580907127.954279,1580903939.50652,2188,0.4597634,0,0,2731.799,9,8,1580907102.640174,10841.349703,0,16.96634,97.00618
1580907128.306077,159,0,1580907081.99744,41.20925486917037,29.07624497871732,260.2424,-1,-1,15.67298984527588,48.00724964208526,-9999,10844.096206875,2.128448486328125,0.10400390625,-0.2422943115234375,10844.091140875,-1.694177156114125,1.298568639356707,-0.7156247633373777,-0.4866888821125031,0.5918666124343872,-6.197951793670654,1.200592637062073,-0.4664018750190735,-0.05454427003860474,2,-0.2396587510272706,-0.5840418584551066,0.699287053532366,-0.3353451036145182,0.7268916964530945,0.6560890674591064,-0.2029175758361816,19.68991088867188,41.5151252746582,-9.6534423828125,2,10843.71311279167,1,2,1580907127.954279,1580903939.50652,2188,0.4597634,0,0,2731.799,9,8,1580907102.640174,10841.349703,0,16.96634,97.00618
1580907128.316258,160,0,1580907081.99744,41.20925486917037,29.07624497871732,260.2424,-1,-1,15.67298984527588,48.00724964208526,-9999,10844.106246875,2.34344482421875,0.2066497802734375,-0.310211181640625,10844.101180875,-1.71368480313451,1.294161307801146,-0.7811548861703845,-0.4040496647357941,0.8885342478752136,-6.689067363739014,1.392426252365112,-0.6088639497756958,-0.08089089393615723,2,-0.2224057112857958,-0.594612713649696,0.7078812392948566,-0.3096377207530995,0.6831027269363403,0.7040999531745911,-0.1939428448677063,14.28385162353516,43.15317153930664,-8.918670654296875,2,10843.71311279167,1,2,1580907127.954279,1580903939.50652,2188,0.4597634,0,0,2731.799,9,8,1580907102.640174,10841.349703,0,16.96634,97.00618
