loggingTime,loggingSample,identifierForVendor,locationTimestamp_since1970,locationLatitude,locationLongitude,locationAltitude,locationSpeed,locationCourse,locationVerticalAccuracy,locationHorizontalAccuracy,locationFloor,accelerometerTimestamp_sinceReboot,accelerometerAccelerationX,accelerometerAccelerationY,accelerometerAccelerationZ,motionTimestamp_sinceReboot,motionYaw,motionRoll,motionPitch,motionRotationRateX,motionRotationRateY,motionRotationRateZ,motionUserAccelerationX,motionUserAccelerationY,motionUserAccelerationZ,motionAttitudeReferenceFrame,motionQuaternionX,motionQuaternionY,motionQuaternionZ,motionQuaternionW,motionGravityX,motionGravityY,motionGravityZ,motionMagneticFieldX,motionMagneticFieldY,motionMagneticFieldZ,motionMagneticFieldCalibrationAccuracy,activityTimestamp_sinceReboot,activity,activityActivityConfidence,activityActivityStartDate,pedometerStartDate,pedometerNumberofSteps,pedometerAverageActivePace,pedometerCurrentPace,pedometerCurrentCadence,pedometerDistance,pedometerFloorAscended,pedometerFloorDescended,pedometerEndDate,altimeterTimestamp_sinceReboot,altimeterReset,altimeterRelativeAltitude,altimeterPressure
1580907501.262999,1,0,1580907286.99823,41.20781296037784,29.0754925099451,275.2123,0.1345286,-1,23.46983528137207,200,-9999,11217.0131155,0.9640960693359375,0.095184326171875,-0.1371917724609375,11217.0080495,-3.108980034192533,1.432501053290059,-0.09791796421334827,-0.004188998136669397,0.006957963109016418,-0.007584638427942991,-0.006998360157012939,0.001988492906093597,0.003071010112762451,2,0.6550853541587786,0.04760155768359022,-0.7537928578895178,-0.01984332186896649,0.9857081770896912,0.09776156395673752,-0.1371945440769196,37.96795654296875,4.539201736450195,-21.91668701171875,2,11216.9449095,1,2,1580907501.186076,1580903939.50652,2435,0.4661743,0,0,2995.009,10,12,1580907483.189245,11213.975848,0,10.564,97.08044
1580907501.264664,2,0,1580907286.99823,41.20781296037784,29.0754925099451,275.2123,0.1345286,-1,23.46983528137207,200,-9999,11217.0231565,0.965972900390625,0.0975494384765625,-0.1402435302734375,11217.0180905,-3.108938234070972,1.432598377664827,-0.09792023774246029,-0.006613790057599545,0.004388893023133278,-0.002431689295917749,-0.0166400671005249,-0.002271018922328949,0.004912257194519043,2,0.6551209932952309,0.04761513906661675,-0.7537612996730688,-0.0198306359980705,0.985721230506897,0.09776382893323898,-0.13709856569767,37.828125,4.44581413269043,-21.71002197265625,2,11216.9449095,1,2,1580907501.186076,1580903939.50652,2435,0.4661743,0,0,2995.009,10,12,1580907483.189245,11213.975848,0,10.564,97.08044
1580907501.265514,3,0,1580907286.99823,41.20781296037784,29.0754925099451,275.2123,0.1345286,-1,23.46983528137207,200,-9999,11217.0331965,0.9627838134765625,0.0979766845703125,-0.14129638671875,11217.0281305,-3.108911793639285,1.432788085199136,-0.09790478727743229,-0.002149533480405807,0.0218320656567812,0.0008024536073207855,-0.02422064542770386,-0.00121799111366272,-0.006749570369720459,2,0.6551922048999893,0.04761610463961245,-0.7536995639798595,-0.01982012213448038,0.9857486486434937,0.09774845093488693,-0.1369117647409439,37.828125,4.44581413269043,-21.71002197265625,2,11216.9449095,1,2,1580907501.186076,1580903939.50652,2435,0.4661743,0,0,2995.009,10,12,1580907483.189245,11213.975848,0,10.564,97.08044
1580907501.26633,4,0,1580907286.99823,41.20781296037784,29.0754925099451,275.2123,0.1345286,-1,23.46983528137207,200,-9999,11217.0432365,0.9715118408203125,0.09820556640625,-0.13543701171875,11217.0382015,-3.10887081785879,1.432924326687878,-0.09786600156028172,-0.004118142183870077,0.01212950982153416,0.005110116675496101,-0.02575385570526123,-0.0001569315791130066,-0.007417678833007812,2,0.655243425056218,0.04761358493663819,-0.753655953537937,-0.01979518534531101,0.9857711791992188,0.09770985692739487,-0.1367779970169067,38.01026916503906,4.403232574462891,-21.5318603515625,2,11216.9449095,1,2,1580907501.186076,1580903939.50652,2435,0.4661743,0,0,2995.009,10,12,1580907483.189245,11213.975848,0,10.564,97.08044
1580907501.267236,5,0,1580907286.99823,41.20781296037784,29.0754925099451,275.2123,0.1345286,-1,23.46983528137207,200,-9999,11217.0532775,0.97265625,0.097198486328125,-0.13665771484375,11217.0482415,-3.108840756202478,1.432971312977988,-0.09783520275951041,-0.002636625897139311,0.004738170653581619,0.003396105952560902,-0.01926314830780029,0.0003925636410713196,-0.002398133277893066,2,0.6552611043587333,0.04761137875127857,-0.7536411829694593,-0.01977487321373536,0.9857804775238037,0.09767920523881912,-0.1367320865392685,38.01026916503906,4.403232574462891,-21.5318603515625,2,11216.9449095,1,2,1580907501.186076,1580903939.50652,2435,0.4661743,0,0,2995.009,10,12,1580907483.189245,11213.975848,0,10.564,97.08044
1580907501.270608,6,0,1580907286.99823,41.20781296037784,29.0754925099451,275.2123,0.1345286,-1,23.46983528137207,200,-9999,11217.0633175,0.9708709716796875,0.096832275390625,-0.137298583984375,11217.0582815,-3.108826516051227,1.432941801573216,-0.09783222125375705,-0.0009764153510332108,-0.003403764218091965,-0.0001075481995940208,-0.01559728384017944,-0.0004742145538330078,-0.001895904541015625,2,0.6552497120251364,0.04761521386521897,-0.753651016170749,-0.01976782727079926,0.9857767224311829,0.09767623245716095,-0.1367612183094025,38.05864715576172,4.35224723815918,-21.672607421875,2,11216.9449095,1,2,1580907501.186076,1580903939.50652,2435,0.4661743,0,0,2995.009,10,12,1580907483.189245,11213.975848,0,10.564,97.08044
1580907501.280697,7,0,1580907286.99823,41.20781296037784,29.0754925099451,275.2123,0.1345286,-1,23.46983528137207,200,-9999,11217.0733575,0.9663238525390625,0.0964813232421875,-0.1400604248046875,11217.0683225,-3.108816724865713,1.432913701173077,-0.09785325794559532,-0.0008613672107458115,-0.003157954663038254,-0.00139412097632885,-0.01688838005065918,-0.001120820641517639,-0.002509355545043945,2,0.6552384232059383,0.04762661542866245,-0.7536600308777515,-0.01977037451842406,0.9857708215713501,0.09769716858863831,-0.136788621544838,38.05864715576172,4.35224723815918,-21.672607421875,2,11216.9449095,1,2,1580907501.186076,1580903939.50652,2435,0.4661743,0,0,2995.009,10,12,1580907483.189245,11213.975848,0,10.564,97.08044
1580907501.29115,8,0,1580907286.99823,41.20781296037784,29.0754925099451,275.2123,0.1345286,-1,23.46983528137207,200,-9999,11217.0834285,0.9653167724609375,0.0951995849609375,-0.1408233642578125,11217.0783625,-3.108801378944347,1.432929197073464,-0.09789941711476277,-0.002260251436382532,0.002017850056290627,-0.003731663338840008,-0.02057862281799316,-0.001426286995410919,-0.004691958427429199,2,0.655242871724996,0.04764885946748685,-0.7536544867295227,-0.01978011274665098,0.9857684373855591,0.09774310886859894,-0.1367727369070053,38.08535766601562,4.338001251220703,-21.52508544921875,2,11216.9449095,1,2,1580907501.186076,1580903939.50652,2435,0.4661743,0,0,2995.009,10,12,1580907483.189245,11213.975848,0,10.564,97.08044
1580907501.312397,9,0,1580907286.99823,41.20781296037784,29.0754925099451,275.2123,0.1345286,-1,23.46983528137207,200,-9999,11217.0934685,0.968475341796875,0.0965423583984375,-0.138824462890625,11217.0884025,-3.108786080572543,1.43299125637627,-0.09795790787665815,-0.001814704388380051,0.005683423951268196,-0.005556994117796421,-0.02372485399246216,-0.002552762627601624,-0.006966531276702881,2,0.655264587556958,0.04767526800952342,-0.753633598348749,-0.01979502071295704,0.9857713580131531,0.0978013202548027,-0.1367107778787613,38.08535766601562,4.338001251220703,-21.52508544921875,2,11216.9449095,1,2,1580907501.186076,1580903939.50652,2435,0.4661743,0,0,2995.009,10,12,1580907483.189245,11213.975848,0,10.564,97.08044
1580907501.313358,10,0,1580907286.99823,41.20781296037784,29.0754925099451,275.2123,0.1345286,-1,23.46983528137207,200,-9999,11217.1035085,0.9673919677734375,0.09808349609375,-0.1374969482421875,11217.0984435,-3.108774069285626,1.433071251337022,-0.09800777034218269,-0.001516587100923061,0.006949206814169884,-0.004477971699088812,-0.02037405967712402,-0.002343118190765381,-0.005200028419494629,2,0.6552933336173251,0.04769717383206327,-0.7536068654277849,-0.01980876836185418,0.9857774376869202,0.09785094112157822,-0.1366312503814697,37.94712066650391,4.668645858764648,-21.56591796875,2,11216.9449095,1,2,1580907501.186076,1580903939.50652,2435,0.4661743,0,0,2995.009,10,12,1580907483.189245,11213.975848,0,10.564,97.08044
1580907501.320682,11,0,1580907286.99823,41.20781296037784,29.0754925099451,275.2123,0.1345286,-1,23.46983528137207,200,-9999,11217.1135495,0.9679718017578125,0.09771728515625,-0.1371917724609375,11217.1084835,-3.108761356349429,1.433142061334573,-0.09804052335369809,-0.001628706231713295,0.00680539570748806,-0.002803908661007881,-0.02079260349273682,-5.647540092468262e-05,-0.003805637359619141,2,0.65531897857977,0.04771296233336173,-0.7535834156020605,-0.01981641415378092,0.9857840538024902,0.09788353741168976,-0.1365610212087631,37.94712066650391,4.668645858764648,-21.56591796875,2,11216.9449095,1,2,1580907501.186076,1580903939.50652,2435,0.4661743,0,0,2995.009,10,12,1580907483.189245,11213.975848,0,10.564,97.08044
1580907501.3309,12,0,1580907286.99823,41.20781296037784,29.0754925099451,275.2123,0.1345286,-1,23.46983528137207,200,-9999,11217.1235895,0.9687957763671875,0.0982513427734375,-0.138427734375,11217.1185545,-3.108748982686339,1.433185229513634,-0.09806530589293119,-0.002105389256030321,0.004447661340236664,-0.001810087822377682,-0.02094858884811401,-0.0005847513675689697,-0.003024637699127197,2,0.6553344003264769,0.0477259130176771,-0.7535690118352942,-0.01982092201793891,0.9857874512672424,0.09790819883346558,-0.136518120765686,37.94767761230469,4.458345413208008,-21.6005859375,2,11216.9449095,1,2,1580907501.186076,1580903939.50652,2435,0.4661743,0,0,2995.009,10,12,1580907483.189245,11213.975848,0,10.564,97.08044
1580907501.341289,13,0,1580907286.99823,41.20781296037784,29.0754925099451,275.2123,0.1345286,-1,23.46983528137207,200,-9999,11217.1336295,0.967376708984375,0.098052978515625,-0.1373443603515625,11217.1285945,-3.108758391947474,1.433199926381863,-0.09807418843766144,0.001799603924155235,0.002193029969930649,-0.0004468159750103951,-0.01971393823623657,4.722923040390015e-05,-0.00418400764465332,2,0.655339970520004,0.04772602533540649,-0.7535638944256161,-0.01982774156262151,0.9857884645462036,0.09791704267263412,-0.1365035027265549,37.94767761230469,4.458345413208008,-21.6005859375,2,11216.9449095,1,2,1580907501.186076,1580903939.50652,2435,0.4661743,0,0,2995.009,10,12,1580907483.189245,11213.975848,0,10.564,97.08044
1580907501.351456,14,0,1580907286.99823,41.20781296037784,29.0754925099451,275.2123,0.1345286,-1,23.46983528137207,200,-9999,11217.1436705,0.967376708984375,0.0977783203125,-0.138946533203125,11217.1386345,-3.108743534004592,1.433208848864769,-0.09806736491672219,-0.001996777951717377,0.0007110871374607086,0.001039569266140461,-0.02086007595062256,-0.0001290366053581238,-0.003170013427734375,2,0.6553431245321703,0.04772823890410561,-0.7535612881519764,-0.0198201095664684,0.9857904314994812,0.09791024774312973,-0.1364948153495789,38.24832153320312,4.630632400512695,-21.5428466796875,2,11216.9449095,1,2,1580907501.186076,1580903939.50652,2435,0.4661743,0,0,2995.009,10,12,1580907483.189245,11213.975848,0,10.564,97.08044
1580907501.371337,15,0,1580907286.99823,41.20781296037784,29.0754925099451,275.2123,0.1345286,-1,23.46983528137207,200,-9999,11217.1537105,0.9671478271484375,0.096923828125,-0.137939453125,11217.1486745,-3.108739929558689,1.433201422937419,-0.09804764182762345,0.0008517391979694366,-0.002392027527093887,0.00190483033657074,-0.02104419469833374,-0.0002772286534309387,-0.004459798336029053,2,0.6553406900109063,0.04772207104368287,-0.753563861179725,-0.01981211243036946,0.9857911467552185,0.09789062291383743,-0.1365023702383041,38.24832153320312,4.630632400512695,-21.5428466796875,2,11216.9449095,1,2,1580907501.186076,1580903939.50652,2435,0.4661743,0,0,2995.009,10,12,1580907483.189245,11213.975848,0,10.564,97.08044
1580907501.372677,16,0,1580907286.99823,41.20781296037784,29.0754925099451,275.2123,0.1345286,-1,23.46983528137207,200,-9999,11217.1637815,0.9683380126953125,0.0972137451171875,-0.137939453125,11217.1587155,-3.10873277701182,1.433212945663045,-0.09802484708046792,-0.0006436053663492203,0.002409994602203369,0.002769553102552891,-0.02152109146118164,-0.00107845664024353,-0.0041656494140625,2,0.6553453619033551,0.04771572514195075,-0.7535605582848645,-0.01980220076401287,0.9857950806617737,0.0978679358959198,-0.1364913284778595,38.22428894042969,4.48823356628418,-21.4718017578125,2,11216.9449095,1,2,1580907501.186076,1580903939.50652,2435,0.4661743,0,0,2995.009,10,12,1580907483.189245,11213.975848,0,10.564,97.08044
1580907501.381045,17,0,1580907286.99823,41.20781296037784,29.0754925099451,275.2123,0.1345286,-1,23.46983528137207,200,-9999,11217.1738215,0.9690399169921875,0.0975494384765625,-0.137420654296875,11217.1687555,-3.108726410573573,1.4332229180418,-0.09800405127576378,-0.0006800908595323563,0.002036619931459427,0.002918423153460026,-0.02077674865722656,-0.0011797696352005,-0.003854811191558838,2,0.6553494317677573,0.04770988791091553,-0.7535576077340256,-0.01979321454791041,0.9857984185218811,0.09784723818302155,-0.1364817768335342,38.22428894042969,4.48823356628418,-21.4718017578125,2,11216.9449095,1,2,1580907501.186076,1580903939.50652,2435,0.4661743,0,0,2995.009,10,12,1580907483.189245,11213.975848,0,10.564,97.08044
1580907501.39118,18,0,1580907286.99823,41.20781296037784,29.0754925099451,275.2123,0.1345286,-1,23.46983528137207,200,-9999,11217.1838615,0.970245361328125,0.096893310546875,-0.1373138427734375,11217.1787955,-3.108720750531056,1.433218553621029,-0.09801128745910727,-0.0003659240901470184,-0.0003746598958969116,-0.0008461317047476768,-0.01946324110031128,-0.0004698336124420166,-0.003392815589904785,2,0.6553474907399152,0.04771450843726439,-0.7535590054382498,-0.01979335283242496,0.9857971668243408,0.09785444289445877,-0.1364859789609909,38.26187133789062,4.556760787963867,-21.4036865234375,2,11216.9449095,1,2,1580907501.186076,1580903939.50652,2435,0.4661743,0,0,2995.009,10,12,1580907483.189245,11213.975848,0,10.564,97.08044
1580907501.40112,19,0,1580907286.99823,41.20781296037784,29.0754925099451,275.2123,0.1345286,-1,23.46983528137207,200,-9999,11217.1939025,0.9696807861328125,0.09637451171875,-0.137725830078125,11217.1888365,-3.108712621051488,1.433205771150157,-0.09804691097750295,-0.001436781138181686,-0.001622350886464119,-0.003450969699770212,-0.0191224217414856,-0.00117676705121994,-0.003411233425140381,2,0.6553416851278544,0.04773070247338995,-0.753562836386785,-0.0198016769507761,0.9857919812202454,0.09788989275693893,-0.1364981085062027,38.26187133789062,4.556760787963867,-21.4036865234375,2,11216.9449095,1,2,1580907501.186076,1580903939.50652,2435,0.4661743,0,0,2995.009,10,12,1580907483.189245,11213.975848,0,10.564,97.08044
1580907501.411351,20,0,1580907286.99823,41.20781296037784,29.0754925099451,275.2123,0.1345286,-1,23.46983528137207,200,-9999,11217.2039425,0.9668731689453125,0.0972900390625,-0.139556884765625,11217.1989065,-3.108722144071256,1.433230880350967,-0.09811013111226664,3.105960786342621e-05,0.003096072003245354,-0.007161727640777826,-0.0178380012512207,-0.001560300588607788,-0.003055334091186523,2,0.6553499573924998,0.04775112095350041,-0.7535537904309579,-0.01982660973085237,0.98578941822052,0.09795281291007996,-0.1364725232124329,38.27492523193359,4.725448608398438,-21.39190673828125,2,11217.1933525,2,0,1580907501.434519,1580903939.50652,2435,0.4661743,0,0,2995.009,10,12,1580907483.189245,11213.975848,0,10.564,97.08044
1580907501.432798,21,0,1580907286.99823,41.20781296037784,29.0754925099451,275.2123,0.1345286,-1,23.46983528137207,200,-9999,11217.2139825,0.968017578125,0.098419189453125,-0.1380462646484375,11217.2089475,-3.108731220164173,1.433259510496146,-0.09818045605163438,-0.0001670792698860168,0.001851841807365417,-0.007236029952764511,-0.02140563726425171,-0.001599952578544617,-0.005434393882751465,2,0.655359393351025,0.04777432229474016,-0.7535433969883929,-0.01985379977726956,0.985786497592926,0.09802279621362686,-0.1364433616399765,38.27492523193359,4.725448608398438,-21.39190673828125,2,11217.1933525,2,0,1580907501.434519,1580903939.50652,2435,0.4661743,0,0,2995.009,10,12,1580907483.189245,11213.975848,0,10.564,97.08044
1580907501.434081,22,0,1580907286.99823,41.20781296037784,29.0754925099451,275.2123,0.1345286,-1,23.46983528137207,200,-9999,11217.2240225,0.964447021484375,0.098968505859375,-0.1385040283203125,11217.2189875,-3.108744149687392,1.433325751722094,-0.09822919000746272,0.0007729092612862587,0.00782385841012001,-0.00524176238104701,-0.02046400308609009,-6.705522537231445e-07,-0.00444793701171875,2,0.6553835818977072,0.0477877615217594,-0.7535207828067157,-0.01987626445085747,0.9857906103134155,0.09807129949331284,-0.1363773792982101,38.22161102294922,4.708606719970703,-21.387939453125,2,11217.1933525,2,0,1580907501.434519,1580903939.50652,2435,0.4661743,0,0,2995.009,10,12,1580907483.189245,11213.975848,0,10.564,97.08044
1580907501.44132,23,0,1580907286.99823,41.20781296037784,29.0754925099451,275.2123,0.1345286,-1,23.46983528137207,200,-9999,11217.2340635,0.9627838134765625,0.098480224609375,-0.1388702392578125,11217.2290275,-3.108745966402047,1.433411296574334,-0.0982354255710976,0.0002059219405055046,0.008202826604247093,-0.0007679183036088943,-0.02255028486251831,0.0001762211322784424,-0.00441056489944458,2,0.6554157147318758,0.04778866202262005,-0.7534926620016558,-0.01988103910000459,0.9858016967773438,0.09807750582695007,-0.136292964220047,38.22161102294922,4.708606719970703,-21.387939453125,2,11217.1933525,2,0,1580907501.434519,1580903939.50652,2435,0.4661743,0,0,2995.009,10,12,1580907483.189245,11213.975848,0,10.564,97.08044
1580907501.451453,24,0,1580907286.99823,41.20781296037784,29.0754925099451,275.2123,0.1345286,-1,23.46983528137207,200,-9999,11217.2441335,0.9658660888671875,0.098419189453125,-0.138031005859375,11217.2390685,-3.108747143369792,1.433518800472402,-0.09822241793251607,0.0008045239374041557,0.0114133208990097,0.001488129608333111,-0.02592319250106812,0.0004028230905532837,-0.005203306674957275,2,0.6554565314728078,0.04778231449877471,-0.7534576252697841,-0.01987977738775516,0.9858176112174988,0.09806455671787262,-0.1361871659755707,38.33380126953125,4.555515289306641,-21.3907470703125,2,11217.1933525,2,0,1580907501.434519,1580903939.50652,2435,0.4661743,0,0,2995.009,10,12,1580907483.189245,11213.975848,0,10.564,97.08044
1580907501.461655,25,0,1580907286.99823,41.20781296037784,29.0754925099451,275.2123,0.1345286,-1,23.46983528137207,200,-9999,11217.2541745,0.9672393798828125,0.09783935546875,-0.1376495361328125,11217.2491085,-3.108741238309376,1.433641839758998,-0.09819120961958461,-0.001273274421691895,0.0123470276594162,0.004156882874667645,-0.02366942167282104,0.0002508610486984253,-0.00477522611618042,2,0.6555034393188452,0.04777128662437935,-0.7534177436045449,-0.01987024692335707,0.9858373999595642,0.09803350269794464,-0.1360662877559662,38.33380126953125,4.555515289306641,-21.3907470703125,2,11217.1933525,2,0,1580907501.434519,1580903939.50652,2435,0.4661743,0,0,2995.009,10,12,1580907483.189245,11213.975848,0,10.564,97.08044
1580907501.472115,26,0,1580907286.99823,41.20781296037784,29.0754925099451,275.2123,0.1345286,-1,23.46983528137207,200,-9999,11217.2642145,0.968292236328125,0.0989990234375,-0.136474609375,11217.2591485,-3.10872489629806,1.433770517572577,-0.09813668261408608,-0.001125563867390156,0.01349282637238503,0.00567843671888113,-0.02131187915802002,-0.0006102621555328369,-0.004337072372436523,2,0.6555527436380265,0.04775485285816872,-0.753376353907306,-0.01984926632397194,0.9858600497245789,0.09797923266887665,-0.1359401494264603,38.18697357177734,4.541841506958008,-21.19940185546875,2,11217.1933525,2,0,1580907501.434519,1580903939.50652,2435,0.4661743,0,0,2995.009,10,12,1580907483.189245,11213.975848,0,10.564,97.08044
1580907501.493896,27,0,1580907286.99823,41.20781296037784,29.0754925099451,275.2123,0.1345286,-1,23.46983528137207,200,-9999,11217.2742545,0.971923828125,0.097503662109375,-0.136138916015625,11217.2691885,-3.108699741225541,1.433836038052534,-0.09807949918520861,-0.00178096815943718,0.006429059430956841,0.005921050906181335,-0.02089905738830566,0.0005454719066619873,-0.003317475318908691,2,0.6555780861592514,0.04774094071741813,-0.7533560651139088,-0.01982256077785045,0.9858747720718384,0.09792232513427734,-0.1358763575553894,38.18697357177734,4.541841506958008,-21.19940185546875,2,11217.1933525,2,0,1580907501.434519,1580903939.50652,2435,0.4661743,0,0,2995.009,10,12,1580907483.189245,11213.975848,0,10.564,97.08044
1580907501.495539,28,0,1580907286.99823,41.20781296037784,29.0754925099451,275.2123,0.1345286,-1,23.46983528137207,200,-9999,11217.2842955,0.9732818603515625,0.097381591796875,-0.1346893310546875,11217.2792595,-3.108673493344513,1.433821518188168,-0.09805071673356575,-0.003106055781245232,-0.001196360215544701,0.003243949264287949,-0.01749730110168457,-0.0001124739646911621,-0.002692580223083496,2,0.6555726343181206,0.04773886139484157,-0.7533614245281138,-0.0198028781451912,0.9858755469322205,0.09789368510246277,-0.1358910501003265,38.21881103515625,4.633335113525391,-21.30511474609375,2,11217.1933525,2,0,1580907501.434519,1580903939.50652,2435,0.4661743,0,0,2995.009,10,12,1580907483.189245,11213.975848,0,10.564,97.08044
1580907501.501643,29,0,1580907286.99823,41.20781296037784,29.0754925099451,275.2123,0.1345286,-1,23.46983528137207,200,-9999,11217.2943355,0.97235107421875,0.0978240966796875,-0.1351165771484375,11217.2892995,-3.108668926563227,1.433714891908025,-0.09804480812503776,0.0005805585533380508,-0.01081063877791166,0.0009658811613917351,-0.01563715934753418,-0.001174695789813995,-0.001869857311248779,2,0.6555324868716916,0.04773919213969318,-0.7533965759815535,-0.01979666586322172,0.9858617186546326,0.0978878065943718,-0.1359962522983551,38.21881103515625,4.633335113525391,-21.30511474609375,2,11217.1933525,2,0,1580907501.434519,1580903939.50652,2435,0.4661743,0,0,2995.009,10,12,1580907483.189245,11213.975848,0,10.564,97.08044
1580907501.511523,30,0,1580907286.99823,41.20781296037784,29.0754925099451,275.2123,0.1345286,-1,23.46983528137207,200,-9999,11217.3043755,0.96807861328125,0.0969085693359375,-0.1389007568359375,11217.2993405,-3.108675624114271,1.433617444776772,-0.09806826953068098,0.00172644667327404,-0.009563157334923744,-0.002523902803659439,-0.01537740230560303,-0.000145256519317627,-0.0006448030471801758,2,0.6554954216904555,0.04774678620599197,-0.7534280355561349,-0.01980457542574615,0.9858460426330566,0.09791114926338196,-0.1360919922590256,38.34099578857422,4.369300842285156,-21.21905517578125,2,11217.1933525,2,0,1580907501.434519,1580903939.50652,2435,0.4661743,0,0,2995.009,10,12,1580907483.189245,11213.975848,0,10.564,97.08044
1580907501.521739,31,0,1580907286.99823,41.20781296037784,29.0754925099451,275.2123,0.1345286,-1,23.46983528137207,200,-9999,11217.3144155,0.9672393798828125,0.097381591796875,-0.13861083984375,11217.3093805,-3.108671638748381,1.433583036636196,-0.09811522450355205,-0.0004845093935728073,-0.00274253636598587,-0.00502381194382906,-0.01921337842941284,-0.001382291316986084,-0.004288673400878906,2,0.6554813127717944,0.04776609780348702,-0.7534388084250867,-0.01981766438952326,0.985836923122406,0.09795787930488586,-0.1361252963542938,38.32451629638672,4.53196907043457,-21.1715087890625,2,11217.1933525,2,0,1580907501.434519,1580903939.50652,2435,0.4661743,0,0,2995.009,10,12,1580907483.189245,11213.975848,0,10.564,97.08044
1580907501.548448,32,0,1580907286.99823,41.20781296037784,29.0754925099451,275.2123,0.1345286,-1,23.46983528137207,200,-9999,11217.3244865,0.9678802490234375,0.0977783203125,-0.1373138427734375,11217.3194205,-3.108666531913575,1.433556722695762,-0.09816986922259549,-0.001032969914376736,-0.002773020416498184,-0.005973336286842823,-0.02127963304519653,-0.001024842262268066,-0.005301058292388916,2,0.6554700606582013,0.04778858887636416,-0.7534467383812442,-0.01983305679845973,0.9858279824256897,0.09801226109266281,-0.1361504942178726,38.32451629638672,4.53196907043457,-21.1715087890625,2,11217.1933525,2,0,1580907501.434519,1580903939.50652,2435,0.4661743,0,0,2995.009,10,12,1580907483.189245,11213.975848,0,10.564,97.08044
1580907501.549888,33,0,1580907286.99823,41.20781296037784,29.0754925099451,275.2123,0.1345286,-1,23.46983528137207,200,-9999,11217.3345275,0.967376708984375,0.09918212890625,-0.13677978515625,11217.3294615,-3.108660942907868,1.433527863601233,-0.09820335673928314,-0.001680384390056133,-0.003356520086526871,-0.002638259902596474,-0.02081459760665894,-0.0007073134183883667,-0.004006505012512207,2,0.6554583101059658,0.04780330426815467,-0.7534557782180894,-0.01984125985943309,0.9858207702636719,0.09804558753967285,-0.1361784934997559,38.29934692382812,4.533229827880859,-21.05950927734375,2,11217.1933525,2,0,1580907501.434519,1580903939.50652,2435,0.4661743,0,0,2995.009,10,12,1580907483.189245,11214.921527,0,10.55078,97.0806
1580907501.551896,34,0,1580907286.99823,41.20781296037784,29.0754925099451,275.2123,0.1345286,-1,23.46983528137207,200,-9999,11217.3445675,0.9652557373046875,0.0994720458984375,-0.138092041015625,11217.3395015,-3.108668639252985,1.433512850707851,-0.0982056629298621,0.000731293112039566,-0.0008837059140205383,0.0008849212899804115,-0.02050721645355225,0.0003432482481002808,-0.002679526805877686,2,0.6554527887803896,0.04780179816928765,-0.753460561266789,-0.01984456021930134,0.9858184456825256,0.0980478823184967,-0.136193260550499,38.29934692382812,4.533229827880859,-21.05950927734375,2,11217.1933525,2,0,1580907501.434519,1580903939.50652,2435,0.4661743,0,0,2995.009,10,12,1580907483.189245,11214.921527,0,10.55078,97.0806
1580907501.561854,35,0,1580907286.99823,41.20781296037784,29.0754925099451,275.2123,0.1345286,-1,23.46983528137207,200,-9999,11217.3546075,0.96478271484375,0.0989227294921875,-0.138458251953125,11217.3495415,-3.1086799114559,1.43351551204508,-0.09818825163905236,0.00114727858453989,0.0007576011121273041,0.001516888849437237,-0.02293533086776733,0.001459255814552307,-0.004146754741668701,2,0.6554544541493682,0.04779152664712,-0.7534597310654884,-0.01984315982988832,0.9858204126358032,0.09803055971860886,-0.1361908614635468,38.38265991210938,4.45942497253418,-21.1636962890625,2,11217.1933525,2,0,1580907501.434519,1580903939.50652,2435,0.4661743,0,0,2995.009,10,12,1580907483.189245,11214.921527,0,10.55078,97.0806
1580907501.571873,36,0,1580907286.99823,41.20781296037784,29.0754925099451,275.2123,0.1345286,-1,23.46983528137207,200,-9999,11217.36467054167,0.963287353515625,0.0995635986328125,-0.1378326416015625,11217.3596125,-3.108698958653772,1.433557850543229,-0.09813762033076895,0.003684358671307564,0.005264360457658768,0.004692005924880505,-0.0235869288444519,0.0007468461990356445,-0.004615068435668945,2,0.65547198025501,0.04776581837527213,-0.7534464586690778,-0.01983471180964957,0.9858312606811523,0.09798017144203186,-0.1361498236656189,38.38265991210938,4.45942497253418,-21.1636962890625,2,11217.1933525,2,0,1580907501.434519,1580903939.50652,2435,0.4661743,0,0,2995.009,10,12,1580907483.189245,11214.921527,0,10.55078,97.0806
1580907501.581958,37,0,1580907286.99823,41.20781296037784,29.0754925099451,275.2123,0.1345286,-1,23.46983528137207,200,-9999,11217.37471154167,0.963134765625,0.0986480712890625,-0.1377716064453125,11217.36967554167,-3.108710397661668,1.433647328304685,-0.09805876506593156,0.002175944857299328,0.008392509073019028,0.008354119025170803,-0.02481240034103394,0.001435890793800354,-0.004672050476074219,2,0.6555077195821011,0.04773151798846771,-0.7534180436847836,-0.01981526557434626,0.9858510494232178,0.09790169447660446,-0.1360626667737961,38.54547882080078,4.137338638305664,-21.18560791015625,2,11217.1933525,2,0,1580907501.434519,1580903939.50652,2435,0.4661743,0,0,2995.009,10,12,1580907483.189245,11214.921527,0,10.55078,97.0806
1580907501.616682,38,0,1580907286.99823,41.20781296037784,29.0754925099451,275.2123,0.1345286,-1,23.46983528137207,200,-9999,11217.38475154167,0.9658355712890625,0.0975189208984375,-0.138427734375,11217.37971654167,-3.108728022975115,1.433792489202086,-0.09795788123338099,0.003941100090742111,0.01466435194015503,0.0105349775403738,-0.02566593885421753,0.0008041411638259888,-0.00399017333984375,2,0.6555650695742528,0.04768635423434969,-0.7533716028797987,-0.01979224044234364,0.9858805537223816,0.09780129045248032,-0.1359208971261978,38.54547882080078,4.137338638305664,-21.18560791015625,2,11217.1933525,2,0,1580907501.434519,1580903939.50652,2435,0.4661743,0,0,2995.009,10,12,1580907483.189245,11214.921527,0,10.55078,97.0806
1580907501.618637,39,0,1580907286.99823,41.20781296037784,29.0754925099451,275.2123,0.1345286,-1,23.46983528137207,200,-9999,11217.39479154167,0.969024658203125,0.096527099609375,-0.137481689453125,11217.38975654167,-3.108718046966295,1.433946459691739,-0.09785343332413048,-4.10713255405426e-06,0.01648781821131706,0.0114111565053463,-0.02403372526168823,-6.817281246185303e-05,-0.005132794380187988,2,0.6556251580073503,0.04764881364853819,-0.7533225244046824,-0.0197578570760691,0.9859115481376648,0.09769734740257263,-0.1357704848051071,38.37905883789062,4.273738861083984,-21.232421875,2,11217.1933525,2,0,1580907501.434519,1580903939.50652,2435,0.4661743,0,0,2995.009,10,12,1580907483.189245,11214.921527,0,10.55078,97.0806
1580907501.6197,40,0,1580907286.99823,41.20781296037784,29.0754925099451,275.2123,0.1345286,-1,23.46983528137207,200,-9999,11217.40486254167,0.972442626953125,0.096710205078125,-0.1350250244140625,11217.39979654167,-3.108692780697029,1.434072314585513,-0.097769453922653,-0.001701634377241135,0.01318903639912605,0.009438565000891685,-0.02076315879821777,-0.001250848174095154,-0.004660964012145996,2,0.6556738244777299,0.04762426833490409,-0.753282665933155,-0.0197237520415398,0.9859368205070496,0.09761376678943634,-0.1356475353240967,38.37905883789062,4.273738861083984,-21.232421875,2,11217.1933525,2,0,1580907501.434519,1580903939.50652,2435,0.4661743,0,0,2995.009,10,12,1580907483.189245,11214.921527,0,10.55078,97.0806
1580907501.62214,41,0,1580907286.99823,41.20781296037784,29.0754925099451,275.2123,0.1345286,-1,23.46983528137207,200,-9999,11217.41490254167,0.972564697265625,0.096923828125,-0.1346893310546875,11217.40983654167,-3.108667554517027,1.434148836075509,-0.09772530691341647,-0.002616163808852434,0.006560428068041801,0.005386298522353172,-0.01699364185333252,-0.001359373331069946,-0.002309978008270264,2,0.6557030252298084,0.04761518059834632,-0.7532584225296909,-0.01970157112011139,0.9859514832496643,0.09756983071565628,-0.1355726718902588,38.38963317871094,4.448389053344727,-21.0821533203125,2,11217.1933525,2,0,1580907501.434519,1580903939.50652,2435,0.4661743,0,0,2995.009,10,12,1580907483.189245,11214.921527,0,10.55078,97.0806
1580907501.63228,42,0,1580907286.99823,41.20781296037784,29.0754925099451,275.2123,0.1345286,-1,23.46983528137207,200,-9999,11217.42494354167,0.9716339111328125,0.09698486328125,-0.1359710693359375,11217.41987754167,-3.108662988149403,1.434169785328367,-0.09771442461240651,0.0007165605202317238,0.001579396426677704,0.002026442438364029,-0.01567000150680542,-0.0008449703454971313,-0.001430213451385498,2,0.6557110501596947,0.04761237828102628,-0.7532517172953113,-0.01969677758433566,0.9859553575515747,0.09755899757146835,-0.1355521529912949,38.38963317871094,4.448389053344727,-21.0821533203125,2,11217.1933525,2,0,1580907501.434519,1580903939.50652,2435,0.4661743,0,0,2995.009,10,12,1580907483.189245,11214.921527,0,10.55078,97.0806
1580907501.642319,43,0,1580907286.99823,41.20781296037784,29.0754925099451,275.2123,0.1345286,-1,23.46983528137207,200,-9999,11217.43498354167,0.968902587890625,0.0982818603515625,-0.134979248046875,11217.42991754167,-3.108641057165141,1.434142958417033,-0.09771925443815012,-0.00168214924633503,-0.002874474972486496,0.0001220153644680977,-0.01674950122833252,-0.001078709959983826,-0.002609372138977051,2,0.6557003198941017,0.04762164855097869,-0.7532606180952788,-0.01968946940835756,0.9859511852264404,0.09756381064653397,-0.1355785429477692,38.54219055175781,4.522005081176758,-21.27447509765625,2,11217.1933525,2,0,1580907501.434519,1580903939.50652,2435,0.4661743,0,0,2995.009,10,12,1580907483.189245,11214.921527,0,10.55078,97.0806
1580907501.669139,44,0,1580907286.99823,41.20781296037784,29.0754925099451,275.2123,0.1345286,-1,23.46983528137207,200,-9999,11217.44502354167,0.96539306640625,0.0979766845703125,-0.1381683349609375,11217.43998854167,-3.108625484350057,1.434140713126055,-0.09771153569058368,-0.001020186580717564,-3.5824254155159e-05,0.001769271679222584,-0.01836717128753662,2.765655517578125e-05,-0.001630306243896484,2,0.6556992695886469,0.04762387409099234,-0.7532616939014743,-0.01968100832075491,0.9859517216682434,0.09755612909793854,-0.1355808675289154,38.54219055175781,4.522005081176758,-21.27447509765625,2,11217.1933525,2,0,1580907501.434519,1580903939.50652,2435,0.4661743,0,0,2995.009,10,12,1580907483.189245,11214.921527,0,10.55078,97.0806
1580907501.670678,45,0,1580907286.99823,41.20781296037784,29.0754925099451,275.2123,0.1345286,-1,23.46983528137207,200,-9999,11217.45506354167,0.9671630859375,0.0967559814453125,-0.137969970703125,11217.45002854167,-3.108611110713779,1.434164583959657,-0.09770347588186895,-0.002051895018666983,0.001870466396212578,0.0005221134051680565,-0.02293378114700317,0.0003256052732467651,-0.004141151905059814,2,0.6557081004865928,0.04762531980129284,-0.7532540616334932,-0.01967352024281796,0.9859556555747986,0.09754810482263565,-0.1355574280023575,38.60191345214844,4.44403076171875,-21.1422119140625,2,11217.1933525,2,0,1580907501.434519,1580903939.50652,2435,0.4661743,0,0,2995.009,10,12,1580907483.189245,11214.921527,0,10.55078,97.0806
1580907501.672679,46,0,1580907286.99823,41.20781296037784,29.0754925099451,275.2123,0.1345286,-1,23.46983528137207,200,-9999,11217.46510454167,0.967926025390625,0.097869873046875,-0.1377105712890625,11217.46006854167,-3.108599154995619,1.434207090642494,-0.09768076127296559,-0.0007828986272215843,0.004415649920701981,0.003673432394862175,-0.02262121438980103,-0.0007808506488800049,-0.005266010761260986,2,0.6557243220308232,0.04762028009883511,-0.753240664606306,-0.01966255810521339,0.985963761806488,0.09752549976110458,-0.1355158388614655,38.60191345214844,4.44403076171875,-21.1422119140625,2,11217.1933525,2,0,1580907501.434519,1580903939.50652,2435,0.4661743,0,0,2995.009,10,12,1580907483.189245,11214.921527,0,10.55078,97.0806
1580907501.682384,47,0,1580907286.99823,41.20781296037784,29.0754925099451,275.2123,0.1345286,-1,23.46983528137207,200,-9999,11217.47514454167,0.9656829833984375,0.098602294921875,-0.1385040283203125,11217.47010954167,-3.108588440965765,1.434281329480038,-0.09765461516362692,-0.0001059230417013168,0.007368030026555061,0.003965048119425774,-0.02008575201034546,-0.0005869418382644653,-0.004698455333709717,2,0.6557526154762489,0.04761322884514737,-0.7532166543565,-0.01965171167129048,0.9859762191772461,0.09749947488307953,-0.1354429721832275,38.55729675292969,4.725135803222656,-21.37298583984375,2,11217.1933525,2,0,1580907501.434519,1580903939.50652,2435,0.4661743,0,0,2995.009,10,12,1580907483.189245,11214.921527,0,10.55078,97.0806
1580907501.692388,48,0,1580907286.99823,41.20781296037784,29.0754925099451,275.2123,0.1345286,-1,23.46983528137207,200,-9999,11217.48521554167,0.9663848876953125,0.0974578857421875,-0.137908935546875,11217.48014954167,-3.108567388808069,1.434392531289644,-0.09760087935832702,-0.001258539035916328,0.0107803363353014,0.006166949868202209,-0.02270001173019409,0.001206189393997192,-0.005524873733520508,2,0.6557951885743065,0.04759883108614335,-0.7531810921504909,-0.01962877883166206,0.9859964847564697,0.09744599461555481,-0.1353340446949005,38.55729675292969,4.725135803222656,-21.37298583984375,2,11217.1933525,2,0,1580907501.434519,1580903939.50652,2435,0.4661743,0,0,2995.009,10,12,1580907483.189245,11214.921527,0,10.55078,97.0806
1580907501.70287,49,0,1580907286.99823,41.20781296037784,29.0754925099451,275.2123,0.1345286,-1,23.46983528137207,200,-9999,11217.49525554167,0.9680023193359375,0.098175048828125,-0.136871337890625,11217.49018954167,-3.108533992753264,1.434518655270246,-0.097520020480884,-0.00250143650919199,0.01252257637679577,0.008312392979860306,-0.02293854951858521,0.0002035051584243774,-0.005297482013702393,2,0.6558436882702842,0.04757813819788332,-0.7531411072574005,-0.01959264022422089,0.9860213398933411,0.09736552089452744,-0.1352107524871826,38.50115203857422,4.583400726318359,-21.39739990234375,2,11217.1933525,2,0,1580907501.434519,1580903939.50652,2435,0.4661743,0,0,2995.009,10,12,1580907483.189245,11214.921527,0,10.55078,97.0806
1580907501.733832,50,0,1580907286.99823,41.20781296037784,29.0754925099451,275.2123,0.1345286,-1,23.46983528137207,200,-9999,11217.50529554167,0.9699859619140625,0.098052978515625,-0.135284423828125,11217.50022954167,-3.108495440791515,1.434647742568481,-0.09742378754352957,-0.003366744145750999,0.01370368339121342,0.0106115136295557,-0.02108854055404663,0.0002079978585243225,-0.004615366458892822,2,0.6558935274143423,0.04755332975585087,-0.7531002840680534,-0.01954958594647629,0.9860479235649109,0.09726974368095398,-0.1350847184658051,38.50115203857422,4.583400726318359,-21.39739990234375,2,11217.1933525,2,0,1580907501.434519,1580903939.50652,2435,0.4661743,0,0,2995.009,10,12,1580907483.189245,11214.921527,0,10.55078,97.0806
1580907501.735101,51,0,1580907286.99823,41.20781296037784,29.0754925099451,275.2123,0.1345286,-1,23.46983528137207,200,-9999,11217.51533654167,0.971099853515625,0.097625732421875,-0.1357574462890625,11217.51027054167,-3.108474423567535,1.434742953194506,-0.09734260184494573,-0.0006183618679642677,0.008940087631344795,0.008163802325725555,-0.01946121454238892,0.000548437237739563,-0.002999067306518555,2,0.6559306679851056,0.0475287682499478,-0.7530705457318305,-0.0195172412174832,0.9860688447952271,0.09718894213438034,-0.1349919438362122,38.54981994628906,4.810407638549805,-21.3887939453125,2,11217.1933525,2,0,1580907501.434519,1580903939.50652,2435,0.4661743,0,0,2995.009,10,12,1580907483.189245,11214.921527,0,10.55078,97.0806
1580907501.736149,52,0,1580907286.99823,41.20781296037784,29.0754925099451,275.2123,0.1345286,-1,23.46983528137207,200,-9999,11217.52537654167,0.9727783203125,0.0963592529296875,-0.1343841552734375,11217.52034154167,-3.108450984404798,1.434800508415624,-0.09727558721361977,-0.001283654943108559,0.006062084808945656,0.006609385833144188,-0.01787328720092773,0.0003711879253387451,-0.003039777278900146,2,0.6559532724972631,0.04751069660568399,-0.7530527430266768,-0.0194877651312956,0.9860830903053284,0.09712224453687668,-0.1349360793828964,38.54981994628906,4.810407638549805,-21.3887939453125,2,11217.1933525,2,0,1580907501.434519,1580903939.50652,2435,0.4661743,0,0,2995.009,10,12,1580907483.189245,11214.921527,0,10.55078,97.0806
1580907501.742742,53,0,1580907286.99823,41.20781296037784,29.0754925099451,275.2123,0.1345286,-1,23.46983528137207,200,-9999,11217.53541654167,0.9703369140625,0.0952301025390625,-0.13580322265625,11217.53038154167,-3.108432824885262,1.434842485023967,-0.09724650973614965,-0.001187514513731003,0.00440213643014431,0.002365105785429478,-0.01667636632919312,-0.0006679147481918335,-0.002714812755584717,2,0.6559692959081146,0.04750531016606219,-0.7530394697008483,-0.01947237498921645,0.9860914349555969,0.09709330648183823,-0.1348950564861298,38.47527313232422,4.769651412963867,-21.40673828125,2,11217.1933525,2,0,1580907501.434519,1580903939.50652,2435,0.4661743,0,0,2995.009,10,12,1580907483.189245,11214.921527,0,10.55078,97.0806
1580907501.752638,54,0,1580907286.99823,41.20781296037784,29.0754925099451,275.2123,0.1345286,-1,23.46983528137207,200,-9999,11217.54545754167,0.9681243896484375,0.0964202880859375,-0.1380462646484375,11217.54042154167,-3.108416004061234,1.434906044325143,-0.09724459199427608,-0.001859899610280991,0.006121067330241203,0.0003215242177248001,-0.0172039270401001,-0.001886695623397827,-0.002380788326263428,2,0.6559928658870104,0.04750948814731986,-0.7530188743918066,-0.01946691606353869,0.9861003160476685,0.09709139913320541,-0.1348324120044708,38.47527313232422,4.769651412963867,-21.40673828125,2,11217.1933525,2,0,1580907501.434519,1580903939.50652,2435,0.4661743,0,0,2995.009,10,12,1580907483.189245,11214.921527,0,10.55078,97.0806
1580907501.762545,55,0,1580907286.99823,41.20781296037784,29.0754925099451,275.2123,0.1345286,-1,23.46983528137207,200,-9999,11217.55549754167,0.9691162109375,0.0977783203125,-0.13519287109375,11217.55046154167,-3.108395976321007,1.434972237753526,-0.09727253646923902,-0.002858851570636034,0.007672358304262161,-0.002943777479231358,-0.02033829689025879,-0.00142630934715271,-0.005544185638427734,2,0.656016691769682,0.04752591923406914,-0.7529969890048558,-0.01947013182697246,0.9861065149307251,0.09711921215057373,-0.1347667723894119,38.35919189453125,4.804733276367188,-21.5501708984375,2,11217.1933525,2,0,1580907501.434519,1580903939.50652,2435,0.4661743,0,0,2995.009,10,12,1580907483.189245,11214.921527,0,10.55078,97.0806
1580907501.79337,56,0,1580907286.99823,41.20781296037784,29.0754925099451,275.2123,0.1345286,-1,23.46983528137207,200,-9999,11217.56553754167,0.9682769775390625,0.0971527099609375,-0.135223388671875,11217.56050254167,-3.108392735035996,1.43498604996038,-0.09731555953041802,0.0008909814059734344,-0.0001723840832710266,-0.004992850124835968,-0.0201529860496521,8.712708950042725e-05,-0.003849625587463379,2,0.6560208628343858,0.04754302240743827,-0.7529918707290629,-0.01948338336354948,0.9861041307449341,0.09716203063726425,-0.1347525715827942,38.35919189453125,4.804733276367188,-21.5501708984375,2,11217.1933525,2,0,1580907501.434519,1580903939.50652,2435,0.4661743,0,0,2995.009,10,12,1580907483.189245,11214.921527,0,10.55078,97.0806
1580907501.794927,57,0,1580907286.99823,41.20781296037784,29.0754925099451,275.2123,0.1345286,-1,23.46983528137207,200,-9999,11217.57560854167,0.9647216796875,0.0954742431640625,-0.1384429931640625,11217.57054254167,-3.108373166303375,1.435058160426347,-0.09735936980989941,-0.001935697160661221,0.008807528764009476,-0.006279156543314457,-0.01977682113647461,0.0004401504993438721,-0.002136111259460449,2,0.6560465727655979,0.0475652093925741,-0.7529678336757938,-0.01949212853873132,0.9861096143722534,0.09720563143491745,-0.1346808969974518,38.44051361083984,4.53129768371582,-21.52264404296875,2,11217.1933525,2,0,1580907501.434519,1580903939.50652,2435,0.4661743,0,0,2995.009,10,12,1580907483.189245,11214.921527,0,10.55078,97.0806
1580907501.796024,58,0,1580907286.99823,41.20781296037784,29.0754925099451,275.2123,0.1345286,-1,23.46983528137207,200,-9999,11217.58564854167,0.9645843505859375,0.09796142578125,-0.1367950439453125,11217.58058254167,-3.108352983149077,1.435158929272951,-0.09737640633400678,-0.001359217800199986,0.008892850950360298,-0.002575938124209642,-0.02320683002471924,-0.002521820366382599,-0.00631028413772583,2,0.6560836593708412,0.04757725131353052,-0.752934620511183,-0.01949253706939991,0.9861214160919189,0.09722258895635605,-0.1345812678337097,38.44051361083984,4.53129768371582,-21.52264404296875,2,11217.1933525,2,0,1580907501.434519,1580903939.50652,2435,0.4661743,0,0,2995.009,10,12,1580907483.189245,11214.921527,0,10.55078,97.0806
1580907501.802883,59,0,1580907286.99823,41.20781296037784,29.0754925099451,275.2123,0.1345286,-1,23.46983528137207,200,-9999,11217.59568854167,0.9666900634765625,0.09869384765625,-0.1366424560546875,11217.59062354167,-3.108335298408492,1.435285693820691,-0.0973638427833612,-0.0006601372733712196,0.01255309954285622,0.00172906182706356,-0.02406430244445801,5.422532558441162e-05,-0.004222750663757324,2,0.6561312306039569,0.04757709621348367,-0.7528935096998746,-0.01948475418872234,0.9861398339271545,0.09721008688211441,-0.13445645570755,38.45054626464844,4.683330535888672,-21.617919921875,2,11217.1933525,2,0,1580907501.434519,1580903939.50652,2435,0.4661743,0,0,2995.009,10,12,1580907483.189245,11214.921527,0,10.55078,97.0806
1580907501.812978,60,0,1580907286.99823,41.20781296037784,29.0754925099451,275.2123,0.1345286,-1,23.46983528137207,200,-9999,11217.60572954167,0.970703125,0.0985260009765625,-0.1322021484375,11217.60069354167,-3.108319903287334,1.435337933488154,-0.09731850816659163,-0.0006842780858278275,0.004092933610081673,0.00633890088647604,-0.02380102872848511,0.0008624047040939331,-0.005860686302185059,2,0.6561515386062345,0.04756459643322514,-0.7528771020561097,-0.01946530094869148,0.9861512184143066,0.09716496616601944,-0.1344055384397507,38.45054626464844,4.683330535888672,-21.617919921875,2,11217.1933525,2,0,1580907501.434519,1580903939.50652,2435,0.4661743,0,0,2995.009,10,12,1580907483.189245,11214.921527,0,10.55078,97.0806
1580907501.822955,61,0,1580907286.99823,41.20781296037784,29.0754925099451,275.2123,0.1345286,-1,23.46983528137207,200,-9999,11217.61576954167,0.9676666259765625,0.0975799560546875,-0.1340789794921875,11217.61073454167,-3.108318398228073,1.435352189316433,-0.09725802282213181,0.001061690039932728,0.002609021961688995,0.00642678514122963,-0.01837664842605591,0.00160941481590271,-0.0005943775177001953,2,0.6561582143382436,0.04754221482851845,-0.7528732235352645,-0.01944519205541782,0.9861589670181274,0.0971047654747963,-0.1343922764062881,38.55964660644531,4.531246185302734,-21.597412109375,2,11217.1933525,2,0,1580907501.434519,1580903939.50652,2435,0.4661743,0,0,2995.009,10,12,1580907483.189245,11214.921527,0,10.55078,97.0806
1580907501.851773,62,0,1580907286.99823,41.20781296037784,29.0754925099451,275.2123,0.1345286,-1,23.46983528137207,200,-9999,11217.62580954167,0.9699249267578125,0.0975189208984375,-0.1339874267578125,11217.62077454167,-3.108310292994619,1.435335621673939,-0.09718956082060369,-0.0008386680856347084,-0.002283785492181778,0.006304997019469738,-0.02073091268539429,0.0003807544708251953,-0.002087771892547607,2,0.6561533067946167,0.04751929972862712,-0.7528796246976152,-0.01941924395792326,0.986163318157196,0.09703662991523743,-0.1344095021486282,38.55964660644531,4.531246185302734,-21.597412109375,2,11217.1933525,2,0,1580907501.434519,1580903939.50652,2435,0.4661743,0,0,2995.009,10,12,1580907483.189245,11214.921527,0,10.55078,97.0806
1580907501.853387,63,0,1580907286.99823,41.20781296037784,29.0754925099451,275.2123,0.1345286,-1,23.46983528137207,200,-9999,11217.63585054167,0.9701080322265625,0.0965118408203125,-0.1352996826171875,11217.63081454167,-3.108295049088892,1.435316998589271,-0.09713090027922659,-0.002084228675812483,-0.001958081498742104,0.006234955973923206,-0.01942187547683716,0.0004697889089584351,-0.001504242420196533,2,0.6561472462738026,0.04750242908615748,-0.7528865064069648,-0.01939379298885609,0.9861662983894348,0.09697824716567993,-0.1344286203384399,38.52325439453125,4.672784805297852,-21.64227294921875,2,11217.1933525,2,0,1580907501.434519,1580903939.50652,2435,0.4661743,0,0,2995.009,10,12,1580907483.189245,11214.921527,0,10.55078,97.0806
1580907501.854514,64,0,1580907286.99823,41.20781296037784,29.0754925099451,275.2123,0.1345286,-1,23.46983528137207,200,-9999,11217.64589054167,0.9683380126953125,0.0952911376953125,-0.137237548828125,11217.64085454167,-3.10828253266263,1.435342148048721,-0.09711174637503933,-0.0006983773782849312,0.001862224191427231,0.002537236548960209,-0.01874029636383057,-0.0006097033619880676,-0.003252863883972168,2,0.6561568370108058,0.04749909232727925,-0.7528786993001172,-0.01938337659265557,0.9861716032028198,0.0969591811299324,-0.1344040781259537,38.52325439453125,4.672784805297852,-21.64227294921875,2,11217.1933525,2,0,1580907501.434519,1580903939.50652,2435,0.4661743,0,0,2995.009,10,12,1580907483.189245,11214.921527,0,10.55078,97.0806
1580907501.863103,65,0,1580907286.99823,41.20781296037784,29.0754925099451,275.2123,0.1345286,-1,23.46983528137207,200,-9999,11217.65596154167,0.9684600830078125,0.095123291015625,-0.1378173828125,11217.65089554167,-3.108250096279289,1.435454094988922,-0.09711587786641972,-0.003862745128571987,0.01234975270926952,0.001405392773449421,-0.02009773254394531,-0.001330986618995667,-0.004080772399902344,2,0.6561981194209067,0.04751020186811589,-0.7528421626264808,-0.01937518935158726,0.9861862063407898,0.09696329385042191,-0.1342936158180237,38.51495361328125,4.808586120605469,-21.48883056640625,2,11217.1933525,2,0,1580907501.434519,1580903939.50652,2435,0.4661743,0,0,2995.009,10,12,1580907483.189245,11214.921527,0,10.55078,97.0806
1580907501.873169,66,0,1580907286.99823,41.20781296037784,29.0754925099451,275.2123,0.1345286,-1,23.46983528137207,200,-9999,11217.66600154167,0.9687347412109375,0.096099853515625,-0.135498046875,11217.66093554167,-3.108215859893718,1.43558662204266,-0.09715370738127349,-0.003832315094769001,0.01206968352198601,-0.003798242658376694,-0.02107328176498413,-0.00219271332025528,-0.007157266139984131,2,0.6562463445637919,0.04753437131869002,-0.7527985989352893,-0.01937788074267884,0.9862004518508911,0.09700094163417816,-0.1341624408960342,38.51495361328125,4.808586120605469,-21.48883056640625,2,11217.1933525,2,0,1580907501.434519,1580903939.50652,2435,0.4661743,0,0,2995.009,10,12,1580907483.189245,11214.921527,0,10.55078,97.0806
1580907501.883268,67,0,1580907286.99823,41.20781296037784,29.0754925099451,275.2123,0.1345286,-1,23.46983528137207,200,-9999,11217.67604154167,0.96539306640625,0.0967254638671875,-0.1374359130859375,11217.67097554167,-3.108169862483619,1.435782788631744,-0.09717916175811447,-0.004792917519807816,0.02132363617420197,-0.001817916054278612,-0.01917445659637451,-0.001287311315536499,-0.003414750099182129,2,0.6563185167064768,0.04755713186030155,-0.75273437627365,-0.01937359738577357,0.9862242937088013,0.0970262810587883,-0.1339686512947083,38.3662109375,4.772235870361328,-21.7498779296875,2,11217.1933525,2,0,1580907501.434519,1580903939.50652,2435,0.4661743,0,0,2995.009,10,12,1580907483.189245,11214.921527,0,10.55078,97.0806
1580907501.912629,68,0,1580907286.99823,41.20781296037784,29.0754925099451,275.2123,0.1345286,-1,23.46983528137207,200,-9999,11217.68608254167,0.969512939453125,0.0986785888671875,-0.131927490234375,11217.68101654167,-3.108128892535877,1.435911449558183,-0.09718449522101726,-0.003640068229287863,0.01043353229761124,-0.0001845890656113625,-0.02408921718597412,-0.001094281673431396,-0.006731092929840088,2,0.6563658484958517,0.04757133504812557,-0.7526924433231429,-0.01936299467130606,0.9862409830093384,0.09703158587217331,-0.1338416785001755,38.3662109375,4.772235870361328,-21.7498779296875,2,11217.1933525,2,0,1580907501.434519,1580903939.50652,2435,0.4661743,0,0,2995.009,10,12,1580907483.189245,11214.921527,0,10.55078,97.0806
1580907501.913922,69,0,1580907286.99823,41.20781296037784,29.0754925099451,275.2123,0.1345286,-1,23.46983528137207,200,-9999,11217.69612254167,0.9665069580078125,0.0970001220703125,-0.1345367431640625,11217.69108654167,-3.108111250077252,1.436060029857938,-0.0971712802318892,0.000140288844704628,0.01728345081210136,0.001735549420118332,-0.01918178796768188,0.001375585794448853,-0.001003146171569824,2,0.6564216409897142,0.04757072051098053,-0.7526439880697466,-0.01935554668253295,0.9862620830535889,0.09701843559741974,-0.1336953043937683,38.50909423828125,4.816017150878906,-21.8714599609375,2,11217.1933525,2,0,1580907501.434519,1580903939.50652,2435,0.4661743,0,0,2995.009,10,12,1580907483.189245,11214.921527,0,10.55078,97.0806
1580907501.915048,70,0,1580907286.99823,41.20781296037784,29.0754925099451,275.2123,0.1345286,-1,23.46983528137207,200,-9999,11217.70616254167,0.971405029296875,0.0965576171875,-0.1337432861328125,11217.70112754167,-3.108079442232996,1.436154656455249,-0.0971538489998259,-0.004675291478633881,0.008140938356518745,0.00263550877571106,-0.02294975519180298,1.968443393707275e-05,-0.003171801567077637,2,0.6564568848028621,0.04757369427221566,-0.7526134160326257,-0.01934009946810762,0.9862763285636902,0.0970010831952095,-0.1336022019386292,38.42107391357422,4.835451126098633,-21.5958251953125,2,11217.1933525,2,0,1580907501.434519,1580903939.50652,2435,0.4661743,0,0,2995.009,10,12,1580907483.189245,11214.921527,0,10.55078,97.0806
1580907501.923387,71,0,1580907286.99823,41.20781296037784,29.0754925099451,275.2123,0.1345286,-1,23.46983528137207,200,-9999,11217.71620254167,0.9705047607421875,0.0965728759765625,-0.133880615234375,11217.71116754167,-3.108061083880314,1.436235926575889,-0.09715230301238659,-0.002532778307795525,0.007297249510884285,0.001175031065940857,-0.0182611346244812,-0.0005128234624862671,-0.002565562725067139,2,0.6564870609238374,0.04757835406214261,-0.7525869932229741,-0.01933461143251619,0.9862874150276184,0.09699954837560654,-0.1335220783948898,38.42107391357422,4.835451126098633,-21.5958251953125,2,11217.1933525,2,0,1580907501.434519,1580903939.50652,2435,0.4661743,0,0,2995.009,10,12,1580907483.189245,11214.921527,0,10.55078,97.0806
1580907501.933469,72,0,1580907286.99823,41.20781296037784,29.0754925099451,275.2123,0.1345286,-1,23.46983528137207,200,-9999,11217.72624354167,0.96893310546875,0.0973663330078125,-0.133941650390625,11217.72120754167,-3.108050670187319,1.43631289276126,-0.09715075324116081,-0.0005070054903626442,0.008437983691692352,0.000425177626311779,-0.01834791898727417,-0.00067911297082901,-0.002931416034698486,2,0.6565158070779651,0.04758044638299987,-0.7525618811663306,-0.01933201158961753,0.9862979054450989,0.09699800610542297,-0.1334461867809296,38.406494140625,4.791904449462891,-21.6497802734375,2,11217.1933525,2,0,1580907501.434519,1580903939.50652,2435,0.4661743,0,0,2995.009,10,12,1580907483.189245,11214.921527,0,10.55078,97.0806
1580907501.943572,73,0,1580907286.99823,41.20781296037784,29.0754925099451,275.2123,0.1345286,-1,23.46983528137207,200,-9999,11217.73631354167,0.9696807861328125,0.0972747802734375,-0.1328582763671875,11217.73124854167,-3.10802952173169,1.436350701119071,-0.09712042287620136,-0.002242587972432375,0.003025108948349953,0.0039536003023386,-0.01980531215667725,-0.0002673566341400146,-0.003319203853607178,2,0.65653020057903,0.04757562789285451,-0.7525501489824327,-0.01931497113692034,0.9863059520721436,0.09696781635284424,-0.1334093064069748,38.406494140625,4.791904449462891,-21.6497802734375,2,11217.1933525,2,0,1580907501.434519,1580903939.50652,2435,0.4661743,0,0,2995.009,10,12,1580907483.189245,11214.921527,0,10.55078,97.0806
1580907501.974219,74,0,1580907286.99823,41.20781296037784,29.0754925099451,275.2123,0.1345286,-1,23.46983528137207,200,-9999,11217.74635454167,0.968780517578125,0.0963134765625,-0.1335601806640625,11217.74128854167,-3.108012574924731,1.436364126753327,-0.09709584980948685,-0.001853003166615963,0.0009996071457862854,0.002207109704613686,-0.01961123943328857,0.000413261353969574,-0.001730263233184814,2,0.6565354045550711,0.04757182693042843,-0.7525460947683172,-0.01930084260509581,0.9863099455833435,0.09694335609674454,-0.1333963721990585,38.38025665283203,4.906850814819336,-21.86376953125,2,11217.1933525,2,0,1580907501.434519,1580903939.50652,2435,0.4661743,0,0,2995.009,10,12,1580907483.189245,11214.921527,0,10.55078,97.0806
1580907501.975551,75,0,1580907286.99823,41.20781296037784,29.0754925099451,275.2123,0.1345286,-1,23.46983528137207,200,-9999,11217.75639454167,0.9669036865234375,0.095703125,-0.135955810546875,11217.75132854167,-3.107996557206831,1.436402513178306,-0.09705708226621415,-0.0007970603182911873,0.004237744957208633,0.004544832743704319,-0.01969647407531738,-0.0007382333278656006,-0.00236278772354126,2,0.6565503270368803,0.04756214920387161,-0.7525342021001047,-0.01928297352734361,0.9863188862800598,0.09690476953983307,-0.1333590149879456,38.38025665283203,4.906850814819336,-21.86376953125,2,11217.1933525,2,0,1580907501.434519,1580903939.50652,2435,0.4661743,0,0,2995.009,10,12,1580907483.189245,11214.921527,0,10.55078,97.0806
1580907501.976834,76,0,1580907286.99823,41.20781296037784,29.0754925099451,275.2123,0.1345286,-1,23.46983528137207,200,-9999,11217.76643454167,0.96917724609375,0.0961761474609375,-0.1347503662109375,11217.76136854167,-3.107956471409593,1.436461125427873,-0.09701344639114282,-0.002764367032796144,0.005336755886673927,0.004707890562713146,-0.02210414409637451,-0.001228727400302887,-0.004312336444854736,2,0.656572402523757,0.04755834820941036,-0.7525158534097814,-0.01925493706069556,0.9863308072090149,0.0968613401055336,-0.1333017647266388,38.29295349121094,5.105148315429688,-21.819580078125,2,11217.1933525,2,0,1580907501.434519,1580903939.50652,2435,0.4661743,0,0,2995.009,10,12,1580907483.189245,11214.921527,0,10.55078,97.0806
1580907501.983708,77,0,1580907286.99823,41.20781296037784,29.0754925099451,275.2123,0.1345286,-1,23.46983528137207,200,-9999,11217.77647554167,0.96832275390625,0.0962066650390625,-0.1333770751953125,11217.77143954167,-3.10789484477232,1.436505505748537,-0.09696781490216415,-0.005119134206324816,0.003767887130379677,0.005190988071262836,-0.01988667249679565,-0.001244217157363892,-0.00469130277633667,2,0.6565886513759714,0.04756100831666335,-0.7525024652240713,-0.01921779599756979,0.986341118812561,0.09681592881679535,-0.133258581161499,38.29295349121094,5.105148315429688,-21.819580078125,2,11217.1933525,2,0,1580907501.434519,1580903939.50652,2435,0.4661743,0,0,2995.009,10,12,1580907483.189245,11214.921527,0,10.55078,97.0806
1580907501.993785,78,0,1580907286.99823,41.20781296037784,29.0754925099451,275.2123,0.1345286,-1,23.46983528137207,200,-9999,11217.78651554167,0.9701080322265625,0.094818115234375,-0.1343994140625,11217.78147954167,-3.107838525238687,1.436538947578079,-0.09694991115415938,-0.004823277704417706,0.003115072846412659,0.001956582069396973,-0.02089995145797729,-0.0006312578916549683,-0.002618372440338135,2,0.6566002933232544,0.04757245010910933,-0.7524922544223022,-0.01919151244959323,0.9863473176956177,0.09679810702800751,-0.1332258284091949,38.27370452880859,5.154504776000977,-21.8375244140625,2,11217.1933525,2,0,1580907501.434519,1580903939.50652,2435,0.4661743,0,0,2995.009,10,12,1580907483.189245,11214.921527,0,10.55078,97.0806
1580907502.004477,79,0,1580907286.99823,41.20781296037784,29.0754925099451,275.2123,0.1345286,-1,23.46983528137207,200,-9999,11217.79655554167,0.9683837890625,0.095458984375,-0.134857177734375,11217.79152054167,-3.107779517644879,1.436570106992438,-0.09695150320306038,-0.00591943459585309,0.002195216715335846,0.0001722639426589012,-0.01934754848480225,-0.001670464873313904,-0.003564894199371338,2,0.6566105774239472,0.04759212178272118,-0.752482571707028,-0.01917057607925286,0.9863513112068176,0.09679969400167465,-0.1331950724124908,38.27370452880859,5.154504776000977,-21.8375244140625,2,11217.1933525,2,0,1580907501.434519,1580903939.50652,2435,0.4661743,0,0,2995.009,10,12,1580907483.189245,11214.921527,0,10.55078,97.0806
1580907502.035564,80,0,1580907286.99823,41.20781296037784,29.0754925099451,275.2123,0.1345286,-1,23.46983528137207,200,-9999,11217.80659554167,0.969207763671875,0.0977935791015625,-0.1338043212890625,11217.80156054167,-3.107725660604359,1.436597366103072,-0.09695256771862443,-0.00542124267667532,0.002035908401012421,-3.164727240800858e-05,-0.02031242847442627,-0.002297133207321167,-0.003774881362915039,2,0.6566195247944091,0.04760994277028877,-0.7524741719462941,-0.0191513079369179,0.9863548874855042,0.09680075198411942,-0.1331681907176971,38.17281341552734,4.920454025268555,-21.7535400390625,2,11217.1933525,2,0,1580907501.434519,1580903939.50652,2435,0.4661743,0,0,2995.009,10,12,1580907483.189245,11214.921527,0,10.55078,97.0806
1580907502.036904,81,0,1580907286.99823,41.20781296037784,29.0754925099451,275.2123,0.1345286,-1,23.46983528137207,200,-9999,11217.81666654167,0.970458984375,0.09771728515625,-0.1320037841796875,11217.81160054167,-3.107686967623003,1.436601159810254,-0.0969627920162973,-0.003316812682896852,5.744583904743195e-05,-0.0003837170079350471,-0.02019006013870239,0.0003476738929748535,-0.003580570220947266,2,0.6566198053328557,0.04762645051189399,-0.7524731265298078,-0.01914020700178658,0.9863543510437012,0.09681092947721481,-0.1331643015146255,38.17281341552734,4.920454025268555,-21.7535400390625,2,11217.1933525,2,0,1580907501.434519,1580903939.50652,2435,0.4661743,0,0,2995.009,10,12,1580907483.189245,11214.921527,0,10.55078,97.0806
1580907502.038063,82,0,1580907286.99823,41.20781296037784,29.0754925099451,275.2123,0.1345286,-1,23.46983528137207,200,-9999,11217.82670754167,0.970062255859375,0.0961151123046875,-0.133148193359375,11217.82164154167,-3.107650866607028,1.43656314277902,-0.09699090514638012,-0.002753582783043385,-0.003986755385994911,-0.002276414539664984,-0.01885479688644409,0.0006553158164024353,-0.001544475555419922,2,0.6566040153879927,0.04764922834382618,-0.7524855803217619,-0.01913496734772767,0.9863466024398804,0.09683890640735626,-0.1332014352083206,37.99793243408203,5.007925033569336,-21.64019775390625,2,11217.1933525,2,0,1580907501.434519,1580903939.50652,2435,0.4661743,0,0,2995.009,10,12,1580907483.189245,11214.921527,0,10.55078,97.0806
1580907502.044142,83,0,1580907286.99823,41.20781296037784,29.0754925099451,275.2123,0.1345286,-1,23.46983528137207,200,-9999,11217.83674754167,0.969573974609375,0.0941619873046875,-0.134765625,11217.83168154167,-3.107601665344034,1.436521545676297,-0.09703703586416972,-0.005314478650689125,-0.004669057205319405,-0.003911595791578293,-0.0188143253326416,-0.0003215298056602478,-0.001717627048492432,2,0.6565861588692037,0.04768311091654573,-0.7524991646530856,-0.01913063386479677,0.9863366484642029,0.0968848243355751,-0.1332418769598007,37.99793243408203,5.007925033569336,-21.64019775390625,2,11217.1933525,2,0,1580907501.434519,1580903939.50652,2435,0.4661743,0,0,2995.009,10,12,1580907483.189245,11214.921527,0,10.55078,97.0806
1580907502.053841,84,0,1580907286.99823,41.20781296037784,29.0754925099451,275.2123,0.1345286,-1,23.46983528137207,200,-9999,11217.84678754167,0.9701385498046875,0.0953826904296875,-0.1337890625,11217.84172154167,-3.107571393484882,1.436521382549073,-0.09711225842074965,-0.003327982500195503,0.00107392854988575,-0.007498086895793676,-0.01918858289718628,-0.002883777022361755,-0.003656268119812012,2,0.6565836896212358,0.04772131286045257,-0.7524986205173038,-0.0191439763786566,0.9863294959068298,0.09695968776941299,-0.1332410722970963,38.22830963134766,5.1304931640625,-21.5814208984375,2,11217.1933525,2,0,1580907501.434519,1580903939.50652,2435,0.4661743,0,0,2995.009,10,12,1580907483.189245,11214.921527,0,10.55078,97.0806
1580907502.064,85,0,1580907286.99823,41.20781296037784,29.0754925099451,275.2123,0.1345286,-1,23.46983528137207,200,-9999,11217.85682754167,0.972015380859375,0.0970306396484375,-0.13092041015625,11217.85179254167,-3.107535751344434,1.436452367654597,-0.09717865762938976,-0.004645980894565582,-0.008005853742361069,-0.005718296393752098,-0.0196002721786499,-0.00230918824672699,-0.003527939319610596,2,0.6565553911016666,0.04775862038499182,-0.7525206978107891,-0.01915076419211378,0.9863138198852539,0.09702577441930771,-0.1333082616329193,38.22830963134766,5.1304931640625,-21.5814208984375,2,11217.1933525,2,0,1580907501.434519,1580903939.50652,2435,0.4661743,0,0,2995.009,10,12,1580907483.189245,11214.921527,0,10.55078,97.0806
1580907502.091778,86,0,1580907286.99823,41.20781296037784,29.0754925099451,275.2123,0.1345286,-1,23.46983528137207,200,-9999,11217.86686854167,0.9677734375,0.0986785888671875,-0.1324462890625,11217.86183254167,-3.107505079005203,1.436316516332472,-0.09722178427972293,-0.003022074699401855,-0.0143937524408102,-0.003847603686153889,-0.01706027984619141,-0.0008110851049423218,-0.0006017684936523438,2,0.6565025749882344,0.04778619385044175,-0.7525650549484126,-0.0191501606120725,0.9862915873527527,0.09706869721412659,-0.1334417015314102,38.17950439453125,4.879814147949219,-21.7996826171875,2,11217.1933525,2,0,1580907501.434519,1580903939.50652,2435,0.4661743,0,0,2995.009,10,12,1580907483.189245,11214.921527,0,10.55078,97.0806
1580907502.093254,87,0,1580907286.99823,41.20781296037784,29.0754925099451,275.2123,0.1345286,-1,23.46983528137207,200,-9999,11217.87690854167,0.9671478271484375,0.0990447998046875,-0.1337127685546875,11217.87187354167,-3.10748263057154,1.436180113392726,-0.09725085089864167,-0.002345898188650608,-0.01342835742980242,-0.003514708485454321,-0.01977068185806274,0.0008688569068908691,-0.0007116198539733887,2,0.6564500655287454,0.04780578902083133,-0.7526095860072437,-0.01914801991576644,0.9862704277038574,0.09709762781858444,-0.1335758417844772,38.17950439453125,4.879814147949219,-21.7996826171875,2,11217.1933525,2,0,1580907501.434519,1580903939.50652,2435,0.4661743,0,0,2995.009,10,12,1580907483.189245,11214.921527,0,10.55078,97.0806
1580907502.094711,88,0,1580907286.99823,41.20781296037784,29.0754925099451,275.2123,0.1345286,-1,23.46983528137207,200,-9999,11217.88694854167,0.966064453125,0.0968475341796875,-0.13525390625,11217.88191354167,-3.107470330605361,1.43606765431775,-0.09725732936194149,-0.0007761456072330475,-0.01045608147978783,-0.0003016926348209381,-0.02211993932723999,0.00203733891248703,-0.002171933650970459,2,0.6564073019486476,0.04781333778513105,-0.7526466022656539,-0.01914282743766046,0.986254870891571,0.09710407257080078,-0.1336866766214371,38.17897796630859,5.074108123779297,-21.76953125,2,11217.1933525,2,0,1580907501.434519,1580903939.50652,2435,0.4661743,0,0,2995.009,10,12,1580907483.189245,11214.921527,0,10.55078,97.0806
1580907502.104204,89,0,1580907286.99823,41.20781296037784,29.0754925099451,275.2123,0.1345286,-1,23.46983528137207,200,-9999,11217.89701954167,0.9664306640625,0.0971221923828125,-0.1370086669921875,11217.89195354167,-3.107446423906414,1.435997930025187,-0.09725812761783501,-0.001791076734662056,-0.006252281367778778,-2.285931259393692e-05,-0.02269035577774048,0.0001291781663894653,-0.002896547317504883,2,0.6563804761285008,0.04782215052014856,-0.7526696584979143,-0.01913242994697645,0.9862454533576965,0.09710486978292465,-0.1337554305791855,38.17897796630859,5.074108123779297,-21.76953125,2,11217.1933525,2,0,1580907501.434519,1580903939.50652,2435,0.4661743,0,0,2995.009,10,12,1580907483.189245,11214.921527,0,10.55078,97.0806
1580907502.114784,90,0,1580907286.99823,41.20781296037784,29.0754925099451,275.2123,0.1345286,-1,23.46983528137207,200,-9999,11217.90705954167,0.9673614501953125,0.0979156494140625,-0.135467529296875,11217.90199354167,-3.107405861450055,1.435956363250206,-0.09723767994776493,-0.003976341802626848,-0.005900377407670021,0.002826294861733913,-0.0227934718132019,-0.0008879750967025757,-0.00576937198638916,2,0.6563643150959426,0.0478281769760673,-0.7526840433498783,-0.01910943926859716,0.9862419366836548,0.09708452224731445,-0.1337967067956924,38.22200012207031,4.835317611694336,-21.6202392578125,2,11217.1933525,2,0,1580907501.434519,1580903939.50652,2435,0.4661743,0,0,2995.009,10,12,1580907483.189245,11214.921527,0,10.55078,97.0806
1580907502.124268,91,0,1580907286.99823,41.20781296037784,29.0754925099451,275.2123,0.1345286,-1,23.46983528137207,200,-9999,11217.91710054167,0.9691162109375,0.0960235595703125,-0.1347808837890625,11217.91203454167,-3.107379396744161,1.435954143441002,-0.09722416579767086,-0.002071648836135864,0.001171113923192024,0.001550374552607536,-0.02117711305618286,0.0006818845868110657,-0.004134476184844971,2,0.6563631549578833,0.04783180391745456,-0.752685113748497,-0.01909498975181206,0.9862428307533264,0.09707106649875641,-0.1337990611791611,38.22200012207031,4.835317611694336,-21.6202392578125,2,11217.1933525,2,0,1580907501.434519,1580903939.50652,2435,0.4661743,0,0,2995.009,10,12,1580907483.189245,11214.921527,0,10.55078,97.0806
1580907502.155453,92,0,1580907286.99823,41.20781296037784,29.0754925099451,275.2123,0.1345286,-1,23.46983528137207,200,-9999,11217.92714054167,0.97479248046875,0.096160888671875,-0.1325225830078125,11217.92207454167,-3.10735057161492,1.435899636304965,-0.09725552441955858,-0.003317173570394516,-0.006446157582104206,-0.003395659383386374,-0.02139550447463989,-0.001180440187454224,-0.004019618034362793,2,0.6563412434525415,0.04785356952834982,-0.7527029620288629,-0.01909314145339619,0.9862326383590698,0.09710227698087692,-0.1338524222373962,38.38276672363281,4.805339813232422,-21.613525390625,2,11217.1933525,2,0,1580907501.434519,1580903939.50652,2435,0.4661743,0,0,2995.009,10,12,1580907483.189245,11214.921527,0,10.55078,97.0806
1580907502.156984,93,0,1580907286.99823,41.20781296037784,29.0754925099451,275.2123,0.1345286,-1,23.46983528137207,200,-9999,11217.93718054167,0.972320556640625,0.0959014892578125,-0.135040283203125,11217.93214554167,-3.107321959434847,1.435825152730731,-0.09731727862086401,-0.001877468079328537,-0.007568680681288242,-0.006061749532818794,-0.01503181457519531,-0.001165792346000671,-0.0009867548942565918,2,0.6563111482886355,0.04788687668937538,-0.7527267786117218,-0.01910090424423963,0.9862166047096252,0.09716374427080154,-0.1339250504970551,38.38276672363281,4.805339813232422,-21.613525390625,2,11217.1933525,2,0,1580907501.434519,1580903939.50652,2435,0.4661743,0,0,2995.009,10,12,1580907483.189245,11214.921527,0,10.55078,97.0806
1580907502.158052,94,0,1580907286.99823,41.20781296037784,29.0754925099451,275.2123,0.1345286,-1,23.46983528137207,200,-9999,11217.94722054167,0.97125244140625,0.097320556640625,-0.1340179443359375,11217.94218554167,-3.107293943595409,1.435735595015964,-0.09739622855098838,-0.002199797425419092,-0.008183388970792294,-0.007306424435228109,-0.01550048589706421,-0.001519232988357544,-0.002989590167999268,2,0.6562749920454594,0.04792659777047696,-0.7527555243894511,-0.01911416368966724,0.9861971139907837,0.0972423180937767,-0.1340123564004898,38.18965911865234,4.836809158325195,-21.55096435546875,2,11217.1933525,2,0,1580907501.434519,1580903939.50652,2435,0.4661743,0,0,2995.009,10,12,1580907483.189245,11214.921527,0,10.55078,97.0806
1580907502.164459,95,0,1580907286.99823,41.20781296037784,29.0754925099451,275.2123,0.1345286,-1,23.46983528137207,200,-9999,11217.95726154167,0.969451904296875,0.09722900390625,-0.1354827880859375,11217.95222554167,-3.107271151062061,1.435626531307379,-0.09751472041104386,-0.004592115059494972,-0.01171980053186417,-0.01179598178714514,-0.01809883117675781,-0.0008745491504669189,-0.002761185169219971,2,0.6562307350650535,0.04797965291879627,-0.7527899910481959,-0.01914192753293883,0.9861710071563721,0.09736024588346481,-0.1341183483600616,38.18965911865234,4.836809158325195,-21.55096435546875,2,11217.1933525,2,0,1580907501.434519,1580903939.50652,2435,0.4661743,0,0,2995.009,10,12,1580907483.189245,11214.921527,0,10.55078,97.0806
1580907502.174483,96,0,1580907286.99823,41.20781296037784,29.0754925099451,275.2123,0.1345286,-1,23.46983528137207,200,-9999,11217.96730154167,0.96539306640625,0.0972747802734375,-0.1370697021484375,11217.96226654167,-3.107256351887139,1.435567475118464,-0.09764827100831092,-0.00271520484238863,-0.005766088142991066,-0.01297194696962833,-0.01769638061523438,-0.0003516897559165955,-0.002414405345916748,2,0.6562051404191294,0.04803527046249559,-0.7528079139246423,-0.01917883413051871,0.986150324344635,0.09749316424131393,-0.1341748535633087,38.17610168457031,4.882804870605469,-21.32501220703125,2,11217.1933525,2,0,1580907501.434519,1580903939.50652,2435,0.4661743,0,0,2995.009,10,12,1580907483.189245,11214.921527,0,10.55078,97.0806
1580907502.184541,97,0,1580907286.99823,41.20781296037784,29.0754925099451,275.2123,0.1345286,-1,23.46983528137207,200,-9999,11217.97737254167,0.9657745361328125,0.0981903076171875,-0.134765625,11217.97230654167,-3.107236592544682,1.435562520426932,-0.09776244356990044,-0.002980189397931099,0.001367188990116119,-0.01086618565022945,-0.0227506160736084,-0.0009081214666366577,-0.005493223667144775,2,0.6562002278262667,0.04808471347509739,-0.7528083049572473,-0.01920880720601231,0.986138641834259,0.09760679304599762,-0.1341782361268997,38.17610168457031,4.882804870605469,-21.32501220703125,2,11217.1933525,2,0,1580907501.434519,1580903939.50652,2435,0.4661743,0,0,2995.009,10,12,1580907483.189245,11214.921527,0,10.55078,97.0806
1580907502.214031,98,0,1580907286.99823,41.20781296037784,29.0754925099451,275.2123,0.1345286,-1,23.46983528137207,200,-9999,11217.98741254167,0.9690399169921875,0.098175048828125,-0.131744384765625,11217.98234654167,-3.107227247641719,1.435516803526212,-0.09784909893602688,-0.002518381457775831,-0.004291541874408722,-0.008662154898047447,-0.02386516332626343,-2.786517143249512e-06,-0.003633439540863037,2,0.6561808447160832,0.04812078824507814,-0.7528222462443953,-0.01923267972065335,0.9861240983009338,0.09769303351640701,-0.1342221796512604,38.25240325927734,4.718313217163086,-21.431640625,2,11217.1933525,2,0,1580907501.434519,1580903939.50652,2435,0.4661743,0,0,2995.009,10,12,1580907483.189245,11214.921527,0,10.55078,97.0806
1580907502.215455,99,0,1580907286.99823,41.20781296037784,29.0754925099451,275.2123,0.1345286,-1,23.46983528137207,200,-9999,11217.99745254167,0.967926025390625,0.09912109375,-0.1319580078125,11217.99238654167,-3.107232735904243,1.435392528042986,-0.09790434900015718,-0.0001127477735280991,-0.01322405133396387,-0.004694310948252678,-0.02031844854354858,0.0001098886132240295,-0.0007801055908203125,2,0.6561329497378694,0.04814095027355585,-0.7528622812541773,-0.01924991436431357,0.9861021041870117,0.09774801880121231,-0.1343439966440201,38.25240325927734,4.718313217163086,-21.431640625,2,11217.1933525,2,0,1580907501.434519,1580903939.50652,2435,0.4661743,0,0,2995.009,10,12,1580907483.189245,11214.921527,0,10.55078,97.0806
1580907502.216547,100,0,1580907286.99823,41.20781296037784,29.0754925099451,275.2123,0.1345286,-1,23.46983528137207,200,-9999,11218.00749354167,0.9615325927734375,0.09716796875,-0.1381072998046875,11218.00242754167,-3.107243984786691,1.435295446141087,-0.09793742552514247,0.000466751866042614,-0.01070482097566128,-0.003594690933823586,-0.01995128393173218,0.0009924024343490601,0.0008563995361328125,2,0.6560959322874547,0.04815062716716421,-0.7528935498890703,-0.0192626878735217,0.9860857725143433,0.09778093546628952,-0.1344392895698547,38.34567260742188,4.806283950805664,-21.32330322265625,2,11217.1933525,2,0,1580907501.434519,1580903939.50652,2435,0.4661743,0,0,2995.009,10,12,1580907483.189245,11214.921527,0,10.55078,97.0806
1580907502.2247,101,0,1580907286.99823,41.20781296037784,29.0754925099451,275.2123,0.1345286,-1,23.46983528137207,200,-9999,11218.01753354167,0.9618988037109375,0.09716796875,-0.1397552490234375,11218.01249854167,-3.107272608116781,1.435343828050372,-0.09793995889468739,0.003353618085384369,0.006144201382994652,-0.0009043659083545208,-0.02519136667251587,-0.0002918839454650879,-0.003967523574829102,2,0.656114783845843,0.04814172216297055,-0.7528772670167136,-0.01927546900400695,0.9860919117927551,0.09778345376253128,-0.1343915313482285,38.34567260742188,4.806283950805664,-21.32330322265625,2,11217.1933525,2,0,1580907501.434519,1580903939.50652,2435,0.4661743,0,0,2995.009,10,12,1580907483.189245,11214.921527,0,10.55078,97.0806
1580907502.234779,102,0,1580907286.99823,41.20781296037784,29.0754925099451,275.2123,0.1345286,-1,23.46983528137207,200,-9999,11218.02757354167,0.968017578125,0.0982666015625,-0.1357574462890625,11218.02253854167,-3.107280300665049,1.435456450243286,-0.09792221523290311,0.0001698927953839302,0.01176406070590019,0.00166682805866003,-0.02818381786346436,-0.001296505331993103,-0.00891566276550293,2,0.6561577581254119,0.04813144456053475,-0.7528405537626562,-0.01927523607762538,0.9861088395118713,0.09776579588651657,-0.134280726313591,38.42833709716797,4.662485122680664,-21.34002685546875,2,11217.1933525,2,0,1580907501.434519,1580903939.50652,2435,0.4661743,0,0,2995.009,10,12,1580907483.189245,11214.921527,0,10.55078,97.0806
1580907502.244812,103,0,1580907286.99823,41.20781296037784,29.0754925099451,275.2123,0.1345286,-1,23.46983528137207,200,-9999,11218.03761354167,0.967498779296875,0.09698486328125,-0.135833740234375,11218.03257854167,-3.107283809554491,1.435591283316301,-0.09788635509196714,0.001241016201674938,0.01356276124715805,0.003636235371232033,-0.02228498458862305,5.154311656951904e-05,-0.004669249057769775,2,0.6562094028561096,0.0481155158926287,-0.7527967488557142,-0.01926801242541595,0.98613041639328,0.09773010760545731,-0.1341482400894165,38.42833709716797,4.662485122680664,-21.34002685546875,2,11217.1933525,2,0,1580907501.434519,1580903939.50652,2435,0.4661743,0,0,2995.009,10,12,1580907483.189245,11214.921527,0,10.55078,97.0806
1580907502.274626,104,0,1580907286.99823,41.20781296037784,29.0754925099451,275.2123,0.1345286,-1,23.46983528137207,200,-9999,11218.04765454167,0.967987060546875,0.0970611572265625,-0.1363067626953125,11218.04261854167,-3.107275982353728,1.435758257514608,-0.09785362634370752,-0.001400401815772057,0.01752405613660812,0.003623275086283684,-0.02080005407333374,-0.0007092654705047607,-0.00402534008026123,2,0.656272799840773,0.04810417520432615,-0.7527424382985638,-0.0192583246867942,0.9861559867858887,0.09769754111766815,-0.1339839994907379,38.50083923339844,4.620800018310547,-21.273193359375,2,11217.1933525,2,0,1580907501.434519,1580903939.50652,2435,0.4661743,0,0,2995.009,10,12,1580907483.189245,11214.921527,0,10.55078,97.0806
1580907502.27635,105,0,1580907286.99823,41.20781296037784,29.0754925099451,275.2123,0.1345286,-1,23.46983528137207,200,-9999,11218.05772554167,0.973358154296875,0.0962066650390625,-0.1334381103515625,11218.05265954167,-3.107265444109298,1.435890368110954,-0.09786347012236647,-0.002257407177239656,0.01415622234344482,-0.001108096912503242,-0.02170193195343018,-0.0007801353931427002,-0.004995286464691162,2,0.6563220404000965,0.04811006143704923,-0.752699144464305,-0.01926076571798453,0.9861727952957153,0.09770733118057251,-0.1338535994291306,38.50083923339844,4.620800018310547,-21.273193359375,2,11217.1933525,2,0,1580907501.434519,1580903939.50652,2435,0.4661743,0,0,2995.009,10,12,1580907483.189245,11214.921527,0,10.55078,97.0806
1580907502.277637,106,0,1580907286.99823,41.20781296037784,29.0754925099451,275.2123,0.1345286,-1,23.46983528137207,200,-9999,11218.06776554167,0.9724578857421875,0.0973663330078125,-0.133514404296875,11218.06269954167,-3.10724382378638,1.435966832033368,-0.09791418696033828,-0.003054396249353886,0.008592769503593445,-0.003871215507388115,-0.01703798770904541,-0.001746274530887604,-0.003087997436523438,2,0.65634916012291,0.04813547764861624,-0.752673505304445,-0.01927115358354405,0.9861779808998108,0.09775780886411667,-0.1337775141000748,38.39916229248047,4.609941482543945,-21.47430419921875,2,11217.1933525,2,0,1580907501.434519,1580903939.50652,2435,0.4661743,0,0,2995.009,10,12,1580907483.189245,11214.921527,0,10.55078,97.0806
1580907502.285031,107,0,1580907286.99823,41.20781296037784,29.0754925099451,275.2123,0.1345286,-1,23.46983528137207,200,-9999,11218.07780554167,0.9708251953125,0.097808837890625,-0.1337890625,11218.07273954167,-3.1072224636941,1.436006662881217,-0.09800172635120097,-0.003867459483444691,0.00296870619058609,-0.007801774889230728,-0.01563096046447754,-0.001208007335662842,-0.001739919185638428,2,0.6563616612695308,0.04817499891974331,-0.7526595050613843,-0.01929285929681467,0.9861748218536377,0.0978449285030365,-0.1337370723485947,38.44075775146484,4.602907180786133,-21.228515625,2,11217.1933525,2,0,1580907501.434519,1580903939.50652,2435,0.4661743,0,0,2995.009,10,12,1580907483.189245,11214.921527,0,10.55078,97.0806
1580907502.295171,108,0,1580907286.99823,41.20781296037784,29.0754925099451,275.2123,0.1345286,-1,23.46983528137207,200,-9999,11218.08784554167,0.970458984375,0.0966796875,-0.1357269287109375,11218.08278054167,-3.107202654227013,1.436057523553589,-0.09811402418683417,-0.003488450776785612,0.004666246473789215,-0.01055049709975719,-0.01806849241256714,-0.0004198402166366577,-0.002249717712402344,2,0.6563777926838009,0.04822320648975247,-0.7526414919544173,-0.01932356224178101,0.9861706495285034,0.09795668721199036,-0.1336854249238968,38.44075775146484,4.602907180786133,-21.228515625,2,11217.1933525,2,0,1580907501.434519,1580903939.50652,2435,0.4661743,0,0,2995.009,10,12,1580907483.189245,11214.921527,0,10.55078,97.0806
1580907502.305143,109,0,1580907286.99823,41.20781296037784,29.0754925099451,275.2123,0.1345286,-1,23.46983528137207,200,-9999,11218.09788654167,0.9678192138671875,0.0973358154296875,-0.1350555419921875,11218.09285054167,-3.107173280599957,1.436135828028258,-0.09823762659259927,-0.005453330930322409,0.008221833035349846,-0.01163520291447639,-0.01794469356536865,-0.001550227403640747,-0.003854334354400635,2,0.6564037481097423,0.04827853581623255,-0.752614625533045,-0.01935503064852828,0.9861692786216736,0.09807969629764557,-0.1336065977811813,38.38962554931641,4.621805191040039,-21.27996826171875,2,11217.1933525,2,0,1580907501.434519,1580903939.50652,2435,0.4661743,0,0,2995.009,10,12,1580907483.189245,11214.921527,0,10.55078,97.0806
1580907502.33603,110,0,1580907286.99823,41.20781296037784,29.0754925099451,275.2123,0.1345286,-1,23.46983528137207,200,-9999,11218.10792654167,0.969451904296875,0.09954833984375,-0.131378173828125,11218.10289154167,-3.107171835478114,1.436161939078414,-0.09834881776865761,-0.002649870235472918,0.002101484686136246,-0.01098031271249056,-0.02047038078308105,-0.001539140939712524,-0.004583656787872314,2,0.6564110253385946,0.04832053660789585,-0.7526045988195132,-0.01939168522675901,0.9861618876457214,0.09819034487009048,-0.1335793882608414,38.38962554931641,4.621805191040039,-21.27996826171875,2,11217.1933525,2,0,1580907501.434519,1580903939.50652,2435,0.4661743,0,0,2995.009,10,12,1580907483.189245,11214.921527,0,10.55078,97.0806
1580907502.337404,111,0,1580907286.99823,41.20781296037784,29.0754925099451,275.2123,0.1345286,-1,23.46983528137207,200,-9999,11218.11796654167,0.9673614501953125,0.0996246337890625,-0.131927490234375,11218.11293154167,-3.107172350672746,1.436143775059285,-0.09843423039221351,-0.002167571801692247,-0.001770485192537308,-0.00885484367609024,-0.02024608850479126,0.0003897622227668762,-0.00107276439666748,2,0.6564022709359517,0.04835263679258364,-0.7526094151562697,-0.01941953079511152,0.9861510992050171,0.09827534854412079,-0.1335961669683456,38.46134948730469,4.654060363769531,-21.22808837890625,2,11217.1933525,2,0,1580907501.434519,1580903939.50652,2435,0.4661743,0,0,2995.009,10,12,1580907483.189245,11214.921527,0,10.55078,97.0806
1580907502.338605,112,0,1580907286.99823,41.20781296037784,29.0754925099451,275.2123,0.1345286,-1,23.46983528137207,200,-9999,11218.12800754167,0.96502685546875,0.097991943359375,-0.135223388671875,11218.12297154167,-3.107177142335635,1.436136541159053,-0.09847724298297654,-0.0001826100051403046,-5.01144677400589e-05,-0.004297409672290087,-0.02054601907730103,0.001537017524242401,-0.0002880096435546875,2,0.6563986927812029,0.04836729585309601,-0.7526111473433649,-0.01943530672764655,0.9861458539962769,0.09831815212965012,-0.1336027234792709,38.46134948730469,4.654060363769531,-21.22808837890625,2,11217.1933525,2,0,1580907501.434519,1580903939.50652,2435,0.4661743,0,0,2995.009,10,12,1580907483.189245,11214.921527,0,10.55078,97.0806
1580907502.34534,113,0,1580907286.99823,41.20781296037784,29.0754925099451,275.2123,0.1345286,-1,23.46983528137207,200,-9999,11218.13807754167,0.9643402099609375,0.098907470703125,-0.1360015869140625,11218.13301154167,-3.107177974193989,1.43617808513136,-0.0984870882834856,-0.0002518519759178162,0.004870608448982239,-0.0001402152702212334,-0.02337366342544556,-0.0004869550466537476,-0.003106236457824707,2,0.6564141170403677,0.04837031944625797,-0.7525974688764722,-0.01943985426007484,0.9861505627632141,0.09832794964313507,-0.1335616409778595,38.2315673828125,4.543718338012695,-21.08026123046875,2,11217.1933525,2,0,1580907501.434519,1580903939.50652,2435,0.4661743,0,0,2995.009,10,12,1580907483.189245,11214.921527,0,10.55078,97.0806
1580907502.355286,114,0,1580907286.99823,41.20781296037784,29.0754925099451,275.2123,0.1345286,-1,23.46983528137207,200,-9999,11218.14811854167,0.9670562744140625,0.0996856689453125,-0.1339874267578125,11218.14305254167,-3.10718518941419,1.436247728680472,-0.09846812723682676,0.002438884228467941,0.007299067452549934,0.0024071941152215,-0.02452927827835083,5.075335502624512e-05,-0.005021274089813232,2,0.6564409271775072,0.04836015013643416,-0.7525747909255727,-0.01943801758393592,0.9861617088317871,0.09830907732248306,-0.1334932148456573,38.2315673828125,4.543718338012695,-21.08026123046875,2,11217.1933525,2,0,1580907501.434519,1580903939.50652,2435,0.4661743,0,0,2995.009,10,12,1580907483.189245,11214.921527,0,10.55078,97.0806
1580907502.365363,115,0,1580907286.99823,41.20781296037784,29.0754925099451,275.2123,0.1345286,-1,23.46983528137207,200,-9999,11218.15815854167,0.967559814453125,0.099945068359375,-0.133941650390625,11218.15309254167,-3.107201864863374,1.436316891909314,-0.0984213453111034,0.003127044998109341,0.006568828597664833,0.004975014366209507,-0.02275794744491577,0.0008298382163047791,-0.003304004669189453,2,0.6564684196446304,0.04833642673602054,-0.7525524554259253,-0.01943058560892905,0.9861754179000854,0.09826252609491348,-0.1334256082773209,38.38231658935547,4.584686279296875,-21.24176025390625,2,11217.1933525,2,0,1580907501.434519,1580903939.50652,2435,0.4661743,0,0,2995.009,10,12,1580907483.189245,11214.921527,0,10.55078,97.0806
1580907502.391674,116,0,1580907286.99823,41.20781296037784,29.0754925099451,275.2123,0.1345286,-1,23.46983528137207,200,-9999,11218.16819854167,0.968048095703125,0.0977020263671875,-0.1344146728515625,11218.16313254167,-3.107232031986504,1.436401771338684,-0.09837567257960604,0.003458506427705288,0.008399074897170067,0.004591344855725765,-0.02147674560546875,0.001409478485584259,-0.003051519393920898,2,0.656502120660965,0.04830854006403906,-0.7525248805826047,-0.01942896726287711,0.9861912131309509,0.09821707010269165,-0.1333425045013428,38.38231658935547,4.584686279296875,-21.24176025390625,2,11217.1933525,2,0,1580907501.434519,1580903939.50652,2435,0.4661743,0,0,2995.009,10,12,1580907483.189245,11214.921527,0,10.55078,97.0806
1580907502.393458,117,0,1580907286.99823,41.20781296037784,29.0754925099451,275.2123,0.1345286,-1,23.46983528137207,200,-9999,11218.17823854167,0.96783447265625,0.095855712890625,-0.13458251953125,11218.17320354167,-3.107267249043219,1.436508518392435,-0.09834285783544397,0.003810842521488667,0.01061189547181129,0.002585984766483307,-0.02048701047897339,0.0001299828290939331,-0.003263294696807861,2,0.6565438683209665,0.04828361576151827,-0.7524900653255154,-0.01943399050869146,0.9862087965011597,0.09818441420793533,-0.1332376897335052,38.48349761962891,4.569446563720703,-21.22918701171875,2,11217.1933525,2,0,1580907501.434519,1580903939.50652,2435,0.4661743,0,0,2995.009,10,12,1580907483.189245,11214.921527,0,10.55078,97.0806
1580907502.395641,118,0,1580907286.99823,41.20781296037784,29.0754925099451,275.2123,0.1345286,-1,23.46983528137207,200,-9999,11218.18827954167,0.972320556640625,0.096405029296875,-0.1332855224609375,11218.18324354167,-3.107296719052144,1.436607921007401,-0.09833146473733921,0.002318009734153748,0.009419647976756096,0.001099573448300362,-0.02158468961715698,-0.002239018678665161,-0.004078686237335205,2,0.6565822420349116,0.04826869395543783,-0.7524572036482359,-0.01944373783112723,0.986223042011261,0.09817308187484741,-0.1331397891044617,38.48349761962891,4.569446563720703,-21.22918701171875,2,11217.1933525,2,0,1580907501.434519,1580903939.50652,2435,0.4661743,0,0,2995.009,10,12,1580907483.189245,11214.921527,0,10.55078,97.0806
1580907502.40556,119,0,1580907286.99823,41.20781296037784,29.0754925099451,275.2123,0.1345286,-1,23.46983528137207,200,-9999,11218.19831954167,0.9723358154296875,0.0970458984375,-0.1342620849609375,11218.19328454167,-3.107317223016763,1.436684768623253,-0.09836378171919423,0.0005163811147212982,0.007974350824952126,-0.003130591008812189,-0.01780766248703003,-0.002454355359077454,-0.00278162956237793,2,0.6566109169020706,0.04827335564307379,-0.7524313726755804,-0.01946393562211174,0.9862301349639893,0.09820523858070374,-0.1330635696649551,38.37796783447266,4.715143203735352,-20.9969482421875,2,11217.1933525,2,0,1580907501.434519,1580903939.50652,2435,0.4661743,0,0,2995.009,10,12,1580907483.189245,11214.921527,0,10.55078,97.0806
1580907502.415535,120,0,1580907286.99823,41.20781296037784,29.0754925099451,275.2123,0.1345286,-1,23.46983528137207,200,-9999,11218.20835954167,0.9731597900390625,0.098846435546875,-0.1309661865234375,11218.20332454167,-3.10733778928137,1.436700763328935,-0.09841991997835565,0.001680514775216579,0.002444006502628326,-0.005990376695990562,-0.01620221138000488,-0.001884788274765015,-0.003607094287872314,2,0.6566161627062026,0.04828753638586281,-0.7524251696513016,-0.0194905276573679,0.9862267374992371,0.09826110303401947,-0.1330470591783524,38.37796783447266,4.715143203735352,-20.9969482421875,2,11217.1933525,2,0,1580907501.434519,1580903939.50652,2435,0.4661743,0,0,2995.009,10,12,1580907483.189245,11214.921527,0,10.55078,97.0806
1580907502.425586,121,0,1580907286.99823,41.20781296037784,29.0754925099451,275.2123,0.1345286,-1,23.46983528137207,200,-9999,11218.21843054167,0.969085693359375,0.097137451171875,-0.133636474609375,11218.21336454167,-3.107348923605498,1.436670741209623,-0.09848392791205376,-0.0002755774185061455,-0.002495890483260155,-0.006827142089605331,-0.01617681980133057,8.074194192886353e-05,-0.0009081363677978516,2,0.6566036888432512,0.04830821885442214,-0.7524340858430436,-0.01951504682402355,0.9862165451049805,0.09832480549812317,-0.1330758184194565,38.59457397460938,4.524904251098633,-21.1090087890625,2,11217.1933525,2,0,1580907501.434519,1580903939.50652,2435,0.4661743,0,0,2995.009,10,12,1580907483.189245,11214.921527,0,10.55078,97.0806
1580907502.455125,122,0,1580907286.99823,41.20781296037784,29.0754925099451,275.2123,0.1345286,-1,23.46983528137207,200,-9999,11218.22847054167,0.9659576416015625,0.0995025634765625,-0.133880615234375,11218.22340554167,-3.107359609052671,1.43663677785047,-0.09853376588484744,-0.0004768893122673035,-0.004845667630434036,-0.005187704227864742,-0.01837974786758423,-0.001311734318733215,-0.002004027366638184,2,0.6565900362805329,0.04832376566449939,-0.7524445655746499,-0.01953463322812603,0.9862072467803955,0.09837440401315689,-0.1331086754798889,38.59457397460938,4.524904251098633,-21.1090087890625,2,11217.1933525,2,0,1580907501.434519,1580903939.50652,2435,0.4661743,0,0,2995.009,10,12,1580907483.189245,11214.921527,0,10.55078,97.0806
1580907502.456514,123,0,1580907286.99823,41.20781296037784,29.0754925099451,275.2123,0.1345286,-1,23.46983528137207,200,-9999,11218.23851154167,0.9644622802734375,0.0991363525390625,-0.1350555419921875,11218.23344554167,-3.107369409288714,1.43666707980344,-0.09855801048121536,0.001394513994455338,0.004535583779215813,-0.003152250312268734,-0.02231818437576294,0.0002662390470504761,-0.002980411052703857,2,0.6566011262118819,0.04832935972512811,-0.7524341801309351,-0.01954702971584668,0.9862088561058044,0.09839852899312973,-0.133078470826149,38.67337036132812,4.560731887817383,-20.94073486328125,2,11217.1933525,2,0,1580907501.434519,1580903939.50652,2435,0.4661743,0,0,2995.009,10,12,1580907483.189245,11214.921527,0,10.55078,97.0806
1580907502.457632,124,0,1580907286.99823,41.20781296037784,29.0754925099451,275.2123,0.1345286,-1,23.46983528137207,200,-9999,11218.24855154167,0.9691619873046875,0.09893798828125,-0.133026123046875,11218.24348554167,-3.107367174182051,1.436710527237282,-0.09854751887320509,0.0006568897515535355,0.005693227052688599,0.001561721786856651,-0.02484267950057983,0.0008870586752891541,-0.004305005073547363,2,0.6566176575035285,0.04832572725335436,-0.752420038116773,-0.01954379058896656,0.9862156510353088,0.09838809072971344,-0.1330357491970062,38.67337036132812,4.560731887817383,-20.94073486328125,2,11217.1933525,2,0,1580907501.434519,1580903939.50652,2435,0.4661743,0,0,2995.009,10,12,1580907483.189245,11214.921527,0,10.55078,97.0806
1580907502.465849,125,0,1580907286.99823,41.20781296037784,29.0754925099451,275.2123,0.1345286,-1,23.46983528137207,200,-9999,11218.25859154167,0.967864990234375,0.09820556640625,-0.1343994140625,11218.25355654167,-3.10736748293674,1.436755350766579,-0.09853474651902758,0.001040651462972164,0.005207467824220657,0.001338282600045204,-0.02106571197509766,0.0001979023218154907,-0.003525197505950928,2,0.6566348157078274,0.04832039018459827,-0.7524055043163869,-0.01954078658115298,0.9862228631973267,0.09837538003921509,-0.1329917162656784,38.48699188232422,4.360824584960938,-21.09820556640625,2,11217.1933525,2,0,1580907501.434519,1580903939.50652,2435,0.4661743,0,0,2995.009,10,12,1580907483.189245,11214.921527,0,10.55078,97.0806
1580907502.475725,126,0,1580907286.99823,41.20781296037784,29.0754925099451,275.2123,0.1345286,-1,23.46983528137207,200,-9999,11218.26863254167,0.9681243896484375,0.097930908203125,-0.133270263671875,11218.26359654167,-3.107349526670462,1.436807292968508,-0.09852694868339118,-0.001390624791383743,0.005601136013865471,0.0005053328350186348,-0.01998996734619141,-2.316385507583618e-05,-0.003042101860046387,2,0.6566540908268926,0.04832285048977274,-0.7523888546610487,-0.01953271041662356,0.9862306714057922,0.09836761653423309,-0.1329406201839447,38.48699188232422,4.360824584960938,-21.09820556640625,2,11217.1933525,2,0,1580907501.434519,1580903939.50652,2435,0.4661743,0,0,2995.009,10,12,1580907483.189245,11214.921527,0,10.55078,97.0806
1580907502.485839,127,0,1580907286.99823,41.20781296037784,29.0754925099451,275.2123,0.1345286,-1,23.46983528137207,200,-9999,11218.27867254167,0.9686126708984375,0.0987701416015625,-0.133209228515625,11218.27363654167,-3.107325984471604,1.436827936794655,-0.09849211303057041,-0.001196480356156826,0.001467645168304443,0.00384866539388895,-0.02162891626358032,-0.0007971525192260742,-0.003581225872039795,2,0.6566620897702091,0.04831729064408589,-0.7523825519014491,-0.01951291039256979,0.986236572265625,0.09833294898271561,-0.1329206824302673,38.54331970214844,4.124044418334961,-21.00030517578125,2,11217.1933525,2,0,1580907501.434519,1580903939.50652,2435,0.4661743,0,0,2995.009,10,12,1580907483.189245,11215.867198,0,10.5455,97.08067
1580907502.517113,128,0,1580907286.99823,41.20781296037784,29.0754925099451,275.2123,0.1345286,-1,23.46983528137207,200,-9999,11218.28871254167,0.9682159423828125,0.0989990234375,-0.1328125,11218.28367754167,-3.107308445530603,1.436844463621991,-0.09843013119445972,-0.0006612213328480721,0.002242589369416237,0.006678285077214241,-0.01994335651397705,-4.862993955612183e-05,-0.002452075481414795,2,0.6566692767310935,0.0482996072961052,-0.7523782465975306,-0.01948630876921773,0.9862449765205383,0.09827126562595367,-0.1329052150249481,38.54331970214844,4.124044418334961,-21.00030517578125,2,11217.1933525,2,0,1580907501.434519,1580903939.50652,2435,0.4661743,0,0,2995.009,10,12,1580907483.189245,11215.867198,0,10.5455,97.08067
1580907502.518389,129,0,1580907286.99823,41.20781296037784,29.0754925099451,275.2123,0.1345286,-1,23.46983528137207,200,-9999,11218.29875254167,0.9699554443359375,0.0975341796875,-0.1320343017578125,11218.29371754167,-3.107296191710804,1.436824793395947,-0.09837651042893465,-0.0004929089918732643,-0.002559090033173561,0.005280657671391964,-0.02070903778076172,0.0007830560207366943,-0.002691566944122314,2,0.6566628017808721,0.04828367896968566,-0.7523853999710065,-0.0194635942586575,0.9862474799156189,0.09821790456771851,-0.1329253017902374,38.6181640625,4.326332092285156,-20.85321044921875,2,11217.1933525,2,0,1580907501.434519,1580903939.50652,2435,0.4661743,0,0,2995.009,10,12,1580907483.189245,11215.867198,0,10.5455,97.08067
1580907502.519451,130,0,1580907286.99823,41.20781296037784,29.0754925099451,275.2123,0.1345286,-1,23.46983528137207,200,-9999,11218.30882354167,0.9688873291015625,0.0977325439453125,-0.1346893310546875,11218.30375754167,-3.107288216051725,1.436807112659748,-0.09834355403785257,-6.862916052341461e-05,-0.002434827387332916,0.003239068202674389,-0.01984012126922607,-0.00048103928565979,-0.001452803611755371,2,0.6566566990882834,0.04827409068535711,-0.7523917751889753,-0.01944931976574518,0.9862483739852905,0.09818510711193085,-0.13294318318367,38.6181640625,4.326332092285156,-20.85321044921875,2,11217.1933525,2,0,1580907501.434519,1580903939.50652,2435,0.4661743,0,0,2995.009,10,12,1580907483.189245,11215.867198,0,10.5455,97.08067
1580907502.526686,131,0,1580907286.99823,41.20781296037784,29.0754925099451,275.2123,0.1345286,-1,23.46983528137207,200,-9999,11218.31886354167,0.971771240234375,0.0970001220703125,-0.1331024169921875,11218.31379854167,-3.107268017791152,1.436806092835139,-0.0983308083348743,-0.001800482161343098,-2.839602530002594e-05,0.002142111770808697,-0.01933771371841431,-0.000895574688911438,-0.003236889839172363,2,0.6566561140880973,0.048275944836523,-0.7523925040188665,-0.01943750091878618,0.986249566078186,0.09817242622375488,-0.1329443603754044,38.64527893066406,4.380826950073242,-20.7861328125,2,11217.1933525,2,0,1580907501.434519,1580903939.50652,2435,0.4661743,0,0,2995.009,10,12,1580907483.189245,11215.867198,0,10.5455,97.08067
1580907502.536077,132,0,1580907286.99823,41.20781296037784,29.0754925099451,275.2123,0.1345286,-1,23.46983528137207,200,-9999,11218.32890454167,0.9780731201171875,0.096099853515625,-0.1313323974609375,11218.32383854167,-3.107243120000291,1.43674752575336,-0.09839207718778277,-0.002337482757866383,-0.007001477293670177,-0.006488301791250706,-0.01915615797042847,-0.001002505421638489,-0.003698647022247314,2,0.6566320905147571,0.04830770454469886,-0.7524112318566181,-0.01944687122731115,0.9862358570098877,0.09823340177536011,-0.1330013275146484,38.64527893066406,4.380826950073242,-20.7861328125,2,11217.1933525,2,0,1580907501.434519,1580903939.50652,2435,0.4661743,0,0,2995.009,10,12,1580907483.189245,11215.867198,0,10.5455,97.08067
1580907502.546197,133,0,1580907286.99823,41.20781296037784,29.0754925099451,275.2123,0.1345286,-1,23.46983528137207,200,-9999,11218.33894454167,0.9740753173828125,0.0952911376953125,-0.134185791015625,11218.33390954167,-3.107218222345207,1.436660313173156,-0.09853179455522199,-0.003705548588186502,-0.009154909290373325,-0.01481946837157011,-0.01180660724639893,-0.002454176545143127,-0.0005013942718505859,2,0.6565955148125737,0.0483692127990135,-0.7524382877596468,-0.019481357351795,0.9862105846405029,0.0983724370598793,-0.1330855041742325,38.76161193847656,4.525556564331055,-20.89434814453125,2,11217.1933525,2,0,1580907501.434519,1580903939.50652,2435,0.4661743,0,0,2995.009,10,12,1580907483.189245,11215.867198,0,10.5455,97.08067
1580907502.573867,134,0,1580907286.99823,41.20781296037784,29.0754925099451,275.2123,0.1345286,-1,23.46983528137207,200,-9999,11218.34898454167,0.9704132080078125,0.0979461669921875,-0.133544921875,11218.34394954167,-3.107186172042328,1.436554285563568,-0.09869684078961848,-0.005702206399291754,-0.01116751134395599,-0.01651315204799175,-0.01336312294006348,-0.003458127379417419,-0.002641916275024414,2,0.6565511142889833,0.04844276954172838,-0.7524711362226894,-0.01952103283826173,0.9861802458763123,0.09853668510913849,-0.133187860250473,38.76161193847656,4.525556564331055,-20.89434814453125,2,11217.1933525,2,0,1580907501.434519,1580903939.50652,2435,0.4661743,0,0,2995.009,10,12,1580907483.189245,11215.867198,0,10.5455,97.08067
1580907502.575104,135,0,1580907286.99823,41.20781296037784,29.0754925099451,275.2123,0.1345286,-1,23.46983528137207,200,-9999,11218.35902554167,0.967132568359375,0.10040283203125,-0.1329345703125,11218.35398954167,-3.107156484390298,1.43643049154365,-0.09884301247094773,-0.00510645704343915,-0.01333559025079012,-0.01505080983042717,-0.01801663637161255,-0.0020781010389328,-0.00310128927230835,2,0.6565005007895699,0.04850863843706887,-0.7525101304301033,-0.01955494243200886,0.9861493706703186,0.09868214279413223,-0.133308008313179,38.86390686035156,4.591163635253906,-21.0799560546875,2,11217.1933525,2,0,1580907501.434519,1580903939.50652,2435,0.4661743,0,0,2995.009,10,12,1580907483.189245,11215.867198,0,10.5455,97.08067
1580907502.576518,136,0,1580907286.99823,41.20781296037784,29.0754925099451,275.2123,0.1345286,-1,23.46983528137207,200,-9999,11218.369040375,0.96240234375,0.1000213623046875,-0.1349334716796875,11218.364005375,-3.107118676911917,1.436341584042595,-0.09894476300295571,-0.005778799299150705,-0.009917831048369408,-0.01035281736403704,-0.01993262767791748,0.001146778464317322,-0.002129673957824707,2,0.6564638164294082,0.04856014608376713,-0.7525383786470132,-0.01957202225482703,0.9861276149749756,0.09878339618444443,-0.1333943456411362,38.86390686035156,4.591163635253906,-21.0799560546875,2,11217.1933525,2,0,1580907501.434519,1580903939.50652,2435,0.4661743,0,0,2995.009,10,12,1580907483.189245,11215.867198,0,10.5455,97.08067
1580907502.586298,137,0,1580907286.99823,41.20781296037784,29.0754925099451,275.2123,0.1345286,-1,23.46983528137207,200,-9999,11218.379080375,0.9616546630859375,0.1007080078125,-0.13531494140625,11218.374045375,-3.107092488912443,1.436328540690585,-0.09898914013981608,-0.002027204260230064,-0.001191450282931328,-0.004082937724888325,-0.02555692195892334,0.0009041726589202881,-0.003230929374694824,2,0.6564572554400572,0.04858554364489121,-0.7525424561251315,-0.01957643634339043,0.986121654510498,0.0988275557756424,-0.1334066390991211,38.54318237304688,4.670928955078125,-21.13934326171875,2,11217.1933525,2,0,1580907501.434519,1580903939.50652,2435,0.4661743,0,0,2995.009,10,12,1580907483.189245,11215.867198,0,10.5455,97.08067
1580907502.596423,138,0,1580907286.99823,41.20781296037784,29.0754925099451,275.2123,0.1345286,-1,23.46983528137207,200,-9999,11218.389151375,0.96728515625,0.1000518798828125,-0.1333465576171875,11218.384085375,-3.107063078400143,1.43634511384182,-0.09899941215944076,-0.002529018092900515,0.0005118474364280701,-0.0002817874774336815,-0.02760279178619385,0.001641586422920227,-0.004681885242462158,2,0.6564625418164786,0.04859889436171366,-0.7525371898232813,-0.01956914930317681,0.9861228466033936,0.09883777797222137,-0.1333901584148407,38.54318237304688,4.670928955078125,-21.13934326171875,2,11217.1933525,2,0,1580907501.434519,1580903939.50652,2435,0.4661743,0,0,2995.009,10,12,1580907483.189245,11215.867198,0,10.5455,97.08067
1580907502.606466,139,0,1580907286.99823,41.20781296037784,29.0754925099451,275.2123,0.1345286,-1,23.46983528137207,200,-9999,11218.399191375,0.9674224853515625,0.09912109375,-0.135406494140625,11218.394125375,-3.107042158259996,1.436396547810973,-0.09900271038780539,-0.001874413341283798,0.004314308986067772,1.04028731584549e-06,-0.02315378189086914,0.001439929008483887,-0.002825379371643066,2,0.6564813137289479,0.0486064965932102,-0.7525204281126532,-0.01956361594669824,0.9861293435096741,0.09884105622768402,-0.1333393901586533,38.51050567626953,4.778278350830078,-21.35369873046875,2,11217.1933525,2,0,1580907501.434519,1580903939.50652,2435,0.4661743,0,0,2995.009,10,12,1580907483.189245,11215.867198,0,10.5455,97.08067
1580907502.636728,140,0,1580907286.99823,41.20781296037784,29.0754925099451,275.2123,0.1345286,-1,23.46983528137207,200,-9999,11218.409232375,0.9671783447265625,0.0994110107421875,-0.13531494140625,11218.404166375,-3.107023040248729,1.436494074015428,-0.09900767293057632,-0.002392257563769817,0.009354909881949425,-0.0009988141246140003,-0.02066385746002197,1.59144401550293e-05,-0.003364384174346924,2,0.6565174278369666,0.04861368302493938,-0.7524885794626467,-0.01956042173069406,0.9861419200897217,0.09884599596261978,-0.1332431584596634,38.51050567626953,4.778278350830078,-21.35369873046875,2,11217.1933525,2,0,1580907501.434519,1580903939.50652,2435,0.4661743,0,0,2995.009,10,12,1580907483.189245,11215.867198,0,10.5455,97.08067
1580907502.638018,141,0,1580907286.99823,41.20781296037784,29.0754925099451,275.2123,0.1345286,-1,23.46983528137207,200,-9999,11218.419272375,0.9666595458984375,0.09881591796875,-0.134674072265625,11218.414206375,-3.107006672804959,1.436633283478343,-0.09899728225353206,-0.001328857615590096,0.01452836766839027,0.001472066156566143,-0.02205687761306763,0.0004840344190597534,-0.005394160747528076,2,0.6565696505350177,0.04861378968010961,-0.7524430397585603,-0.01955424143363592,0.9861612915992737,0.09883566200733185,-0.133105993270874,38.71574401855469,4.727619171142578,-21.34765625,2,11217.1933525,2,0,1580907501.434519,1580903939.50652,2435,0.4661743,0,0,2995.009,10,12,1580907483.189245,11215.867198,0,10.5455,97.08067
1580907502.639103,142,0,1580907286.99823,41.20781296037784,29.0754925099451,275.2123,0.1345286,-1,23.46983528137207,200,-9999,11218.429312375,0.9676055908203125,0.09844970703125,-0.134246826171875,11218.424277375,-3.106994505194831,1.436787585011199,-0.09898477853154773,-0.001488818787038326,0.0154489204287529,0.0009681032970547676,-0.02188026905059814,-0.0002358853816986084,-0.004218876361846924,2,0.6566276776587764,0.04861158099590493,-0.752392845232208,-0.01954928583023595,0.9861832857131958,0.09882321208715439,-0.132954016327858,38.71574401855469,4.727619171142578,-21.34765625,2,11217.1933525,2,0,1580907501.434519,1580903939.50652,2435,0.4661743,0,0,2995.009,10,12,1580907483.189245,11215.867198,0,10.5455,97.08067
1580907502.646644,143,0,1580907286.99823,41.20781296037784,29.0754925099451,275.2123,0.1345286,-1,23.46983528137207,200,-9999,11218.439352375,0.9721221923828125,0.09796142578125,-0.1314849853515625,11218.434317375,-3.106980759372637,1.436924792791467,-0.09896725749714907,-0.001564718782901764,0.01507794111967087,0.001986229792237282,-0.0221748948097229,-0.0002794563770294189,-0.004354476928710938,2,0.6566793660364911,0.04860817052784365,-0.7523480353038217,-0.01954169617108228,0.9862030744552612,0.09880577772855759,-0.1328189074993134,38.69247436523438,4.679998397827148,-21.30377197265625,2,11217.1933525,2,0,1580907501.434519,1580903939.50652,2435,0.4661743,0,0,2995.009,10,12,1580907483.189245,11215.867198,0,10.5455,97.08067
1580907502.656671,144,0,1580907286.99823,41.20781296037784,29.0754925099451,275.2123,0.1345286,-1,23.46983528137207,200,-9999,11218.449393375,0.971466064453125,0.0983734130859375,-0.1315155029296875,11218.444357375,-3.106963295783996,1.436992775377279,-0.09898569909567261,-0.00151085015386343,0.005913158878684044,-0.002095411997288465,-0.0180928111076355,-0.001259148120880127,-0.002041459083557129,2,0.6567040895993738,0.04862016795558412,-0.7523257186720361,-0.01954284026005243,0.9862104058265686,0.09882412850856781,-0.1327516287565231,38.56885528564453,4.713264465332031,-21.51318359375,2,11217.1933525,2,0,1580907501.434519,1580903939.50652,2435,0.4661743,0,0,2995.009,10,12,1580907483.189245,11215.867198,0,10.5455,97.08067
1580907502.66711,145,0,1580907286.99823,41.20781296037784,29.0754925099451,275.2123,0.1345286,-1,23.46983528137207,200,-9999,11218.459433375,0.968658447265625,0.098297119140625,-0.131988525390625,11218.454398375,-3.106944110687636,1.437037147719756,-0.09902240164276564,-0.002898090984672308,0.005083849653601646,-0.002974787726998329,-0.01682859659194946,-0.0006091371178627014,-0.0002090930938720703,2,0.6567194797113906,0.04863981875246283,-0.7523108280916176,-0.01954878057106438,0.9862126708030701,0.09886065125465393,-0.1327073872089386,38.56885528564453,4.713264465332031,-21.51318359375,2,11217.1933525,2,0,1580907501.434519,1580903939.50652,2435,0.4661743,0,0,2995.009,10,12,1580907483.189245,11215.867198,0,10.5455,97.08067
1580907502.693636,146,0,1580907286.99823,41.20781296037784,29.0754925099451,275.2123,0.1345286,-1,23.46983528137207,200,-9999,11218.469504375,0.9716644287109375,0.0991973876953125,-0.1290283203125,11218.464438375,-3.106928952622529,1.436989926773817,-0.0990593952096125,-0.002172795590013266,-0.005366560071706772,-0.004362392704933882,-0.01974838972091675,-0.0008596628904342651,-0.002710998058319092,2,0.6567005048296054,0.04865915218015396,-0.7523260029280042,-0.01955410100749472,0.9862027764320374,0.09889746457338333,-0.13275346159935,38.62492370605469,4.749576568603516,-21.390380859375,2,11217.1933525,2,0,1580907501.434519,1580903939.50652,2435,0.4661743,0,0,2995.009,10,12,1580907483.189245,11215.867198,0,10.5455,97.08067
1580907502.694991,147,0,1580907286.99823,41.20781296037784,29.0754925099451,275.2123,0.1345286,-1,23.46983528137207,200,-9999,11218.479544375,0.9637451171875,0.09893798828125,-0.135284423828125,11218.474478375,-3.106903728595935,1.436925498417889,-0.09907745197326166,-0.003499049693346024,-0.006955401040613651,-0.001994043588638306,-0.01796793937683105,-0.000160515308380127,0.001701116561889648,2,0.656675246574565,0.0486748457438053,-0.7523471181793497,-0.01954898974149503,0.9861923456192017,0.09891543537378311,-0.1328167617321014,38.62492370605469,4.749576568603516,-21.390380859375,2,11217.1933525,2,0,1580907501.434519,1580903939.50652,2435,0.4661743,0,0,2995.009,10,12,1580907483.189245,11215.867198,0,10.5455,97.08067
1580907502.696916,148,0,1580907286.99823,41.20781296037784,29.0754925099451,275.2123,0.1345286,-1,23.46983528137207,200,-9999,11218.489584375,0.962615966796875,0.0997772216796875,-0.1349639892578125,11218.484518375,-3.106907231223621,1.436938068333045,-0.09906815690957295,0.0009739967063069344,0.001677088439464569,0.0008092047646641731,-0.02230411767959595,-0.0001512542366981506,-0.003102421760559082,2,0.6566802669888905,0.04867008251431806,-0.752343160851444,-0.01954754812618099,0.9861950278282166,0.09890618920326233,-0.1328044980764389,38.55403137207031,4.628677368164062,-21.4710693359375,2,11217.1933525,2,0,1580907501.434519,1580903939.50652,2435,0.4661743,0,0,2995.009,10,12,1580907483.189245,11215.867198,0,10.5455,97.08067
1580907502.706834,149,0,1580907286.99823,41.20781296037784,29.0754925099451,275.2123,0.1345286,-1,23.46983528137207,200,-9999,11218.499625375,0.9669647216796875,0.0997314453125,-0.1335296630859375,11218.494559375,-3.10690640182902,1.436977825914325,-0.09903227640450923,-0.0008976729586720467,0.003594297915697098,0.003731757402420044,-0.02731788158416748,-0.0001001954078674316,-0.005567550659179688,2,0.6566960243907652,0.04865648887935339,-0.7523305222950012,-0.01953640398755153,0.9862037897109985,0.09887047857046127,-0.1327657550573349,38.55403137207031,4.628677368164062,-21.4710693359375,2,11217.1933525,2,0,1580907501.434519,1580903939.50652,2435,0.4661743,0,0,2995.009,10,12,1580907483.189245,11215.867198,0,10.5455,97.08067
1580907502.717047,150,0,1580907286.99823,41.20781296037784,29.0754925099451,275.2123,0.1345286,-1,23.46983528137207,200,-9999,11218.509665375,0.969451904296875,0.0985107421875,-0.1334075927734375,11218.504630375,-3.106910696128427,1.437017422447808,-0.09897885312814968,0.0001086397096514702,0.003721049055457115,0.006074093282222748,-0.0229184627532959,0.001204364001750946,-0.003210067749023438,2,0.656712243773262,0.04863462619143569,-0.7523181374407474,-0.01952140899042025,0.9862142205238342,0.09881731867790222,-0.1327273994684219,38.44979858398438,4.84428596496582,-21.4671630859375,2,11217.1933525,2,0,1580907501.434519,1580903939.50652,2435,0.4661743,0,0,2995.009,10,12,1580907483.189245,11215.867198,0,10.5455,97.08067
1580907502.726821,151,0,1580907286.99823,41.20781296037784,29.0754925099451,275.2123,0.1345286,-1,23.46983528137207,200,-9999,11218.519705375,0.9701690673828125,0.0995330810546875,-0.1333465576171875,11218.514670375,-3.10692926787681,1.437066164124948,-0.09895630744794073,0.001394147984683514,0.004304813221096992,0.001580541022121906,-0.02022624015808105,-0.0003753155469894409,-0.003029048442840576,2,0.6567315389231346,0.04861958511157817,-0.7523023171253279,-0.01952215588171838,0.9862229824066162,0.09879488497972488,-0.1326796412467957,38.44979858398438,4.84428596496582,-21.4671630859375,2,11217.1933525,2,0,1580907501.434519,1580903939.50652,2435,0.4661743,0,0,2995.009,10,12,1580907483.189245,11215.867198,0,10.5455,97.08067
1580907502.752753,152,0,1580907286.99823,41.20781296037784,29.0754925099451,275.2123,0.1345286,-1,23.46983528137207,200,-9999,11218.529745375,0.9715728759765625,0.098297119140625,-0.1331939697265625,11218.524710375,-3.106959680927317,1.43712327624027,-0.09896461814730802,0.002344087697565556,0.00510898046195507,-0.001771044451743364,-0.019134521484375,0.000135175883769989,-0.003345131874084473,2,0.6567535731863902,0.04861216165236186,-0.7522831294812949,-0.01953772077816068,0.9862297177314758,0.09880315512418747,-0.1326232105493546,38.53818511962891,4.608297348022461,-21.49658203125,2,11217.1933525,2,0,1580907501.434519,1580903939.50652,2435,0.4661743,0,0,2995.009,10,12,1580907483.189245,11215.867198,0,10.5455,97.08067
1580907502.754112,153,0,1580907286.99823,41.20781296037784,29.0754925099451,275.2123,0.1345286,-1,23.46983528137207,200,-9999,11218.539786375,0.969482421875,0.0981903076171875,-0.134857177734375,11218.534750375,-3.106983205269607,1.437211071796515,-0.09898526733793044,0.001787221059203148,0.009345270693302155,-0.001482091378420591,-0.01754200458526611,-0.0003279298543930054,-0.002684593200683594,2,0.6567866960314429,0.04861133402365792,-0.7522538226172808,-0.01955549546596852,0.9862393736839294,0.09882370382547379,-0.1325363516807556,38.53818511962891,4.608297348022461,-21.49658203125,2,11217.1933525,2,0,1580907501.434519,1580903939.50652,2435,0.4661743,0,0,2995.009,10,12,1580907483.189245,11215.867198,0,10.5455,97.08067
1580907502.757143,154,0,1580907286.99823,41.20781296037784,29.0754925099451,275.2123,0.1345286,-1,23.46983528137207,200,-9999,11218.549857375,0.9691619873046875,0.09857177734375,-0.132598876953125,11218.544791375,-3.107009515410606,1.437311978206413,-0.09901883863315075,0.002291283570230007,0.009418023750185966,-0.003415460232645273,-0.01845246553421021,-0.001185409724712372,-0.004844784736633301,2,0.6568245207549379,0.04861431480081718,-0.7522200330871758,-0.01957888698904096,0.9862495064735413,0.09885711222887039,-0.1324363946914673,38.50924682617188,4.693698883056641,-21.40771484375,2,11217.1933525,2,0,1580907501.434519,1580903939.50652,2435,0.4661743,0,0,2995.009,10,12,1580907483.189245,11215.867198,0,10.5455,97.08067
1580907502.767165,155,0,1580907286.99823,41.20781296037784,29.0754925099451,275.2123,0.1345286,-1,23.46983528137207,200,-9999,11218.559897375,0.96942138671875,0.0977630615234375,-0.133819580078125,11218.554831375,-3.10701293119229,1.437423341748572,-0.09903866891037984,-0.0003013042733073235,0.01222765818238258,-0.0008561625145375729,-0.02005225419998169,-0.0001828521490097046,-0.002971529960632324,2,0.656866034948061,0.0486195496616128,-0.7521831818170382,-0.01958940311242333,0.986262321472168,0.09887684136629105,-0.1323263049125671,38.50924682617188,4.693698883056641,-21.40771484375,2,11217.1933525,2,0,1580907501.434519,1580903939.50652,2435,0.4661743,0,0,2995.009,10,12,1580907483.189245,11215.867198,0,10.5455,97.08067
1580907502.777686,156,0,1580907286.99823,41.20781296037784,29.0754925099451,275.2123,0.1345286,-1,23.46983528137207,200,-9999,11218.569937375,0.97149658203125,0.0989990234375,-0.130584716796875,11218.564871375,-3.107002964360182,1.437462082298543,-0.09906090591133258,-0.001400390639901161,0.00354495458304882,-0.002120099030435085,-0.01991772651672363,-0.001303680241107941,-0.004123985767364502,2,0.65687986243316,0.04863079293675283,-0.752170160512751,-0.01959392352155551,0.9862651228904724,0.09889896959066391,-0.132287785410881,38.59696960449219,4.896020889282227,-21.58917236328125,2,11217.1933525,2,0,1580907501.434519,1580903939.50652,2435,0.4661743,0,0,2995.009,10,12,1580907483.189245,11215.867198,0,10.5455,97.08067
1580907502.787255,157,0,1580907286.99823,41.20781296037784,29.0754925099451,275.2123,0.1345286,-1,23.46983528137207,200,-9999,11218.579977375,0.969482421875,0.0995635986328125,-0.1314849853515625,11218.574911375,-3.107001177384763,1.437447293516017,-0.09906589448688299,0.0004481095820665359,-0.0006444640457630157,-0.0004870481789112091,-0.01771801710128784,-0.0006677806377410889,-0.001103460788726807,2,0.6568741429531054,0.04863339813862531,-0.7521749776171757,-0.01959453292086591,0.9862626791000366,0.09890393167734146,-0.1323022991418839,38.59696960449219,4.896020889282227,-21.58917236328125,2,11217.1933525,2,0,1580907501.434519,1580903939.50652,2435,0.4661743,0,0,2995.009,10,12,1580907483.189245,11215.867198,0,10.5455,97.08067
1580907502.815415,158,0,1580907286.99823,41.20781296037784,29.0754925099451,275.2123,0.1345286,-1,23.46983528137207,200,-9999,11218.590018375,0.9692230224609375,0.0998382568359375,-0.131134033203125,11218.584982375,-3.106986895800226,1.437362249405341,-0.09905371768037283,-0.0006599482148885727,-0.009496220387518406,0.0012423200532794,-0.0190504789352417,0.0007024109363555908,-0.001415729522705078,2,0.6568420858676784,0.04863434932651085,-0.7522032499056553,-0.01958308286913776,0.9862526655197144,0.09889181703329086,-0.1323863416910172,38.53996276855469,4.808845520019531,-21.5533447265625,2,11217.1933525,2,0,1580907501.434519,1580903939.50652,2435,0.4661743,0,0,2995.009,10,12,1580907483.189245,11215.867198,0,10.5455,97.08067
1580907502.81673,159,0,1580907286.99823,41.20781296037784,29.0754925099451,275.2123,0.1345286,-1,23.46983528137207,200,-9999,11218.600058375,0.9649200439453125,0.098876953125,-0.134185791015625,11218.595023375,-3.106970910715956,1.437278729348085,-0.09901776557128099,-0.000103081576526165,-0.009108996018767357,0.003898822702467442,-0.01948565244674683,0.0004941299557685852,-0.0009514689445495605,2,0.6568111053406076,0.04862691457819778,-0.7522312818819584,-0.01956321118359633,0.9862450957298279,0.09885603934526443,-0.1324691921472549,38.53996276855469,4.808845520019531,-21.5533447265625,2,11217.1933525,2,0,1580907501.434519,1580903939.50652,2435,0.4661743,0,0,2995.009,10,12,1580907483.189245,11215.867198,0,10.5455,97.08067
1580907502.817723,160,0,1580907286.99823,41.20781296037784,29.0754925099451,275.2123,0.1345286,-1,23.46983528137207,200,-9999,11218.610098375,0.96539306640625,0.0983734130859375,-0.1340484619140625,11218.605063375,-3.106957663172818,1.43724578272304,-0.09894208326141435,0.0008291834965348244,-0.002826057374477386,0.008951998315751553,-0.02260154485702515,0.0002644807100296021,-0.003054022789001465,2,0.656800114786819,0.04860316454805412,-0.7522432325954009,-0.01953252261225537,0.9862481951713562,0.09878072887659073,-0.1325026899576187,38.42266082763672,4.784400939941406,-21.55255126953125,2,11217.1933525,2,0,1580907501.434519,1580903939.50652,2435,0.4661743,0,0,2995.009,10,12,1580907483.189245,11215.867198,0,10.5455,97.08067
1580907502.827592,161,0,1580907286.99823,41.20781296037784,29.0754925099451,275.2123,0.1345286,-1,23.46983528137207,200,-9999,11218.620139375,0.9661102294921875,0.098876953125,-0.1329498291015625,11218.615103375,-3.106935912776637,1.437219703821735,-0.09885578306384271,-0.001198546960949898,-0.00356987863779068,0.009282763116061687,-0.02425456047058105,-0.0007175132632255554,-0.004613995552062988,2,0.6567917389937067,0.04857815164375904,-0.7522531911693269,-0.01949530590489608,0.9862532615661621,0.09869485348463058,-0.1325295567512512,38.42266082763672,4.784400939941406,-21.55255126953125,2,11217.1933525,2,0,1580907501.434519,1580903939.50652,2435,0.4661743,0,0,2995.009,10,12,1580907483.189245,11215.867198,0,10.5455,97.08067
1580907502.837441,162,0,1580907286.99823,41.20781296037784,29.0754925099451,275.2123,0.1345286,-1,23.46983528137207,200,-9999,11218.630209375,0.9668731689453125,0.0976104736328125,-0.134246826171875,11218.625143375,-3.106926399093238,1.43724011219655,-0.09878468485465094,0.0007197931408882141,0.002054428681731224,0.007508218288421631,-0.02266204357147217,-0.0001582950353622437,-0.002680122852325439,2,0.6568008053523796,0.0485543749244023,-0.7522474603697479,-0.01946883204495597,0.9862628579139709,0.0986241027712822,-0.1325103491544724,38.31324768066406,4.86456298828125,-21.8385009765625,2,11217.1933525,2,0,1580907501.434519,1580903939.50652,2435,0.4661743,0,0,2995.009,10,12,1580907483.189245,11215.867198,0,10.5455,97.08067
