loggingTime,loggingSample,identifierForVendor,locationTimestamp_since1970,locationLatitude,locationLongitude,locationAltitude,locationSpeed,locationCourse,locationVerticalAccuracy,locationHorizontalAccuracy,locationFloor,accelerometerTimestamp_sinceReboot,accelerometerAccelerationX,accelerometerAccelerationY,accelerometerAccelerationZ,motionTimestamp_sinceReboot,motionYaw,motionRoll,motionPitch,motionRotationRateX,motionRotationRateY,motionRotationRateZ,motionUserAccelerationX,motionUserAccelerationY,motionUserAccelerationZ,motionAttitudeReferenceFrame,motionQuaternionX,motionQuaternionY,motionQuaternionZ,motionQuaternionW,motionGravityX,motionGravityY,motionGravityZ,motionMagneticFieldX,motionMagneticFieldY,motionMagneticFieldZ,motionMagneticFieldCalibrationAccuracy,activityTimestamp_sinceReboot,activity,activityActivityConfidence,activityActivityStartDate,pedometerStartDate,pedometerNumberofSteps,pedometerAverageActivePace,pedometerCurrentPace,pedometerCurrentCadence,pedometerDistance,pedometerFloorAscended,pedometerFloorDescended,pedometerEndDate,altimeterTimestamp_sinceReboot,altimeterReset,altimeterRelativeAltitude,altimeterPressure
1582558925.536231,1,0,1582558924.101911,41.20571571532863,29.07209573896938,177.4582,0.1516938,215.3431330578894,3,6.000906205260658,-9999,106015.3311955417,0.974945068359375,0.09222412109375,-0.0898895263671875,106015.3251525417,-2.269407349985765,1.482193231308861,-0.08945748617568275,-0.004990132059901953,-0.02863132953643799,0.005445752292871475,-0.01267212629318237,0.003949254751205444,0.008567750453948975,2,0.5973687003541976,0.3147760240245884,-0.6807658307178251,0.2839446600543802,0.9920943379402161,0.08933822065591812,-0.08813337981700897,52.03351593017578,-27.22281646728516,-1.48895263671875,2,106014.9950745417,4,1,1582558925.167149,1582558685.643339,11,0.6387488,0,0,10.91,0,0,1582558765.788069,106012.373101,0,5.786682,99.29585
1582558925.537681,2,0,1582558924.101911,41.20571571532863,29.07209573896938,177.4582,0.1516938,215.3431330578894,3,6.000906205260658,-9999,106015.3412355417,0.9636993408203125,0.0888671875,-0.1027374267578125,106015.3351925417,-2.269318401017053,1.481928537796639,-0.08935606360825844,-0.007101105526089668,-0.02807046100497246,0.01117644179612398,-0.01851725578308105,0.002387046813964844,-0.005267918109893799,2,0.5972817805185828,0.3147317660098825,-0.6808193083403978,0.2840482810322425,0.9920799732208252,0.08923719823360443,-0.08839678019285202,52.15637969970703,-26.91896057128906,-1.47344970703125,2,106014.9950745417,4,1,1582558925.167149,1582558685.643339,11,0.6387488,0,0,10.91,0,0,1582558765.788069,106012.373101,0,5.786682,99.29585
1582558925.538782,3,0,1582558924.101911,41.20571571532863,29.07209573896938,177.4582,0.1516938,215.3431330578894,3,6.000906205260658,-9999,106015.3512755417,0.9636383056640625,0.0896759033203125,-0.1005401611328125,106015.3452335417,-2.269215528608282,1.48182087680563,-0.0892212866285286,-0.007316821720451117,-0.008055739104747772,0.01297514047473669,-0.0299028754234314,-0.0006982386112213135,-0.01529204845428467,2,0.5972517815879782,0.3147030108272211,-0.6808196149657834,0.284142312729971,0.9920823574066162,0.08910296112298965,-0.08850464969873428,52.15637969970703,-26.91896057128906,-1.47344970703125,2,106014.9950745417,4,1,1582558925.167149,1582558685.643339,11,0.6387488,0,0,10.91,0,0,1582558765.788069,106012.373101,0,5.786682,99.29585
1582558925.539965,4,0,1582558924.101911,41.20571571532863,29.07209573896938,177.4582,0.1516938,215.3431330578894,3,6.000906205260658,-9999,106015.3613155417,0.9702606201171875,0.091064453125,-0.09686279296875,106015.3552735417,-2.269126787893991,1.481783006832528,-0.08907794973139112,-0.007187715265899897,-0.001955149695277214,0.01542394235730171,-0.02750134468078613,0.001092523336410522,-0.01105690002441406,2,0.5972491605496604,0.314677219123058,-0.6808001775677827,0.2842234389762547,0.992091953754425,0.0889601930975914,-0.08854337781667709,52.18956756591797,-26.9096565246582,-1.701568603515625,2,106014.9950745417,4,1,1582558925.167149,1582558685.643339,11,0.6387488,0,0,10.91,0,0,1582558765.788069,106012.373101,0,5.786682,99.29585
1582558925.541589,5,0,1582558924.101911,41.20571571532863,29.07209573896938,177.4582,0.1516938,215.3431330578894,3,6.000906205260658,-9999,106015.371353375,0.97705078125,0.09051513671875,-0.09405517578125,106015.3653135417,-2.269058742194564,1.481719146103496,-0.08896241520917673,-0.005677170120179653,-0.005957081913948059,0.01218580454587936,-0.02047169208526611,0.002001047134399414,-0.007925868034362793,2,0.5972363151124285,0.3146505527800565,-0.6807947216256267,0.2842926215229479,0.9920963048934937,0.08884511888027191,-0.08860762417316437,52.18956756591797,-26.9096565246582,-1.701568603515625,2,106014.9950745417,4,1,1582558925.167149,1582558685.643339,11,0.6387488,0,0,10.91,0,0,1582558765.788069,106012.373101,0,5.786682,99.29585
1582558925.564806,6,0,1582558924.101911,41.20571571532863,29.07209573896938,177.4582,0.1516938,215.3431330578894,3,6.000906205260658,-9999,106015.381393375,0.977783203125,0.0897369384765625,-0.09375,106015.375381375,-2.269024074381514,1.481605737443446,-0.08890306051937034,-0.002325050067156553,-0.01196916960179806,0.005262198857963085,-0.01468366384506226,0.001541405916213989,-0.005020260810852051,2,0.5972022897363719,0.3146253578972288,-0.6808161500913934,0.2843408842674449,0.9920916557312012,0.08878599852323532,-0.08872061967849731,52.21848297119141,-27.2708740234375,-1.654754638671875,2,106014.9950745417,4,1,1582558925.167149,1582558685.643339,11,0.6387488,0,0,10.91,0,0,1582558765.788069,106012.373101,0,5.786682,99.29585
1582558925.56582,7,0,1582558924.101911,41.20571571532863,29.07209573896938,177.4582,0.1516938,215.3431330578894,3,6.000906205260658,-9999,106015.391433375,0.979095458984375,0.089508056640625,-0.0939788818359375,106015.385421375,-2.268994002743455,1.481499938869589,-0.08887273311638326,-0.003469143994152546,-0.008056718856096268,0.003966571763157845,-0.01475316286087036,0.0007628798484802246,-0.005403399467468262,2,0.5971666876149296,0.314609343913043,-0.6808395687734682,0.2843772093548376,0.9920848608016968,0.08875578641891479,-0.08882581442594528,52.21848297119141,-27.2708740234375,-1.654754638671875,2,106014.9950745417,4,1,1582558925.167149,1582558685.643339,11,0.6387488,0,0,10.91,0,0,1582558765.788069,106012.373101,0,5.786682,99.29585
1582558925.569537,8,0,1582558924.101911,41.20571571532863,29.07209573896938,177.4582,0.1516938,215.3431330578894,3,6.000906205260658,-9999,106015.401473375,0.9793701171875,0.0899505615234375,-0.0923004150390625,106015.395462375,-2.268973558101742,1.48130493224827,-0.08887039580413762,-0.001227656845003366,-0.0192935261875391,0.000435712281614542,-0.0123252272605896,0.0008873045444488525,-0.004614591598510742,2,0.5970974661016287,0.3145869736826036,-0.6808946371328459,0.2844156324207606,0.992067813873291,0.08875346183776855,-0.08901930600404739,52.18659210205078,-27.4417610168457,-1.51617431640625,2,106014.9950745417,4,1,1582558925.167149,1582558685.643339,11,0.6387488,0,0,10.91,0,0,1582558765.788069,106012.373101,0,5.786682,99.29585
1582558925.579652,9,0,1582558924.101911,41.20571571532863,29.07209573896938,177.4582,0.1516938,215.3431330578894,3,6.000906205260658,-9999,106015.411514375,0.96923828125,0.0884246826171875,-0.0977935791015625,106015.405502375,-2.268943509852039,1.481064054059275,-0.08888810261865018,-0.002199444221332669,-0.02635250054299831,-0.001425837632268667,-0.0142398476600647,0.001113831996917725,-0.003521084785461426,2,0.5970077208060076,0.314567504260921,-0.6809645634674145,0.2844582557075754,0.9920448660850525,0.08877109736204147,-0.08925813436508179,52.08692169189453,-27.07843017578125,-1.635345458984375,2,106014.9950745417,4,1,1582558925.167149,1582558685.643339,11,0.6387488,0,0,10.91,0,0,1582558765.788069,106012.373101,0,5.786682,99.29585
1582558925.589958,10,0,1582558924.101911,41.20571571532863,29.07209573896938,177.4582,0.1516938,215.3431330578894,3,6.000906205260658,-9999,106015.421554375,0.96142578125,0.0887603759765625,-0.1037750244140625,106015.415542375,-2.268902064865091,1.48099119581214,-0.0888939538974277,-0.004102406091988087,-0.003950376063585281,0.0007320139557123184,-0.0255090594291687,-0.000738292932510376,-0.01048314571380615,2,0.5969754016928878,0.3145714334616742,-0.6809811697666245,0.2844820068771657,0.992037832736969,0.08877692371606827,-0.08933036774396896,52.08692169189453,-27.07843017578125,-1.635345458984375,2,106014.9950745417,4,1,1582558925.167149,1582558685.643339,11,0.6387488,0,0,10.91,0,0,1582558765.788069,106012.373101,0,5.786682,99.29585
1582558925.60013,11,0,1582558924.101911,41.20571571532863,29.07209573896938,177.4582,0.1516938,215.3431330578894,3,6.000906205260658,-9999,106015.431594375,0.971527099609375,0.0903472900390625,-0.0962982177734375,106015.425582375,-2.268873872621621,1.480957512336802,-0.08888170038915739,-0.002807576674968004,-0.003231324255466461,0.001948279328644276,-0.02936756610870361,0.0005098581314086914,-0.01371502876281738,2,0.5969615780057055,0.3145710348266315,-0.6809856377745912,0.2845007169580157,0.9920358657836914,0.08876471966505051,-0.08936388045549393,51.99117279052734,-27.19964218139648,-1.6732177734375,2,106014.9950745417,4,1,1582558925.167149,1582558685.643339,11,0.6387488,0,0,10.91,0,0,1582558765.788069,106012.373101,0,5.786682,99.29585
1582558925.62486,12,0,1582558924.101911,41.20571571532863,29.07209573896938,177.4582,0.1516938,215.3431330578894,3,6.000906205260658,-9999,106015.441635375,0.9700469970703125,0.091705322265625,-0.0972900390625,106015.435623375,-2.268867822644609,1.480918810330856,-0.08885625475888023,-0.0006018799031153321,-0.00430401973426342,0.003002994228154421,-0.02005851268768311,0.00192376971244812,-0.00644373893737793,2,0.5969517606167722,0.3145589915723561,-0.6809930787746626,0.2845168070558193,0.9920346736907959,0.08873937278985977,-0.08940247446298599,51.99117279052734,-27.19964218139648,-1.6732177734375,2,106014.9950745417,4,1,1582558925.167149,1582558685.643339,11,0.6387488,0,0,10.91,0,0,1582558765.788069,106012.373101,0,5.786682,99.29585
1582558925.626699,13,0,1582558924.101911,41.20571571532863,29.07209573896938,177.4582,0.1516938,215.3431330578894,3,6.000906205260658,-9999,106015.451675375,0.9747314453125,0.09039306640625,-0.095550537109375,106015.445663375,-2.268878123471895,1.48089662066387,-0.08883925975448978,0.0008743102662265301,-0.001551376655697823,0.001527336891740561,-0.02239269018173218,0.003024041652679443,-0.008359670639038086,2,0.5969487359660597,0.3145471426588993,-0.6809988883078109,0.2845219714739821,0.9920340180397034,0.08872244507074356,-0.08942460268735886,52.12749481201172,-27.11059951782227,-1.523345947265625,2,106014.9950745417,4,1,1582558925.167149,1582558685.643339,11,0.6387488,0,0,10.91,0,0,1582558765.788069,106012.373101,0,5.786682,99.29585
1582558925.630441,14,0,1582558924.101911,41.20571571532863,29.07209573896938,177.4582,0.1516938,215.3431330578894,3,6.000906205260658,-9999,106015.461715375,0.9740753173828125,0.0891265869140625,-0.09698486328125,106015.455703375,-2.268893731215976,1.480847456954992,-0.08882439736176272,0.002317410428076982,-0.004564767703413963,0.002050545066595078,-0.01675897836685181,0.00132983922958374,-0.006067574024200439,2,0.5969369575730142,0.3145306327023242,-0.6810139233623382,0.2845290724420177,0.9920309782028198,0.08870764076709747,-0.08947350084781647,52.12749481201172,-27.11059951782227,-1.523345947265625,2,106014.9950745417,4,1,1582558925.167149,1582558685.643339,11,0.6387488,0,0,10.91,0,0,1582558765.788069,106012.373101,0,5.786682,99.29585
1582558925.639849,15,0,1582558924.101911,41.20571571532863,29.07209573896938,177.4582,0.1516938,215.3431330578894,3,6.000906205260658,-9999,106015.471755375,0.9739227294921875,0.0889739990234375,-0.0975189208984375,106015.465744375,-2.268903018238532,1.480804565145,-0.08881078826527021,0.001758679281920195,-0.003904303535819054,0.001786625944077969,-0.01887750625610352,0.0001226961612701416,-0.008176565170288086,2,0.5969261204907531,0.3145172940515439,-0.6810263032622494,0.284536897660833,0.9920283555984497,0.08869408816099167,-0.08951615542173386,52.12775421142578,-27.16754913330078,-1.7275390625,2,106014.9950745417,4,1,1582558925.167149,1582558685.643339,11,0.6387488,0,0,10.91,0,0,1582558765.788069,106012.373101,0,5.786682,99.29585
1582558925.650031,16,0,1582558924.101911,41.20571571532863,29.07209573896938,177.4582,0.1516938,215.3431330578894,3,6.000906205260658,-9999,106015.481796375,0.9747161865234375,0.089874267578125,-0.0969696044921875,106015.475784375,-2.268912128257119,1.480742830177437,-0.08880943958543616,0.0004201859119348228,-0.006599212065339088,-0.0003967396914958954,-0.01778852939605713,0.0003529489040374756,-0.007840454578399658,2,0.5969067535217674,0.314505358861403,-0.6810458742737335,0.2845439495314016,0.9920229315757751,0.08869274705648422,-0.08957741409540176,52.12775421142578,-27.16754913330078,-1.7275390625,2,106014.9950745417,4,1,1582558925.167149,1582558685.643339,11,0.6387488,0,0,10.91,0,0,1582558765.788069,106012.373101,0,5.786682,99.29585
1582558925.66005,17,0,1582558924.101911,41.20571571532863,29.07209573896938,177.4582,0.1516938,215.3431330578894,3,6.000906205260658,-9999,106015.491836375,0.97149658203125,0.0904541015625,-0.09796142578125,106015.485824375,-2.268917874109301,1.480680759106254,-0.08880233929346883,6.838233093731105e-05,-0.006417850032448769,0.0001763724721968174,-0.01816511154174805,0.001473903656005859,-0.007763564586639404,2,0.5968877241295448,0.3144924832700996,-0.6810643072287795,0.2845539665107129,0.9920180439949036,0.08868566900491714,-0.08963904529809952,52.17548370361328,-27.24504470825195,-1.511474609375,2,106014.9950745417,4,1,1582558925.167149,1582558685.643339,11,0.6387488,0,0,10.91,0,0,1582558765.788069,106012.373101,0,5.786682,99.29585
1582558925.688692,18,0,1582558924.101911,41.20571571532863,29.07209573896938,177.4582,0.1516938,215.3431330578894,3,6.000906205260658,-9999,106015.501876375,0.97259521484375,0.0910797119140625,-0.0971221923828125,106015.495864375,-2.268917255716088,1.480619967355121,-0.08877067515776939,-0.0001952624588739127,-0.005323071032762527,0.00304368045181036,-0.02089381217956543,0.001597017049789429,-0.008740603923797607,2,0.5968722847417571,0.314473642875895,-0.6810783395791493,0.2845736429641801,0.9920153617858887,0.08865413069725037,-0.08969960361719131,52.17548370361328,-27.24504470825195,-1.511474609375,2,106014.9950745417,4,1,1582558925.167149,1582558685.643339,11,0.6387488,0,0,10.91,0,0,1582558765.788069,106012.373101,0,5.786682,99.29585
1582558925.690461,19,0,1582558924.101911,41.20571571532863,29.07209573896938,177.4582,0.1516938,215.3431330578894,3,6.000906205260658,-9999,106015.511917375,0.971832275390625,0.090728759765625,-0.09698486328125,106015.505905375,-2.268926555587333,1.480552028908865,-0.08872739636232466,0.001552037545479834,-0.005964625626802444,0.004741445183753967,-0.01919782161712646,0.002830296754837036,-0.007055401802062988,2,0.5968579467546874,0.3144470036524811,-0.6810944040183468,0.2845946571158072,0.9920130968093872,0.08861102163791656,-0.08976734429597855,51.98503875732422,-27.48006820678711,-1.68133544921875,2,106014.9950745417,4,1,1582558925.167149,1582558685.643339,11,0.6387488,0,0,10.91,0,0,1582558765.788069,106012.373101,0,5.786682,99.29585
1582558925.691737,20,0,1582558924.101911,41.20571571532863,29.07209573896938,177.4582,0.1516938,215.3431330578894,3,6.000906205260658,-9999,106015.521987375,0.9719696044921875,0.0890655517578125,-0.098114013671875,106015.515945375,-2.268925259948199,1.480517180740005,-0.08870242527433704,-0.00026464115944691,-0.001990148797631264,0.002428342588245869,-0.02085989713668823,0.001634448766708374,-0.007936179637908936,2,0.5968501294409252,0.3144342087756382,-0.6811013515133374,0.2846082806703663,0.9920120239257812,0.08858615159988403,-0.0898021012544632,51.98503875732422,-27.48006820678711,-1.68133544921875,2,106014.9950745417,4,1,1582558925.167149,1582558685.643339,11,0.6387488,0,0,10.91,0,0,1582558765.788069,106012.373101,0,5.786682,99.29585
1582558925.700184,21,0,1582558924.101911,41.20571571532863,29.07209573896938,177.4582,0.1516938,215.3431330578894,3,6.000906205260658,-9999,106015.532028375,0.9714202880859375,0.09112548828125,-0.096954345703125,106015.525985375,-2.268900715499976,1.48046092941926,-0.08865075574510051,-0.003559770295396447,-0.006280235946178436,0.006787670776247978,-0.01976072788238525,0.0007857680320739746,-0.008017003536224365,2,0.5968358300960255,0.3144166389783901,-0.6811081850251556,0.2846417651278389,0.9920117259025574,0.08853468298912048,-0.08985833823680878,52.02600860595703,-27.25611114501953,-1.56640625,2,106014.9950745417,4,1,1582558925.167149,1582558685.643339,11,0.6387488,0,0,10.91,0,0,1582558765.788069,106012.373101,0,5.786682,99.29585
1582558925.710206,22,0,1582558924.101911,41.20571571532863,29.07209573896938,177.4582,0.1516938,215.3431330578894,3,6.000906205260658,-9999,106015.542068375,0.97015380859375,0.0913848876953125,-0.097930908203125,106015.536025375,-2.268897167545169,1.480422856464928,-0.08860241177144662,0.0006594507722184062,-0.003036351874470711,0.004228630568832159,-0.02157741785049438,0.003290534019470215,-0.007490813732147217,2,0.5968305322498977,0.3143963729795829,-0.6811127481647662,0.284663909441638,0.9920123815536499,0.08848652988672256,-0.08989647030830383,52.02600860595703,-27.25611114501953,-1.56640625,2,106014.9950745417,4,1,1582558925.167149,1582558685.643339,11,0.6387488,0,0,10.91,0,0,1582558765.788069,106012.373101,0,5.786682,99.29585
1582558925.720153,23,0,1582558924.101911,41.20571571532863,29.07209573896938,177.4582,0.1516938,215.3431330578894,3,6.000906205260658,-9999,106015.552108375,0.969940185546875,0.0898895263671875,-0.09881591796875,106015.546066375,-2.268893088674496,1.480424453841668,-0.08853956565507089,0.0003712967154569924,0.001149604097008705,0.00721589894965291,-0.0220102071762085,0.002483487129211426,-0.008346199989318848,2,0.5968410555105772,0.3143772452990613,-0.6811037631534185,0.2846847717831546,0.9920182228088379,0.08842393010854721,-0.08989540487527847,52.07056427001953,-27.18487930297852,-1.832550048828125,2,106014.9950745417,4,1,1582558925.167149,1582558685.643339,11,0.6387488,0,0,10.91,0,0,1582558765.788069,106012.373101,0,5.786682,99.29585
1582558925.75181,24,0,1582558924.101911,41.20571571532863,29.07209573896938,177.4582,0.1516938,215.3431330578894,3,6.000906205260658,-9999,106015.562149375,0.9707794189453125,0.09051513671875,-0.0983428955078125,106015.556106375,-2.268885087318457,1.480453575325551,-0.0884678265169692,-0.0002113310911227018,0.004614761099219322,0.007508030626922846,-0.0221564769744873,0.001639425754547119,-0.009045898914337158,2,0.5968618700204745,0.3143602478400779,-0.6810847695593601,0.2847053054135814,0.9920271039009094,0.08835247159004211,-0.08986708521842957,52.07056427001953,-27.18487930297852,-1.832550048828125,2,106014.9950745417,4,1,1582558925.167149,1582558685.643339,11,0.6387488,0,0,10.91,0,0,1582558765.788069,106012.373101,0,5.786682,99.29585
1582558925.753282,25,0,1582558924.101911,41.20571571532863,29.07209573896938,177.4582,0.1516938,215.3431330578894,3,6.000906205260658,-9999,106015.572189375,0.9727020263671875,0.090911865234375,-0.0971221923828125,106015.566146375,-2.268875191160415,1.48046442709403,-0.08837089391627215,-0.0004760492884088308,0.002180632203817368,0.01047852076590061,-0.02132672071456909,0.002315789461135864,-0.008430242538452148,2,0.5968804301647428,0.3143329548978255,-0.6810677460858726,0.2847372262989891,0.9920365810394287,0.08825591951608658,-0.08985709398984909,52.17418670654297,-27.27383041381836,-1.73382568359375,2,106014.9950745417,4,1,1582558925.167149,1582558685.643339,11,0.6387488,0,0,10.91,0,0,1582558765.788069,106012.373101,0,5.786682,99.29585
1582558925.754561,26,0,1582558924.101911,41.20571571532863,29.07209573896938,177.4582,0.1516938,215.3431330578894,3,6.000906205260658,-9999,106015.582229375,0.9758148193359375,0.089691162109375,-0.094573974609375,106015.576187375,-2.26886751862786,1.480431943564765,-0.08826186945820211,0.0003795525117311627,-0.00315219908952713,0.01102421991527081,-0.01875472068786621,0.002577006816864014,-0.006932318210601807,2,0.5968866144757167,0.3142948839027954,-0.681062479446454,0.2847790343519884,0.9920433163642883,0.08814731985330582,-0.08989018946886063,52.17418670654297,-27.27383041381836,-1.73382568359375,2,106014.9950745417,4,1,1582558925.167149,1582558685.643339,11,0.6387488,0,0,10.91,0,0,1582558765.788069,106012.373101,0,5.786682,99.29585
1582558925.76271,27,0,1582558924.101911,41.20571571532863,29.07209573896938,177.4582,0.1516938,215.3431330578894,3,6.000906205260658,-9999,106015.592269375,0.97564697265625,0.0901336669921875,-0.095550537109375,106015.586227375,-2.268863293305313,1.480348920852343,-0.08814733410561287,-0.0001932934683281928,-0.007611129432916641,0.01192197017371655,-0.01634645462036133,0.001439839601516724,-0.004758834838867188,2,0.5968771139633675,0.3142467019577745,-0.6810719003314154,0.2848291219848295,0.9920457005500793,0.08803322911262512,-0.08997344225645065,51.91539764404297,-27.03118133544922,-1.626312255859375,2,106014.9950745417,4,1,1582558925.167149,1582558685.643339,11,0.6387488,0,0,10.91,0,0,1582558765.788069,106012.373101,0,5.786682,99.29585
1582558925.77098,28,0,1582558924.101911,41.20571571532863,29.07209573896938,177.4582,0.1516938,215.3431330578894,3,6.000906205260658,-9999,106015.602310375,0.9773101806640625,0.091094970703125,-0.0941009521484375,106015.596267375,-2.268871676511742,1.480193481522902,-0.08802233124431127,0.001738996827043593,-0.01414227765053511,0.01277168467640877,-0.01648068428039551,0.002602070569992065,-0.005717217922210693,2,0.5968466255430662,0.3141811181666845,-0.6811036647416525,0.2848898672485595,0.9920428991317749,0.08790870755910873,-0.09012866020202637,51.91539764404297,-27.03118133544922,-1.626312255859375,2,106014.9950745417,4,1,1582558925.167149,1582558685.643339,11,0.6387488,0,0,10.91,0,0,1582558765.788069,106012.373101,0,5.786682,99.29585
1582558925.780506,29,0,1582558924.101911,41.20571571532863,29.07209573896938,177.4582,0.1516938,215.3431330578894,3,6.000906205260658,-9999,106015.612350375,0.97442626953125,0.091796875,-0.09619140625,106015.606307375,-2.268875716070342,1.479935084334019,-0.08787317428535443,0.002658586483448744,-0.02608549036085606,0.01537306047976017,-0.01482242345809937,0.003330498933792114,-0.00394892692565918,2,0.5967845169910846,0.3140941685331883,-0.681162303228202,0.2849756279017214,0.9920325875282288,0.08776012808084488,-0.09038618952035904,52.17778778076172,-26.98124694824219,-1.855438232421875,2,106014.9950745417,4,1,1582558925.167149,1582558685.643339,11,0.6387488,0,0,10.91,0,0,1582558765.788069,106012.373101,0,5.786682,99.29585
1582558925.802296,30,0,1582558924.101911,41.20571571532863,29.07209573896938,177.4582,0.1516938,215.3431330578894,3,6.000906205260658,-9999,106015.622390375,0.9671630859375,0.091888427734375,-0.09771728515625,106015.616348375,-2.268869909951111,1.479648017053829,-0.08767831669608234,0.001090326230041683,-0.02839058078825474,0.02021978422999382,-0.01939100027084351,0.004485905170440674,-0.006256580352783203,2,0.5967188495604708,0.3139910225572151,-0.6812221699042668,0.2850833935219022,0.9920234680175781,0.08756602555513382,-0.09067250788211823,52.17778778076172,-26.98124694824219,-1.855438232421875,2,106014.9950745417,4,1,1582558925.167149,1582558685.643339,11,0.6387488,0,0,10.91,0,0,1582558765.788069,106012.373101,0,5.786682,99.29585
1582558925.802901,31,0,1582558924.101911,41.20571571532863,29.07209573896938,177.4582,0.1516938,215.3431330578894,3,6.000906205260658,-9999,106015.632431375,0.9611358642578125,0.08660888671875,-0.1022186279296875,106015.626419375,-2.268864451160803,1.47940948799633,-0.08746019906458549,0.001540134195238352,-0.02439131215214729,0.02153006009757519,-0.02643781900405884,0.003696173429489136,-0.007376194000244141,2,0.5966736783732122,0.3138870626047471,-0.6812646943088767,0.2851907328003991,0.9920207858085632,0.08734873682260513,-0.09091086685657501,52.06360626220703,-26.93500900268555,-1.912506103515625,2,106014.9950745417,4,1,1582558925.167149,1582558685.643339,11,0.6387488,0,0,10.91,0,0,1582558765.788069,106012.373101,0,5.786682,99.29585
1582558925.810618,32,0,1582558924.101911,41.20571571532863,29.07209573896938,177.4582,0.1516938,215.3431330578894,3,6.000906205260658,-9999,106015.642471375,0.9616241455078125,0.084991455078125,-0.10693359375,106015.636459375,-2.268865742387491,1.479382036118127,-0.08726449094086301,0.002607092261314392,-0.0004204772412776947,0.0194869302213192,-0.03191506862640381,-0.001312077045440674,-0.01297789812088013,2,0.5966976601756745,0.3138185348264913,-0.6812480813671561,0.2852556609693942,0.9920352697372437,0.08715377748012543,-0.09093965590000153,52.06360626220703,-26.93500900268555,-1.912506103515625,2,106014.9950745417,4,1,1582558925.167149,1582558685.643339,11,0.6387488,0,0,10.91,0,0,1582558765.788069,106012.373101,0,5.786682,99.29585
1582558925.820424,33,0,1582558924.101911,41.20571571532863,29.07209573896938,177.4582,0.1516938,215.3431330578894,3,6.000906205260658,-9999,106015.652511375,0.9737701416015625,0.0831146240234375,-0.1007843017578125,106015.646499375,-2.268865259440938,1.479505352620686,-0.08713442594270714,0.001044083037413657,0.01240290887653828,0.01392491720616817,-0.02864176034927368,-0.001945406198501587,-0.01543378829956055,2,0.5967615795571154,0.3137936144160235,-0.6811946858962832,0.2852771434270312,0.9920579195022583,0.08702420443296432,-0.0908183678984642,52.15868377685547,-27.17682266235352,-1.55108642578125,2,106014.9950745417,4,1,1582558925.167149,1582558685.643339,11,0.6387488,0,0,10.91,0,0,1582558765.788069,106012.373101,0,5.786682,99.29585
1582558925.830574,34,0,1582558924.101911,41.20571571532863,29.07209573896938,177.4582,0.1516938,215.3431330578894,3,6.000906205260658,-9999,106015.662551375,0.9833831787109375,0.0810546875,-0.099212646484375,106015.656539375,-2.268864164693434,1.479701761665308,-0.0871503915321882,-0.001256717601791024,0.02100306749343872,-0.001636512111872435,-0.01649707555770874,-0.004768908023834229,-0.009998619556427002,2,0.5968256211368547,0.3138271626302513,-0.6811378851977429,0.2852416308098978,0.9920742511749268,0.08704011142253876,-0.09062337875366211,52.15868377685547,-27.17682266235352,-1.55108642578125,2,106014.9950745417,4,1,1582558925.167149,1582558685.643339,11,0.6387488,0,0,10.91,0,0,1582558765.788069,106012.373101,0,5.786682,99.29585
1582558925.840509,35,0,1582558924.101911,41.20571571532863,29.07209573896938,177.4582,0.1516938,215.3431330578894,3,6.000906205260658,-9999,106015.672592375,0.994293212890625,0.08453369140625,-0.0921630859375,106015.666580375,-2.268882018084335,1.479823707554296,-0.08732160269914864,-0.0004806724318768829,0.01316777989268303,-0.01759230904281139,-0.006300449371337891,-0.005641460418701172,-0.007877945899963379,2,0.5968409641786065,0.3138954245345597,-0.6811259564936795,0.2851630418237158,0.9920704960823059,0.08721067011356354,-0.09050105512142181,52.12494659423828,-27.20770263671875,-1.68084716796875,2,106014.9950745417,4,1,1582558925.167149,1582558685.643339,11,0.6387488,0,0,10.91,0,0,1582558765.788069,106012.373101,0,5.786682,99.29585
1582558925.852101,36,0,1582558924.101911,41.20571571532863,29.07209573896938,177.4582,0.1516938,215.3431330578894,3,6.000906205260658,-9999,106015.682632375,0.991546630859375,0.0869903564453125,-0.0904693603515625,106015.676620375,-2.268917605085599,1.479742470021718,-0.08760931997382135,0.001146817579865456,-0.008175360038876534,-0.02964229509234428,0.002551436424255371,-0.002327054738998413,-0.0006432533264160156,2,0.5967701770309514,0.3139676341633972,-0.6811920223226101,0.28507390122559,0.9920381307601929,0.0874972939491272,-0.09057936072349548,52.12494659423828,-27.20770263671875,-1.68084716796875,2,106014.9950745417,4,1,1582558925.167149,1582558685.643339,11,0.6387488,0,0,10.91,0,0,1582558765.788069,106012.373101,0,5.786682,99.29585
1582558925.860774,37,0,1582558924.101911,41.20571571532863,29.07209573896938,177.4582,0.1516938,215.3431330578894,3,6.000906205260658,-9999,106015.692672375,0.9751434326171875,0.0910186767578125,-0.09466552734375,106015.686660375,-2.268907593341107,1.479487306707218,-0.08789888315537754,-0.004923059139400721,-0.02674318663775921,-0.0293850339949131,-0.002832174301147461,-0.0004640817642211914,-0.0003312230110168457,2,0.596632658290794,0.3140292703041085,-0.6813036896210388,0.2850270237534159,0.9919897317886353,0.08778573572635651,-0.09083017706871033,52.09725189208984,-27.29367065429688,-1.676025390625,2,106014.9950745417,4,1,1582558925.167149,1582558685.643339,11,0.6387488,0,0,10.91,0,0,1582558765.788069,106012.373101,0,5.786682,99.29585
1582558925.87059,38,0,1582558924.101911,41.20571571532863,29.07209573896938,177.4582,0.1516938,215.3431330578894,3,6.000906205260658,-9999,106015.702712375,0.956634521484375,0.09466552734375,-0.1029510498046875,106015.696701375,-2.26887089365951,1.479239098904064,-0.08805596999275041,-0.005272378213703632,-0.02454683370888233,-0.01500647515058517,-0.02144205570220947,0.004475861787796021,-0.00528949499130249,2,0.5965157315436327,0.3140563904611959,-0.6813925349212632,0.2850294832520484,0.9919533729553223,0.0879422202706337,-0.09107512980699539,52.09725189208984,-27.29367065429688,-1.676025390625,2,106014.9950745417,4,1,1582558925.167149,1582558685.643339,11,0.6387488,0,0,10.91,0,0,1582558765.788069,106012.373101,0,5.786682,99.29585
1582558925.880737,39,0,1582558924.101911,41.20571571532863,29.07209573896938,177.4582,0.1516938,215.3431330578894,3,6.000906205260658,-9999,106015.712753375,0.955474853515625,0.0920562744140625,-0.1048736572265625,106015.706741375,-2.26880268770797,1.479111910081912,-0.08807330112978401,-0.007511830423027277,-0.01302360184490681,-0.0009950515814125538,-0.03711515665054321,0.006167590618133545,-0.01317429542541504,2,0.5964587260140033,0.3140643291585242,-0.6814230464255177,0.285067387321583,0.991940438747406,0.08795948326587677,-0.09120117127895355,52.06307220458984,-27.26484680175781,-1.531951904296875,2,106014.9950745417,4,1,1582558925.167149,1582558685.643339,11,0.6387488,0,0,10.91,0,0,1582558765.788069,106013.309225,0,5.828949,99.29535
1582558925.891036,40,0,1582558924.101911,41.20571571532863,29.07209573896938,177.4582,0.1516938,215.3431330578894,3,6.000906205260658,-9999,106015.722793375,0.963653564453125,0.0925750732421875,-0.10150146484375,106015.716781375,-2.268747664059728,1.479097891661445,-0.08799163148583346,-0.00433157104998827,0.001139311119914055,0.008658221922814846,-0.0355798602104187,0.004021108150482178,-0.01341933012008667,2,0.59645918652327,0.3140518801608519,-0.6814088239868792,0.28511365335611,0.9919460415840149,0.08787813037633896,-0.09121570736169815,52.06307220458984,-27.26484680175781,-1.531951904296875,2,106014.9950745417,4,1,1582558925.167149,1582558685.643339,11,0.6387488,0,0,10.91,0,0,1582558765.788069,106013.309225,0,5.828949,99.29535
1582558925.90076,41,0,1582558924.101911,41.20571571532863,29.07209573896938,177.4582,0.1516938,215.3431330578894,3,6.000906205260658,-9999,106015.732833375,0.97442626953125,0.0912322998046875,-0.0969390869140625,106015.726821375,-2.268706514470274,1.479100257580734,-0.08786351327941191,-0.003279622411355376,0.003123633563518524,0.01299517974257469,-0.0261918306350708,0.004759132862091064,-0.009468436241149902,2,0.5964752097088095,0.314022482717568,-0.6813859977540941,0.2851673749138609,0.9919576644897461,0.08775050938129425,-0.09121441096067429,52.17130279541016,-27.11518859863281,-1.637298583984375,2,106014.9950745417,4,1,1582558925.167149,1582558685.643339,11,0.6387488,0,0,10.91,0,0,1582558765.788069,106013.309225,0,5.828949,99.29535
1582558925.915199,42,0,1582558924.101911,41.20571571532863,29.07209573896938,177.4582,0.1516938,215.3431330578894,3,6.000906205260658,-9999,106015.742874375,0.9823150634765625,0.091094970703125,-0.0944671630859375,106015.736862375,-2.268675839134395,1.478996844475172,-0.08772315741935083,-0.00273660384118557,-0.01043132413178682,0.01494860835373402,-0.01574242115020752,0.003434181213378906,-0.005290627479553223,2,0.5964589342112662,0.3139708260578054,-0.681394566384535,0.285237859340051,0.9919604659080505,0.08761069178581238,-0.09131812304258347,52.17130279541016,-27.11518859863281,-1.637298583984375,2,106014.9950745417,4,1,1582558925.167149,1582558685.643339,11,0.6387488,0,0,10.91,0,0,1582558765.788069,106013.309225,0,5.828949,99.29535
1582558925.920874,43,0,1582558924.101911,41.20571571532863,29.07209573896938,177.4582,0.1516938,215.3431330578894,3,6.000906205260658,-9999,106015.752914375,0.9868927001953125,0.0878753662109375,-0.094085693359375,106015.746902375,-2.26869557497327,1.478773022781162,-0.08764890741163942,0.003101844107732177,-0.02138091064989567,0.006636882200837135,-0.008770346641540527,0.003263980150222778,-0.002977490425109863,2,0.5963983562544074,0.3139086382319378,-0.6814546344190282,0.2852894069773685,0.9919464588165283,0.08753672242164612,-0.09154073148965836,52.11637115478516,-27.00308227539062,-1.7841796875,2,106014.9950745417,4,1,1582558925.167149,1582558685.643339,11,0.6387488,0,0,10.91,0,0,1582558765.788069,106013.309225,0,5.828949,99.29535
1582558925.930837,44,0,1582558924.101911,41.20571571532863,29.07209573896938,177.4582,0.1516938,215.3431330578894,3,6.000906205260658,-9999,106015.762954375,0.9888458251953125,0.0872344970703125,-0.0937652587890625,106015.756942375,-2.268702779521962,1.478410934902911,-0.08766513847540845,-0.0002762225631158799,-0.03545141220092773,-0.00231832847930491,-0.004600703716278076,-0.0004600882530212402,-0.002404987812042236,2,0.596273373879979,0.3138601350995512,-0.6815656267174219,0.2853386379999494,0.9919117093086243,0.08755289763212204,-0.09189976006746292,52.11637115478516,-27.00308227539062,-1.7841796875,2,106014.9950745417,4,1,1582558925.167149,1582558685.643339,11,0.6387488,0,0,10.91,0,0,1582558765.788069,106013.309225,0,5.828949,99.29535
1582558925.941147,45,0,1582558924.101911,41.20571571532863,29.07209573896938,177.4582,0.1516938,215.3431330578894,3,6.000906205260658,-9999,106015.773025375,0.981231689453125,0.088836669921875,-0.09722900390625,106015.766983375,-2.268710974586448,1.477882528209757,-0.08772179427936599,0.0006944996421225369,-0.05439740419387817,-0.005486158654093742,-0.003784239292144775,7.858872413635254e-05,-0.001606583595275879,2,0.5960849465079049,0.3138009273496964,-0.6817316034629889,0.2854011731311125,0.991858184337616,0.08760933578014374,-0.09242343157529831,52.06168365478516,-27.31889343261719,-2.003173828125,2,106014.9950745417,4,1,1582558925.167149,1582558685.643339,11,0.6387488,0,0,10.91,0,0,1582558765.788069,106013.309225,0,5.828949,99.29535
1582558925.950959,46,0,1582558924.101911,41.20571571532863,29.07209573896938,177.4582,0.1516938,215.3431330578894,3,6.000906205260658,-9999,106015.783065375,0.9739837646484375,0.0913543701171875,-0.099273681640625,106015.777023375,-2.268734364112288,1.477304732941783,-0.08778046044362854,0.00283035496249795,-0.05716309696435928,-0.006165264640003443,-0.01303350925445557,0.001469671726226807,-0.005428552627563477,2,0.5958817053750238,0.3137307501961644,-0.6819145662408418,0.2854655216505639,0.9917994737625122,0.08766777068376541,-0.0929960161447525,52.06168365478516,-27.31889343261719,-2.003173828125,2,106014.9950745417,4,1,1582558925.167149,1582558685.643339,11,0.6387488,0,0,10.91,0,0,1582558765.788069,106013.309225,0,5.828949,99.29535
1582558925.961094,47,0,1582558924.101911,41.20571571532863,29.07209573896938,177.4582,0.1516938,215.3431330578894,3,6.000906205260658,-9999,106015.793106375,0.9762725830078125,0.0949859619140625,-0.096832275390625,106015.787063375,-2.268756533565452,1.476683008294218,-0.08777836561647102,0.002131541259586811,-0.05953331291675568,-0.0006005894392728806,-0.01798069477081299,0.004203110933303833,-0.005788326263427734,2,0.5956735194047401,0.3136347140685501,-0.6821026946481104,0.2855561559672747,0.9917416572570801,0.08766568452119827,-0.09361264854669571,52.09290313720703,-27.23097610473633,-1.7166748046875,2,106014.9950745417,4,1,1582558925.167149,1582558685.643339,11,0.6387488,0,0,10.91,0,0,1582558765.788069,106013.309225,0,5.828949,99.29535
1582558925.972126,48,0,1582558924.101911,41.20571571532863,29.07209573896938,177.4582,0.1516938,215.3431330578894,3,6.000906205260658,-9999,106015.803146375,0.9782562255859375,0.101470947265625,-0.0933074951171875,106015.797103375,-2.268810759703239,1.475896475698088,-0.08764017991979109,0.005759234074503183,-0.07821831852197647,0.01329413987696171,-0.01480597257614136,0.008750557899475098,-0.001527905464172363,2,0.595437146679626,0.3134608413947764,-0.6823270878438874,0.2857040547064669,0.991679847240448,0.0875280350446701,-0.09439381211996078,52.09290313720703,-27.23097610473633,-1.7166748046875,2,106014.9950745417,4,1,1582558925.167149,1582558685.643339,11,0.6387488,0,0,10.91,0,0,1582558765.788069,106013.309225,0,5.828949,99.29535
1582558925.981163,49,0,1582558924.101911,41.20571571532863,29.07209573896938,177.4582,0.1516938,215.3431330578894,3,6.000906205260658,-9999,106015.813186375,0.974853515625,0.098419189453125,-0.0959930419921875,106015.807144375,-2.268943820565874,1.474937719585858,-0.08737055999951088,0.01660256087779999,-0.09326517581939697,0.02614868432283401,-0.01383823156356812,0.01449716091156006,0.001652956008911133,2,0.5951765540191597,0.3131955768928334,-0.6825971422298289,0.2858927873091053,0.9916123151779175,0.087259441614151,-0.09534680098295212,52.09024810791016,-27.12807846069336,-1.797821044921875,2,106014.9950745417,4,1,1582558925.167149,1582558685.643339,11,0.6387488,0,0,10.91,0,0,1582558765.788069,106013.309225,0,5.828949,99.29535
1582558925.992035,50,0,1582558924.101911,41.20571571532863,29.07209573896938,177.4582,0.1516938,215.3431330578894,3,6.000906205260658,-9999,106015.823226375,0.966522216796875,0.090362548828125,-0.10443115234375,106015.817184375,-2.269075778460071,1.473882124880074,-0.0870197936596296,0.01705434545874596,-0.1052500754594803,0.0337396003305912,-0.01840579509735107,0.009536594152450562,-0.00115734338760376,2,0.5948963508163981,0.3128899406288773,-0.6828853691835008,0.2861220403897239,0.9915414452552795,0.08691000938415527,-0.09639643132686615,52.09024810791016,-27.12807846069336,-1.797821044921875,2,106014.9950745417,4,1,1582558925.167149,1582558685.643339,11,0.6387488,0,0,10.91,0,0,1582558765.788069,106013.309225,0,5.828949,99.29535
1582558926.001265,51,0,1582558924.101911,41.20571571532863,29.07209573896938,177.4582,0.1516938,215.3431330578894,3,6.000906205260658,-9999,106015.833267375,0.9617156982421875,0.0895233154296875,-0.109832763671875,106015.827224375,-2.269200996285777,1.472950545393773,-0.08662148745298236,0.01588415168225765,-0.0914413183927536,0.03894980996847153,-0.02669656276702881,0.003234893083572388,-0.008790373802185059,2,0.5946653180552059,0.3125882679029502,-0.6831296723870386,0.2863488317768267,0.991485595703125,0.0865132063627243,-0.0973234698176384,51.96634674072266,-27.29012680053711,-1.716400146484375,2,106014.9950745417,4,1,1582558925.167149,1582558685.643339,11,0.6387488,0,0,10.91,0,0,1582558765.788069,106013.309225,0,5.828949,99.29535
1582558926.011226,52,0,1582558924.101911,41.20571571532863,29.07209573896938,177.4582,0.1516938,215.3431330578894,3,6.000906205260658,-9999,106015.843307375,0.9637298583984375,0.0853424072265625,-0.111358642578125,106015.837265375,-2.269332602256952,1.472211344152598,-0.08622703680183363,0.01532914955168962,-0.07161514461040497,0.03834287449717522,-0.03019815683364868,0.003170162439346313,-0.01237213611602783,2,0.5945002209545189,0.3123133620179702,-0.6833181113934504,0.2865419692053975,0.9914473295211792,0.08612022548913956,-0.09805969893932343,51.96634674072266,-27.29012680053711,-1.716400146484375,2,106014.9950745417,4,1,1582558925.167149,1582558685.643339,11,0.6387488,0,0,10.91,0,0,1582558765.788069,106013.309225,0,5.828949,99.29535
1582558926.021258,53,0,1582558924.101911,41.20571571532863,29.07209573896938,177.4582,0.1516938,215.3431330578894,3,6.000906205260658,-9999,106015.853347375,0.9707489013671875,0.0787811279296875,-0.11029052734375,106015.847305375,-2.269448128876023,1.471614232071495,-0.08591306115160054,0.01393711566925049,-0.05745645239949226,0.03036990389227867,-0.02664166688919067,-0.001796483993530273,-0.01299828290939331,2,0.5943674526155739,0.3120899781940651,-0.6834721498104867,0.2866931922084576,0.9914153218269348,0.08580741286277771,-0.09865435212850571,52.04857635498047,-27.2432861328125,-2.005615234375,2,106014.9950745417,4,1,1582558925.167149,1582558685.643339,11,0.6387488,0,0,10.91,0,0,1582558765.788069,106013.309225,0,5.828949,99.29535
1582558926.034199,54,0,1582558924.101911,41.20571571532863,29.07209573896938,177.4582,0.1516938,215.3431330578894,3,6.000906205260658,-9999,106015.863388375,0.9744873046875,0.0783233642578125,-0.1100006103515625,106015.857345375,-2.269507116513067,1.471033558333112,-0.08571954847744592,0.007848484441637993,-0.05947072803974152,0.01823963038623333,-0.01961219310760498,-0.007600367069244385,-0.0109560489654541,2,0.5942109889673988,0.3119254100857001,-0.6836285442286005,0.286823723309164,0.9913743734359741,0.08561461418867111,-0.09923167526721954,52.04857635498047,-27.2432861328125,-2.005615234375,2,106014.9950745417,4,1,1582558925.167149,1582558685.643339,11,0.6387488,0,0,10.91,0,0,1582558765.788069,106013.309225,0,5.828949,99.29535
1582558926.041447,55,0,1582558924.101911,41.20571571532863,29.07209573896938,177.4582,0.1516938,215.3431330578894,3,6.000906205260658,-9999,106015.873428375,0.9700469970703125,0.083770751953125,-0.1090240478515625,106015.867385375,-2.269500573652018,1.470511864150929,-0.08556909137860388,0.001732002128846943,-0.04900530725717545,0.01465101912617683,-0.01757431030273438,-0.006412804126739502,-0.0107579231262207,2,0.5940571221224931,0.3118029189369664,-0.6837634710658421,0.2869540434646105,0.9913353323936462,0.085464708507061,-0.09975015372037888,52.20046234130859,-27.12062072753906,-1.987213134765625,2,106014.9950745417,4,1,1582558925.167149,1582558685.643339,11,0.6387488,0,0,10.91,0,0,1582558765.788069,106013.309225,0,5.828949,99.29535
1582558926.051403,56,0,1582558924.101911,41.20571571532863,29.07209573896938,177.4582,0.1516938,215.3431330578894,3,6.000906205260658,-9999,106015.883468375,0.979278564453125,0.0878143310546875,-0.1013641357421875,106015.877456375,-2.269485873965601,1.469849705342941,-0.08541972169128831,0.0005821142112836242,-0.0680980384349823,0.01574322953820229,-0.02127444744110107,-0.0002214908599853516,-0.007002830505371094,2,0.5938537539092701,0.3116629680197245,-0.6839389667746945,0.2871085791261517,0.9912816882133484,0.08531588315963745,-0.1004078239202499,52.20046234130859,-27.12062072753906,-1.987213134765625,2,106014.9950745417,4,1,1582558925.167149,1582558685.643339,11,0.6387488,0,0,10.91,0,0,1582558765.788069,106013.309225,0,5.828949,99.29535
1582558926.061321,57,0,1582558924.101911,41.20571571532863,29.07209573896938,177.4582,0.1516938,215.3431330578894,3,6.000906205260658,-9999,106015.893508375,0.9742279052734375,0.0870819091796875,-0.1073760986328125,106015.887496375,-2.269559850031708,1.469232474331824,-0.08538838393864301,0.009721816517412663,-0.0567212775349617,-0.0005851429887115955,-0.01080846786499023,0.002342671155929565,-0.001370370388031006,2,0.593659493836693,0.3115420403771637,-0.6841288283579328,0.2871891442309819,0.9912221431732178,0.08528465777635574,-0.1010199263691902,52.17748260498047,-27.27310562133789,-2.08966064453125,2,106015.887069375,2,0,1582558926.059144,1582558685.643339,11,0.6387488,0,0,10.91,0,0,1582558765.788069,106013.309225,0,5.828949,99.29535
1582558926.071446,58,0,1582558924.101911,41.20571571532863,29.07209573896938,177.4582,0.1516938,215.3431330578894,3,6.000906205260658,-9999,106015.903549375,0.96746826171875,0.0851593017578125,-0.1092071533203125,106015.897537375,-2.269661088145033,1.468633882658503,-0.08541907180524154,0.009737816639244556,-0.06234851107001305,-0.003698863321915269,-0.01886290311813354,0.001244008541107178,-0.006178796291351318,2,0.5934652605392584,0.3114361771575828,-0.6843249553632308,0.2872382636171733,0.9911589622497559,0.08531523495912552,-0.1016129851341248,52.17748260498047,-27.27310562133789,-2.08966064453125,2,106015.887069375,2,0,1582558926.059144,1582558685.643339,11,0.6387488,0,0,10.91,0,0,1582558765.788069,106013.309225,0,5.828949,99.29535
1582558926.081467,59,0,1582558924.101911,41.20571571532863,29.07209573896938,177.4582,0.1516938,215.3431330578894,3,6.000906205260658,-9999,106015.913589375,0.957305908203125,0.0809478759765625,-0.1179351806640625,106015.907577375,-2.269755595059458,1.468215234696695,-0.08548568977720455,0.008440058678388596,-0.03963760659098625,-0.007402255199849606,-0.0261845588684082,-0.0009433925151824951,-0.009044647216796875,2,0.5933253845368975,0.31137004956669,-0.6844713152743468,0.2872505833750881,0.9911108613014221,0.08538161218166351,-0.1020273640751839,52.09296417236328,-27.10479736328125,-2.09991455078125,2,106015.887069375,2,0,1582558926.059144,1582558685.643339,11,0.6387488,0,0,10.91,0,0,1582558765.788069,106013.309225,0,5.828949,99.29535
1582558926.094267,60,0,1582558924.101911,41.20571571532863,29.07209573896938,177.4582,0.1516938,215.3431330578894,3,6.000906205260658,-9999,106015.923629375,0.955474853515625,0.0871429443359375,-0.1159515380859375,106015.917617375,-2.269815278192776,1.46800841730764,-0.08551082215877953,0.004584659822285175,-0.01977152563631535,-0.003369697136804461,-0.0347367525100708,-0.004493236541748047,-0.01621007919311523,2,0.5932596686861701,0.3113308833257084,-0.6845442945115923,0.287254408257953,0.9910873770713806,0.08540664613246918,-0.1022320911288261,52.09296417236328,-27.10479736328125,-2.09991455078125,2,106015.887069375,2,0,1582558926.059144,1582558685.643339,11,0.6387488,0,0,10.91,0,0,1582558765.788069,106013.309225,0,5.828949,99.29535
1582558926.101995,61,0,1582558924.101911,41.20571571532863,29.07209573896938,177.4582,0.1516938,215.3431330578894,3,6.000906205260658,-9999,106015.933670375,0.95233154296875,0.0890655517578125,-0.1147003173828125,106015.927658375,-2.269889953863922,1.467990992659014,-0.08543932326145585,0.008524274453520775,-0.0008665453642606735,0.006256564985960722,-0.0357937216758728,0.00371098518371582,-0.01318603754043579,2,0.5932774335159974,0.3112826474945986,-0.6845511803951623,0.2872538011272122,0.991091787815094,0.08533541113138199,-0.1022500023245811,51.99694061279297,-27.04147338867188,-2.157928466796875,2,106015.887069375,2,0,1582558926.059144,1582558685.643339,11,0.6387488,0,0,10.91,0,0,1582558765.788069,106013.309225,0,5.828949,99.29535
1582558926.111652,62,0,1582558924.101911,41.20571571532863,29.07209573896938,177.4582,0.1516938,215.3431330578894,3,6.000906205260658,-9999,106015.943710375,0.937042236328125,0.0858612060546875,-0.1214752197265625,106015.937698375,-2.269943824697592,1.468223408618992,-0.08524641607079614,0.006691405549645424,0.02335704304277897,0.01832596212625504,-0.04149496555328369,0.002148479223251343,-0.01401013135910034,2,0.5933980858088028,0.3112363244209888,-0.6844654185560444,0.2872589275491757,0.9911317825317383,0.08514320850372314,-0.1020213216543198,51.99694061279297,-27.04147338867188,-2.157928466796875,2,106015.887069375,2,0,1582558926.059144,1582558685.643339,11,0.6387488,0,0,10.91,0,0,1582558765.788069,106013.309225,0,5.828949,99.29535
1582558926.121657,63,0,1582558924.101911,41.20571571532863,29.07209573896938,177.4582,0.1516938,215.3431330578894,3,6.000906205260658,-9999,106015.953750375,0.9314422607421875,0.0925750732421875,-0.1220245361328125,106015.947738375,-2.270004201298124,1.468888487804227,-0.08489089602239928,0.009339121170341969,0.06731411814689636,0.03524209558963776,-0.05695855617523193,0.002777457237243652,-0.02101415395736694,2,0.5936952858442595,0.3111965728079656,-0.684231606528824,0.2872450715283112,0.9912295341491699,0.0847889706492424,-0.1013652011752129,52.00955963134766,-27.3988037109375,-2.130035400390625,2,106015.887069375,2,0,1582558926.059144,1582558685.643339,11,0.6387488,0,0,10.91,0,0,1582558765.788069,106013.309225,0,5.828949,99.29535
1582558926.131692,64,0,1582558924.101911,41.20571571532863,29.07209573896938,177.4582,0.1516938,215.3431330578894,3,6.000906205260658,-9999,106015.963790375,0.9359130859375,0.0842742919921875,-0.124786376953125,106015.957778375,-2.270080750208812,1.470061379255193,-0.08441364666059496,0.01264924462884665,0.1187493354082108,0.04749907553195953,-0.06007707118988037,0.00725090503692627,-0.02241700887680054,2,0.5941891389355257,0.3111847844471883,-0.6838336620485694,0.2871845067948207,0.9913879632949829,0.08431342989206314,-0.1002065911889076,52.00955963134766,-27.3988037109375,-2.130035400390625,2,106015.887069375,2,0,1582558926.059144,1582558685.643339,11,0.6387488,0,0,10.91,0,0,1582558765.788069,106013.309225,0,5.828949,99.29535
1582558926.141898,65,0,1582558924.101911,41.20571571532863,29.07209573896938,177.4582,0.1516938,215.3431330578894,3,6.000906205260658,-9999,106015.973831375,0.9550018310546875,0.084381103515625,-0.1156463623046875,106015.967819375,-2.270144735169663,1.471631565684018,-0.08388500013144212,0.01174004096537828,0.1612067818641663,0.05257372930645943,-0.05307531356811523,-0.0003857016563415527,-0.02577024698257446,2,0.5948251721098825,0.3112168188765321,-0.683308831165407,0.2870824585117919,0.9915883541107178,0.08378665894269943,-0.09865421056747437,52.09796905517578,-27.12550354003906,-2.06640625,2,106015.887069375,2,0,1582558926.059144,1582558685.643339,11,0.6387488,0,0,10.91,0,0,1582558765.788069,106013.309225,0,5.828949,99.29535
1582558926.154454,66,0,1582558925.101903,41.20571467086346,29.07209517817164,177.4879,0.03121054,214.9294694809967,3,6.000906205260658,-9999,106015.983871375,0.969635009765625,0.083526611328125,-0.107666015625,106015.977859375,-2.270219104799584,1.473305402086577,-0.08335875273768445,0.01296319719403982,0.1677556335926056,0.05232127383351326,-0.03315651416778564,0.00158846378326416,-0.01643997430801392,2,0.5954973102893876,0.3112613983885744,-0.6827542485128011,0.2869600173026575,0.9917957782745361,0.08326224982738495,-0.09699858725070953,52.09796905517578,-27.12550354003906,-2.06640625,2,106015.887069375,2,0,1582558926.059144,1582558685.643339,11,0.6387488,0,0,10.91,0,0,1582558765.788069,106013.309225,0,5.828949,99.29535
1582558926.161859,67,0,1582558925.101903,41.20571467086346,29.07209517817164,177.4879,0.03121054,214.9294694809967,3,6.000906205260658,-9999,106015.993911375,0.992645263671875,0.0804443359375,-0.0964813232421875,106015.987899375,-2.27028632636559,1.474918451712769,-0.08290130793780794,0.01117168925702572,0.1662133932113647,0.04456135630607605,-0.01950973272323608,-2.384185791015625e-07,-0.0113990306854248,2,0.5961354294377834,0.31132203585726,-0.6822248752333211,0.2868281895207855,0.9919887185096741,0.08280637860298157,-0.09540227800607681,51.90001678466797,-27.03646469116211,-1.92333984375,2,106015.887069375,2,0,1582558926.059144,1582558685.643339,11,0.6387488,0,0,10.91,0,0,1582558765.788069,106013.309225,0,5.828949,99.29535
1582558926.171832,68,0,1582558925.101903,41.20571467086346,29.07209517817164,177.4879,0.03121054,214.9294694809967,3,6.000906205260658,-9999,106016.003952375,1.00933837890625,0.08013916015625,-0.086273193359375,106015.997940375,-2.27034972254652,1.476085376572268,-0.08255350655087076,0.01025002636015415,0.1166423782706261,0.03444938361644745,0.005879044532775879,-0.002049177885055542,0.0006750822067260742,2,0.5966019014360368,0.3113559040554907,-0.6818414409068113,0.2867330336494892,0.9921278357505798,0.08245977014303207,-0.09424734115600586,51.90001678466797,-27.03646469116211,-1.92333984375,2,106015.887069375,2,0,1582558926.059144,1582558685.643339,11,0.6387488,0,0,10.91,0,0,1582558765.788069,106013.309225,0,5.828949,99.29535
1582558926.181886,69,0,1582558925.101903,41.20571467086346,29.07209517817164,177.4879,0.03121054,214.9294694809967,3,6.000906205260658,-9999,106016.013992375,1.000015258789062,0.0801544189453125,-0.0888214111328125,106016.007980375,-2.270411053731192,1.476830033991574,-0.08234586983125677,0.008316305465996265,0.07592424750328064,0.0185718834400177,0.01638162136077881,-0.002513587474822998,0.007033169269561768,2,0.5969002383864332,0.3113760355688215,-0.6816015327511276,0.2866609068131846,0.9922149181365967,0.08225283771753311,-0.09351014345884323,52.06551361083984,-27.35323333740234,-1.669952392578125,2,106015.887069375,2,0,1582558926.059144,1582558685.643339,11,0.6387488,0,0,10.91,0,0,1582558765.788069,106013.309225,0,5.828949,99.29535
1582558926.192184,70,0,1582558925.101903,41.20571467086346,29.07209517817164,177.4879,0.03121054,214.9294694809967,3,6.000906205260658,-9999,106016.024032375,0.9849090576171875,0.0860748291015625,-0.0923309326171875,106016.018020375,-2.270437548244121,1.477244885753147,-0.08215502597954061,0.003128895303234458,0.04232540726661682,0.01931373029947281,0.004425227642059326,-0.0009501278400421143,0.003204584121704102,2,0.5970778899452576,0.3113647561551534,-0.6814569844716808,0.2866466344275493,0.9922690987586975,0.08206263929605484,-0.09309996664524078,52.06551361083984,-27.35323333740234,-1.669952392578125,2,106015.887069375,2,0,1582558926.059144,1582558685.643339,11,0.6387488,0,0,10.91,0,0,1582558765.788069,106013.309225,0,5.828949,99.29535
1582558926.202065,71,0,1582558925.101903,41.20571467086346,29.07209517817164,177.4879,0.03121054,214.9294694809967,3,6.000906205260658,-9999,106016.034103375,0.97796630859375,0.082061767578125,-0.096099853515625,106016.028060375,-2.27048076183927,1.477489216152398,-0.08198738450859835,0.005931871943175793,0.02515174634754658,0.01706069707870483,-0.01006150245666504,0.004542291164398193,-0.0002564191818237305,2,0.5971960779213711,0.311331723031666,-0.6813687741769536,0.2866461104748499,0.9923055768013,0.08189556002616882,-0.09285880625247955,52.10939788818359,-27.43840026855469,-1.82110595703125,2,106015.887069375,2,0,1582558926.059144,1582558685.643339,11,0.6387488,0,0,10.91,0,0,1582558765.788069,106013.309225,0,5.828949,99.29535
1582558926.217185,72,0,1582558925.101903,41.20571467086346,29.07209517817164,177.4879,0.03121054,214.9294694809967,3,6.000906205260658,-9999,106016.044143375,0.98663330078125,0.0763702392578125,-0.09014892578125,106016.038101375,-2.270604192419064,1.477616851236133,-0.08193485364643595,0.01393578387796879,0.01802605390548706,0.005718353670090437,-0.01419746875762939,-0.001264661550521851,-0.003571689128875732,2,0.5972676126751439,0.3112958755393698,-0.6813416245872363,0.2866005616860898,0.9923217296600342,0.08184321224689484,-0.09273255616426468,52.10939788818359,-27.43840026855469,-1.82110595703125,2,106015.887069375,2,0,1582558926.059144,1582558685.643339,11,0.6387488,0,0,10.91,0,0,1582558765.788069,106013.309225,0,5.828949,99.29535
1582558926.222144,73,0,1582558925.101903,41.20571467086346,29.07209517817164,177.4879,0.03121054,214.9294694809967,3,6.000906205260658,-9999,106016.054183375,0.9998626708984375,0.076385498046875,-0.080810546875,106016.048141375,-2.270818753947704,1.477382185825475,-0.08210667059129596,0.0188013780862093,-0.02075569704174995,-0.01792625524103642,-0.00265657901763916,-0.005799949169158936,0.00520479679107666,2,0.5971921365721068,0.3112547205750995,-0.6814644631180322,0.2865104823221012,0.9922859072685242,0.08201444894075394,-0.09296410530805588,51.95735931396484,-27.25038909912109,-1.73602294921875,2,106015.887069375,2,0,1582558926.059144,1582558685.643339,11,0.6387488,0,0,10.91,0,0,1582558765.788069,106013.309225,0,5.828949,99.29535
1582558926.232174,74,0,1582558925.101903,41.20571467086346,29.07209517817164,177.4879,0.03121054,214.9294694809967,3,6.000906205260658,-9999,106016.064224375,0.994232177734375,0.0770263671875,-0.08294677734375,106016.058181375,-2.271193969697733,1.476848005861635,-0.08259679292136378,0.0331476628780365,-0.04851448908448219,-0.05213471874594688,0.007870256900787354,-0.0062122642993927,0.01270443201065063,2,0.5969859661158622,0.3112275229495316,-0.6817404472036581,0.2863131560279326,0.9921960234642029,0.08250290900468826,-0.093490369617939,51.95735931396484,-27.25038909912109,-1.73602294921875,2,106015.887069375,2,0,1582558926.059144,1582558685.643339,11,0.6387488,0,0,10.91,0,0,1582558765.788069,106013.309225,0,5.828949,99.29535
1582558926.242833,75,0,1582558925.101903,41.20571467086346,29.07209517817164,177.4879,0.03121054,214.9294694809967,3,6.000906205260658,-9999,106016.074264375,0.9638214111328125,0.084197998046875,-0.0942230224609375,106016.068222375,-2.271732126442087,1.476180126267556,-0.08332208440613111,0.04615747183561325,-0.06459385901689529,-0.07922572642564774,-0.001436829566955566,-0.005455106496810913,0.01003539562225342,2,0.5967198482412299,0.3112101395928001,-0.6821094755813095,0.2860078015910542,0.9920735955238342,0.08322570472955704,-0.09414734691381454,51.91365814208984,-27.09149932861328,-1.68927001953125,2,106015.887069375,2,0,1582558926.059144,1582558685.643339,11,0.6387488,0,0,10.91,0,0,1582558765.788069,106013.309225,0,5.828949,99.29535
1582558926.252294,76,0,1582558925.101903,41.20571467086346,29.07209517817164,177.4879,0.03121054,214.9294694809967,3,6.000906205260658,-9999,106016.084304375,0.904876708984375,0.090087890625,-0.1240081787109375,106016.078262375,-2.27239357293498,1.475943572972937,-0.08397663574523465,0.05918097868561745,-0.02280645631253719,-0.07163242250680923,-0.03962934017181396,0.002300053834915161,-0.005146682262420654,2,0.5966318518639228,0.3111945016069481,-0.6823580074898894,0.2856151160081484,0.9919967651367188,0.08387796580791473,-0.0943768322467804,51.91365814208984,-27.09149932861328,-1.68927001953125,2,106015.887069375,2,0,1582558926.059144,1582558685.643339,11,0.6387488,0,0,10.91,0,0,1582558765.788069,106013.309225,0,5.828949,99.29535
1582558926.262359,77,0,1582558925.101903,41.20571467086346,29.07209517817164,177.4879,0.03121054,214.9294694809967,3,6.000906205260658,-9999,106016.094345375,0.8795166015625,0.086151123046875,-0.14208984375,106016.088302375,-2.273133264051878,1.476778744564378,-0.08441430131346453,0.0702674463391304,0.0875975489616394,-0.04967945441603661,-0.09669303894042969,0.00560230016708374,-0.03568756580352783,2,0.5969581860159577,0.3112370407067976,-0.6822700885200165,0.2850964861950965,0.9920386075973511,0.08431408554315567,-0.0935448557138443,52.13666534423828,-27.22621154785156,-1.61767578125,2,106015.887069375,2,0,1582558926.059144,1582558685.643339,11,0.6387488,0,0,10.91,0,0,1582558765.788069,106013.309225,0,5.828949,99.29535
1582558926.281221,78,0,1582558925.101903,41.20571467086346,29.07209517817164,177.4879,0.03121054,214.9294694809967,3,6.000906205260658,-9999,106016.104385375,0.9085845947265625,0.0739288330078125,-0.1398162841796875,106016.098342375,-2.27379715509775,1.478763576685168,-0.08469950880067981,0.06485359370708466,0.2080342024564743,-0.03380616754293442,-0.11124187707901,-0.000526130199432373,-0.0522925853729248,2,0.5976904235832137,0.3114152268804117,-0.6818081234899437,0.2844721756178425,0.9921982884407043,0.08459827303886414,-0.09157342463731766,52.08124542236328,-27.21949768066406,-1.595489501953125,2,106015.887069375,2,0,1582558926.059144,1582558685.643339,11,0.6387488,0,0,10.91,0,0,1582558765.788069,106013.309225,0,5.828949,99.29535
1582558926.282424,79,0,1582558925.101903,41.20571467086346,29.07209517817164,177.4879,0.03121054,214.9294694809967,3,6.000906205260658,-9999,106016.114425375,0.9685516357421875,0.087066650390625,-0.108551025390625,106016.108383375,-2.27420666154535,1.48129664890015,-0.08479360423389011,0.04121377691626549,0.2649765908718109,-0.0115125784650445,-0.07357519865036011,-0.01044654846191406,-0.04722392559051514,2,0.5986015005929357,0.3116836294148905,-0.6811207396339457,0.2839086919057757,0.9924191832542419,0.08469203114509583,-0.08905911445617676,52.08124542236328,-27.21949768066406,-1.595489501953125,2,106015.887069375,2,0,1582558926.059144,1582558685.643339,11,0.6387488,0,0,10.91,0,0,1582558765.788069,106013.309225,0,5.828949,99.29535
1582558926.292839,80,0,1582558925.101903,41.20571467086346,29.07209517817164,177.4879,0.03121054,214.9294694809967,3,6.000906205260658,-9999,106016.124465375,0.9958648681640625,0.0962982177734375,-0.0754852294921875,106016.118423375,-2.274482912441806,1.483291055322372,-0.08479783167052511,0.02516048215329647,0.1985559910535812,-0.003214478958398104,-0.01004499197006226,0.005174249410629272,-0.01195704936981201,2,0.5993227987743942,0.3118851913377735,-0.6805631628813636,0.2835023985467394,0.9925944209098816,0.08469624072313309,-0.08707962185144424,52.36609649658203,-27.22308731079102,-1.2366943359375,2,106015.887069375,2,0,1582558926.059144,1582558685.643339,11,0.6387488,0,0,10.91,0,0,1582558765.788069,106013.309225,0,5.828949,99.29535
1582558926.302546,81,0,1582558925.101903,41.20571467086346,29.07209517817164,177.4879,0.03121054,214.9294694809967,3,6.000906205260658,-9999,106016.134506375,0.892913818359375,0.050048828125,-0.1987152099609375,106016.128494375,-2.27475056756721,1.486409597151978,-0.08494763740450111,0.04212481901049614,0.2805446088314056,-0.01609752140939236,-0.01704347133636475,0.008732885122299194,-0.002603292465209961,2,0.6003999300917996,0.3122956545610497,-0.6796849201216927,0.2828779350964071,0.9928486347198486,0.08484550565481186,-0.08398269861936569,52.36609649658203,-27.22308731079102,-1.2366943359375,2,106015.887069375,2,0,1582558926.059144,1582558685.643339,11,0.6387488,0,0,10.91,0,0,1582558765.788069,106013.309225,0,5.828949,99.29535
1582558926.312607,82,0,1582558925.101903,41.20571467086346,29.07209517817164,177.4879,0.03121054,214.9294694809967,3,6.000906205260658,-9999,106016.144546375,1.056350708007812,0.0714874267578125,-0.063690185546875,106016.138534375,-2.274600602179098,1.491108044471277,-0.08543040387249907,-0.01960666477680206,0.5057108402252197,-0.04933962225914001,-0.09126937389373779,-0.04220911860466003,-0.1262617111206055,2,0.6018908094494715,0.3131622997192143,-0.6783131790937034,0.2820426063658937,0.9931911826133728,0.08532652258872986,-0.07931365817785263,52.29770660400391,-27.23273086547852,-0.90960693359375,2,106015.887069375,2,0,1582558926.059144,1582558685.643339,11,0.6387488,0,0,10.91,0,0,1582558765.788069,106013.309225,0,5.828949,99.29535
1582558926.322628,83,0,1582558925.101903,41.20571467086346,29.07209517817164,177.4879,0.03121054,214.9294694809967,3,6.000906205260658,-9999,106016.154586375,1.049331665039062,0.10748291015625,-0.020355224609375,106016.148574375,-2.274500116080773,1.493571242905217,-0.08599943822907288,-0.01360363233834505,0.224516972899437,-0.05642788857221603,0.09237903356552124,-0.001501113176345825,0.05198222398757935,2,0.6026148308495937,0.3137255842285211,-0.677630332319765,0.281511884755977,0.9933351278305054,0.08589346706867218,-0.07686324417591095,52.29770660400391,-27.23273086547852,-0.90960693359375,2,106015.887069375,2,0,1582558926.059144,1582558685.643339,11,0.6387488,0,0,10.91,0,0,1582558765.788069,106013.309225,0,5.828949,99.29535
1582558926.345977,84,0,1582558925.101903,41.20571467086346,29.07209517817164,177.4879,0.03121054,214.9294694809967,3,6.000906205260658,-9999,106016.164627375,0.976654052734375,0.0854339599609375,-0.0926055908203125,106016.158615375,-2.274441664289171,1.495646245041259,-0.08659495430318988,-0.008957322686910629,0.2080314010381699,-0.05767638236284256,0.02907085418701172,0.0186726450920105,0.03230762481689453,2,0.6032088426609589,0.3142293278667924,-0.6770728799014131,0.2810183785585975,0.993441104888916,0.08648677170276642,-0.07479804009199142,52.23831939697266,-27.08752822875977,-0.601226806640625,2,106015.887069375,2,0,1582558926.059144,1582558685.643339,11,0.6387488,0,0,10.91,0,0,1582558765.788069,106013.309225,0,5.828949,99.29535
1582558926.347224,85,0,1582558925.101903,41.20571467086346,29.07209517817164,177.4879,0.03121054,214.9294694809967,3,6.000906205260658,-9999,106016.174667375,0.9982757568359375,0.07952880859375,-0.0788116455078125,106016.168655375,-2.274358411614528,1.497746510525765,-0.08736602986918895,-0.01539098750799894,0.212801918387413,-0.07488545775413513,-0.01445883512496948,-0.005624741315841675,-0.0200924277305603,2,0.6037775415274492,0.3148006189853811,-0.6765264123508861,0.2804732809188199,0.9935292601585388,0.08725493401288986,-0.07270649820566177,52.23831939697266,-27.08752822875977,-0.601226806640625,2,106015.887069375,2,0,1582558926.059144,1582558685.643339,11,0.6387488,0,0,10.91,0,0,1582558765.788069,106013.309225,0,5.828949,99.29535
1582558926.352807,86,0,1582558925.101903,41.20571467086346,29.07209517817164,177.4879,0.03121054,214.9294694809967,3,6.000906205260658,-9999,106016.184707375,1.017837524414062,0.086181640625,-0.059722900390625,106016.178695375,-2.274259603790389,1.49958591274545,-0.08830169939577719,-0.01840915344655514,0.191789984703064,-0.09245780855417252,0.008531808853149414,-0.007518351078033447,-0.004729509353637695,2,0.6042274856011798,0.3153928092429962,-0.6760772166484059,0.2799217182609599,0.9935794472694397,0.08818699419498444,-0.07087304443120956,52.41259002685547,-27.0634880065918,-0.4188232421875,2,106015.887069375,2,0,1582558926.059144,1582558685.643339,11,0.6387488,0,0,10.91,0,0,1582558765.788069,106013.309225,0,5.828949,99.29535
1582558926.362792,87,0,1582558925.101903,41.20571467086346,29.07209517817164,177.4879,0.03121054,214.9294694809967,3,6.000906205260658,-9999,106016.194747375,1.018157958984375,0.0922088623046875,-0.0518798828125,106016.188735375,-2.274198220267872,1.500754109944506,-0.08931924845977715,-0.01316618826240301,0.1227203831076622,-0.1024638414382935,0.02636206150054932,-0.001558810472488403,0.0130239725112915,2,0.6044424168620447,0.315905649957463,-0.6758461519859683,0.2794366298074856,0.993571400642395,0.08920053392648697,-0.06970597058534622,52.41259002685547,-27.0634880065918,-0.4188232421875,2,106015.887069375,2,0,1582558926.059144,1582558685.643339,11,0.6387488,0,0,10.91,0,0,1582558765.788069,106013.309225,0,5.828949,99.29535
1582558926.372821,88,0,1582558925.101903,41.20571467086346,29.07209517817164,177.4879,0.03121054,214.9294694809967,3,6.000906205260658,-9999,106016.204788375,0.99798583984375,0.09765625,-0.0584564208984375,106016.198776375,-2.274119541501258,1.501268862894797,-0.09032703865478681,-0.01822888664901257,0.0457063689827919,-0.09951341897249222,0.02180856466293335,0.002701520919799805,0.01703852415084839,2,0.6044351701682024,0.3163289392206663,-0.6758090047606058,0.2790635360130702,0.9935172200202942,0.09020426124334335,-0.06918825209140778,52.45552825927734,-26.97436904907227,-0.246826171875,2,106015.887069375,2,0,1582558926.059144,1582558685.643339,11,0.6387488,0,0,10.91,0,0,1582558765.788069,106013.309225,0,5.828949,99.29535
1582558926.382719,89,0,1582558925.101903,41.20571467086346,29.07209517817164,177.4879,0.03121054,214.9294694809967,3,6.000906205260658,-9999,106016.214828375,0.9747161865234375,0.0927276611328125,-0.0799713134765625,106016.208816375,-2.274047481397662,1.50167493552364,-0.09132544540692045,-0.01424719393253326,0.04003330320119858,-0.09904150664806366,-0.001657843589782715,0.006879806518554688,0.006008803844451904,2,0.6043937027639548,0.3167317084858281,-0.6758041753813251,0.2787079595325678,0.9934548735618591,0.09119854867458344,-0.06877855211496353,52.45552825927734,-26.97436904907227,-0.246826171875,2,106016.208267375,4,1,1582558926.380342,1582558685.643339,11,0.6387488,0,0,10.91,0,0,1582558765.788069,106013.309225,0,5.828949,99.29535
1582558926.405129,90,0,1582558925.101903,41.20571467086346,29.07209517817164,177.4879,0.03121054,214.9294694809967,3,6.000906205260658,-9999,106016.224868375,0.9805908203125,0.09161376953125,-0.0758514404296875,106016.218856375,-2.2739490564933,1.502109387111114,-0.09230081845805391,-0.01853286288678646,0.05379766970872879,-0.09889630973339081,-0.01995450258255005,-0.001186996698379517,-0.01385331153869629,2,0.6043613663248867,0.3171386773029643,-0.6757840134970244,0.2783638228747936,0.9933953881263733,0.09216981381177902,-0.06834079325199127,52.47165679931641,-26.65788269042969,-0.281005859375,2,106016.208267375,4,1,1582558926.380342,1582558685.643339,11,0.6387488,0,0,10.91,0,0,1582558765.788069,106013.309225,0,5.828949,99.29535
1582558926.406237,91,0,1582558925.101903,41.20571467086346,29.07209517817164,177.4879,0.03121054,214.9294694809967,3,6.000906205260658,-9999,106016.234909375,0.987640380859375,0.1023406982421875,-0.0609893798828125,106016.228897375,-2.273884711216471,1.502497047897694,-0.09331873489640982,-0.01352585293352604,0.03346151113510132,-0.100957065820694,-0.01019716262817383,0.0007442235946655273,-0.004326581954956055,2,0.6043113268995511,0.3175424306715409,-0.6757880979497316,0.2780019373023723,0.9933276176452637,0.09318335354328156,-0.06794925034046173,52.47165679931641,-26.65788269042969,-0.281005859375,2,106016.208267375,4,1,1582558926.380342,1582558685.643339,11,0.6387488,0,0,10.91,0,0,1582558765.788069,106013.309225,0,5.828949,99.29535
1582558926.412946,92,0,1582558925.101903,41.20571467086346,29.07209517817164,177.4879,0.03121054,214.9294694809967,3,6.000906205260658,-9999,106016.244949375,0.9753570556640625,0.1009368896484375,-0.0674896240234375,106016.238937375,-2.27390225811238,1.502649950976622,-0.09433978896653482,-0.004587558563798666,0.01324073225259781,-0.1014001667499542,-0.00707542896270752,0.008165538311004639,0.006394863128662109,2,0.6041942672047779,0.3178896926946584,-0.6758748669804666,0.2776486072459931,0.9932426810264587,0.09419991075992584,-0.06779085844755173,52.53530120849609,-26.77512359619141,-0.087127685546875,2,106016.208267375,4,1,1582558926.380342,1582558685.643339,11,0.6387488,0,0,10.91,0,0,1582558765.788069,106013.309225,0,5.828949,99.29535
1582558926.422952,93,0,1582558925.101903,41.20571467086346,29.07209517817164,177.4879,0.03121054,214.9294694809967,3,6.000906205260658,-9999,106016.254989375,0.9688873291015625,0.107421875,-0.068572998046875,106016.248977375,-2.273983640953369,1.502612027424227,-0.09519726326471192,0.002488460391759872,-0.0001704152673482895,-0.08668459951877594,-0.02098417282104492,0.006869256496429443,-0.00123298168182373,2,0.6040502614295989,0.3181379918998466,-0.6760070182460578,0.2773556369512962,0.9931591749191284,0.0950535386800766,-0.06782300025224686,52.53530120849609,-26.77512359619141,-0.087127685546875,2,106016.208267375,4,1,1582558926.380342,1582558685.643339,11,0.6387488,0,0,10.91,0,0,1582558765.788069,106013.309225,0,5.828949,99.29535
1582558926.433072,94,0,1582558925.101903,41.20571467086346,29.07209517817164,177.4879,0.03121054,214.9294694809967,3,6.000906205260658,-9999,106016.265029375,0.9762420654296875,0.10528564453125,-0.0626983642578125,106016.259017375,-2.274074159229246,1.502303467617687,-0.09583460822935942,0.005957018118351698,-0.02884471789002419,-0.06636527925729752,-0.02287101745605469,0.01203295588493347,0.0008238554000854492,2,0.6038531759944693,0.3182745734536919,-0.676193890228786,0.2771722306716063,0.9930773973464966,0.09568797796964645,-0.06812527775764465,52.60965728759766,-26.7686882019043,-0.244842529296875,2,106016.208267375,4,1,1582558926.380342,1582558685.643339,11,0.6387488,0,0,10.91,0,0,1582558765.788069,106013.309225,0,5.828949,99.29535
1582558926.443197,95,0,1582558925.101903,41.20571467086346,29.07209517817164,177.4879,0.03121054,214.9294694809967,3,6.000906205260658,-9999,106016.275070375,0.972076416015625,0.1005859375,-0.0726470947265625,106016.269058375,-2.27411141975055,1.501742335611344,-0.09629128370570353,0.001008332357741892,-0.05837384611368179,-0.04687120392918587,-0.0164414644241333,0.008068740367889404,0.005375802516937256,2,0.6035925119258517,0.3183336890136844,-0.67642652633994,0.2771042930291059,0.9929952621459961,0.09614255279302597,-0.06867948174476624,52.60965728759766,-26.7686882019043,-0.244842529296875,2,106016.208267375,4,1,1582558926.380342,1582558685.643339,11,0.6387488,0,0,10.91,0,0,1582558765.788069,106013.309225,0,5.828949,99.29535
1582558926.465089,96,0,1582558925.101903,41.20571467086346,29.07209517817164,177.4879,0.03121054,214.9294694809967,3,6.000906205260658,-9999,106016.285140375,0.9528350830078125,0.09747314453125,-0.09002685546875,106016.279098375,-2.274121508537989,1.501355789123882,-0.09663511400483143,-1.270612119697034e-05,-0.04210215061903,-0.03501969575881958,-0.02462154626846313,0.003194570541381836,-0.007365107536315918,2,0.6034054582975895,0.3183886618388916,-0.6765883445070832,0.277053619953479,0.9929356575012207,0.09648478031158447,-0.0690610259771347,52.62928009033203,-26.80673217773438,-0.260406494140625,2,106016.208267375,4,1,1582558926.380342,1582558685.643339,11,0.6387488,0,0,10.91,0,0,1582558765.788069,106013.309225,0,5.828949,99.29535
1582558926.466273,97,0,1582558925.101903,41.20571467086346,29.07209517817164,177.4879,0.03121054,214.9294694809967,3,6.000906205260658,-9999,106016.295181375,0.951171875,0.09979248046875,-0.08514404296875,106016.289138375,-2.274114030527211,1.501268942912055,-0.09690458225896892,-0.002950971713289618,-0.01031039655208588,-0.02550022676587105,-0.0418626070022583,0.001110494136810303,-0.02188330888748169,2,0.6033294918857545,0.3184663224411725,-0.6766477789831481,0.2769846943328093,0.9929037094116211,0.09675298631191254,-0.06914544850587845,52.62928009033203,-26.80673217773438,-0.260406494140625,2,106016.208267375,4,1,1582558926.380342,1582558685.643339,11,0.6387488,0,0,10.91,0,0,1582558765.788069,106013.309225,0,5.828949,99.29535
1582558926.473272,98,0,1582558925.101903,41.20571467086346,29.07209517817164,177.4879,0.03121054,214.9294694809967,3,6.000906205260658,-9999,106016.305221375,0.9505462646484375,0.085968017578125,-0.1048126220703125,106016.299179375,-2.274090990921597,1.501663084189555,-0.09725761734839046,-0.003571380395442247,0.03866098076105118,-0.03498449176549911,-0.04272550344467163,0.001430392265319824,-0.01765388250350952,2,0.6033996904725472,0.3186423493763464,-0.676570512988898,0.2768179022382439,0.9928966760635376,0.09710436314344406,-0.06875173002481461,52.62718963623047,-26.80408096313477,-0.209991455078125,2,106016.208267375,4,1,1582558926.380342,1582558685.643339,11,0.6387488,0,0,10.91,0,0,1582558765.788069,106013.309225,0,5.828949,99.29535
1582558926.483311,99,0,1582558925.101903,41.20571467086346,29.07209517817164,177.4879,0.03121054,214.9294694809967,3,6.000906205260658,-9999,106016.315261375,0.986572265625,0.0890045166015625,-0.0859832763671875,106016.309219375,-2.273949184986745,1.502715149811752,-0.09783065961904036,-0.01889760605990887,0.1157736107707024,-0.05616088211536407,-0.03924721479415894,-0.01371216773986816,-0.03972899913787842,2,0.6036363462449525,0.3190164714297158,-0.6763062347463145,0.2765166300795098,0.992912769317627,0.09767468273639679,-0.06770330667495728,52.62718963623047,-26.80408096313477,-0.209991455078125,2,106016.208267375,4,1,1582558926.380342,1582558685.643339,11,0.6387488,0,0,10.91,0,0,1582558765.788069,106013.309225,0,5.828949,99.29535
1582558926.494092,100,0,1582558925.101903,41.20571467086346,29.07209517817164,177.4879,0.03121054,214.9294694809967,3,6.000906205260658,-9999,106016.325302375,1.007431030273438,0.095550537109375,-0.0576629638671875,106016.319259375,-2.273781777273886,1.50348368752795,-0.09865755746828615,-0.02072153054177761,0.07049059867858887,-0.08227834105491638,0.002621889114379883,-0.006814271211624146,-0.009308218955993652,2,0.6037300391942534,0.3194411744675272,-0.6761563019520861,0.2761886220732186,0.9928838014602661,0.09849759191274643,-0.06693474948406219,52.64662933349609,-26.79432678222656,-0.125762939453125,2,106016.208267375,4,1,1582558926.380342,1582558685.643339,11,0.6387488,0,0,10.91,0,0,1582558765.788069,106013.309225,0,5.828949,99.29535
1582558926.503492,101,0,1582558925.101903,41.20571467086346,29.07209517817164,177.4879,0.03121054,214.9294694809967,3,6.000906205260658,-9999,106016.335342375,0.988616943359375,0.099212646484375,-0.06573486328125,106016.329299375,-2.273550206817057,1.503934663301101,-0.09960540474441294,-0.03074433654546738,0.04369200393557549,-0.09274882823228836,0.01170343160629272,-0.003942936658859253,0.007373213768005371,2,0.6036855626016739,0.3198802682139568,-0.6761085854135243,0.2758942957740225,0.9928202629089355,0.09944078326225281,-0.06648071110248566,52.64662933349609,-26.79432678222656,-0.125762939453125,2,106016.208267375,4,1,1582558926.380342,1582558685.643339,11,0.6387488,0,0,10.91,0,0,1582558765.788069,106013.309225,0,5.828949,99.29535
1582558926.524961,102,0,1582558925.101903,41.20571467086346,29.07209517817164,177.4879,0.03121054,214.9294694809967,3,6.000906205260658,-9999,106016.345382375,0.9617156982421875,0.1042022705078125,-0.076446533203125,106016.339340375,-2.273309086731984,1.504229201245052,-0.1005354405789669,-0.02894328720867634,0.02250483073294163,-0.08958878368139267,-0.008822858333587646,0.0007161200046539307,-0.0006771087646484375,2,0.6035895011335098,0.3202946563369727,-0.6761043857607277,0.2756335847696875,0.9927469491958618,0.1003661677241325,-0.06618209183216095,52.70738983154297,-26.66740417480469,-0.158050537109375,2,106016.208267375,4,1,1582558926.380342,1582558685.643339,11,0.6387488,0,0,10.91,0,0,1582558765.788069,106013.309225,0,5.828949,99.29535
1582558926.526313,103,0,1582558925.101903,41.20571467086346,29.07209517817164,177.4879,0.03121054,214.9294694809967,3,6.000906205260658,-9999,106016.355422375,0.9515838623046875,0.1033172607421875,-0.0834503173828125,106016.349380375,-2.273055397460817,1.504814302620891,-0.101405794802495,-0.03032307140529156,0.05959281325340271,-0.08477405458688736,-0.03655970096588135,0.00230678915977478,-0.01458442211151123,2,0.6035995056266188,0.320733401614677,-0.6760032688689965,0.2753494357878286,0.9926980137825012,0.1012320891022682,-0.06559544056653976,52.70738983154297,-26.66740417480469,-0.158050537109375,2,106016.208267375,4,1,1582558926.380342,1582558685.643339,11,0.6387488,0,0,10.91,0,0,1582558765.788069,106013.309225,0,5.828949,99.29535
1582558926.533479,104,0,1582558925.101903,41.20571467086346,29.07209517817164,177.4879,0.03121054,214.9294694809967,3,6.000906205260658,-9999,106016.365463375,0.954437255859375,0.108642578125,-0.0709075927734375,106016.359420375,-2.272814403375618,1.505468312006905,-0.1021597336275915,-0.02848250605165958,0.06093235313892365,-0.0730859711766243,-0.03921139240264893,0.002411007881164551,-0.01581871509552002,2,0.6036543473519439,0.3211398967547396,-0.6758682725343809,0.2750865705533144,0.9926641583442688,0.1019821241497993,-0.06494119018316269,52.74961090087891,-26.7102165222168,-0.131439208984375,2,106016.208267375,4,1,1582558926.380342,1582558685.643339,11,0.6387488,0,0,10.91,0,0,1582558765.788069,106013.309225,0,5.828949,99.29535
1582558926.543771,105,0,1582558925.101903,41.20571467086346,29.07209517817164,177.4879,0.03121054,214.9294694809967,3,6.000906205260658,-9999,106016.375488875,0.9449920654296875,0.105499267578125,-0.082550048828125,106016.369446875,-2.272579880271318,1.506306049361777,-0.1027853021944626,-0.02731684036552906,0.08332021534442902,-0.06052783876657486,-0.04123091697692871,0.00564911961555481,-0.008170425891876221,2,0.6037938333669948,0.3215280346587106,-0.6756625094813701,0.274832605180807,0.9926545023918152,0.1026044115424156,-0.06410545855760574,52.74961090087891,-26.7102165222168,-0.131439208984375,2,106016.208267375,4,1,1582558926.380342,1582558685.643339,11,0.6387488,0,0,10.91,0,0,1582558765.788069,106013.309225,0,5.828949,99.29535
1582558926.553622,106,0,1582558925.101903,41.20571467086346,29.07209517817164,177.4879,0.03121054,214.9294694809967,3,6.000906205260658,-9999,106016.385528875,0.960235595703125,0.10894775390625,-0.071380615234375,106016.379516875,-2.272332756789689,1.507302774175848,-0.1032826193453748,-0.02768760733306408,0.09969762712717056,-0.0470314733684063,-0.04585123062133789,0.002392500638961792,-0.01990526914596558,2,0.6040065304663595,0.3219001712957021,-0.6753906838222944,0.2745977436292021,0.9926669001579285,0.1030990928411484,-0.0631127804517746,52.66472625732422,-26.54065704345703,0.120697021484375,2,106016.208267375,4,1,1582558926.380342,1582558685.643339,11,0.6387488,0,0,10.91,0,0,1582558765.788069,106013.309225,0,5.828949,99.29535
1582558926.589305,107,0,1582558925.101903,41.20571467086346,29.07209517817164,177.4879,0.03121054,214.9294694809967,3,6.000906205260658,-9999,106016.395569875,0.959991455078125,0.1081695556640625,-0.0702972412109375,106016.389557875,-2.272096359739304,1.508290722163892,-0.1036850409929759,-0.02607213333249092,0.09784912317991257,-0.03903506323695183,-0.03102469444274902,0.006096750497817993,-0.007064521312713623,2,0.6042338866853642,0.3222370071410411,-0.6751107867563003,0.2743904343100965,0.9926871061325073,0.1034993603825569,-0.06212944164872169,52.66472625732422,-26.54065704345703,0.120697021484375,2,106016.208267375,4,1,1582558926.380342,1582558685.643339,11,0.6387488,0,0,10.91,0,0,1582558765.788069,106013.309225,0,5.828949,99.29535
1582558926.590673,108,0,1582558925.101903,41.20571467086346,29.07209517817164,177.4879,0.03121054,214.9294694809967,3,6.000906205260658,-9999,106016.405609875,0.964202880859375,0.106658935546875,-0.0690155029296875,106016.399597875,-2.271867871983213,1.509423242850446,-0.104078098688679,-0.0256237480789423,0.1126341819763184,-0.03988771513104439,-0.03334224224090576,0.003584772348403931,-0.01060211658477783,2,0.6045126664673839,0.3225881317838147,-0.6747871153820305,0.2741599537687244,0.9927161931991577,0.1038902997970581,-0.06100266799330711,52.81284332275391,-26.6452522277832,-0.041168212890625,2,106016.208267375,4,1,1582558926.380342,1582558685.643339,11,0.6387488,0,0,10.91,0,0,1582558765.788069,106013.309225,0,5.828949,99.29535
1582558926.592,109,0,1582558925.101903,41.20571467086346,29.07209517817164,177.4879,0.03121054,214.9294694809967,3,6.000906205260658,-9999,106016.415649875,0.9662322998046875,0.10791015625,-0.068145751953125,106016.409637875,-2.271660414023897,1.510651426909188,-0.1044476531892065,-0.02324634417891502,0.1195328235626221,-0.03564450144767761,-0.02713698148727417,0.002683162689208984,-0.008375406265258789,2,0.604830862994659,0.3229382188560844,-0.6744342598914858,0.2739140555224215,0.9927519559860229,0.104257844388485,-0.05978106707334518,52.81284332275391,-26.6452522277832,-0.041168212890625,2,106016.208267375,4,1,1582558926.380342,1582558685.643339,11,0.6387488,0,0,10.91,0,0,1582558765.788069,106013.309225,0,5.828949,99.29535
1582558926.59432,110,0,1582558925.101903,41.20571467086346,29.07209517817164,177.4879,0.03121054,214.9294694809967,3,6.000906205260658,-9999,106016.425689875,0.963897705078125,0.105987548828125,-0.0701904296875,106016.419677875,-2.271486192351954,1.512012204002157,-0.1048305057972905,-0.01837136596441269,0.135570228099823,-0.03767268359661102,-0.02783358097076416,0.003278881311416626,-0.01017117500305176,2,0.6051965726818302,0.3233005223212951,-0.6740475162668093,0.2736311113668382,0.9927926659584045,0.1046386063098907,-0.05842776224017143,52.93178558349609,-26.49007034301758,0.072113037109375,2,106016.208267375,4,1,1582558926.380342,1582558685.643339,11,0.6387488,0,0,10.91,0,0,1582558765.788069,106013.309225,0,5.828949,99.29535
1582558926.603757,111,0,1582558925.101903,41.20571467086346,29.07209517817164,177.4879,0.03121054,214.9294694809967,3,6.000906205260658,-9999,106016.435730875,0.9652252197265625,0.107177734375,-0.066558837890625,106016.429718875,-2.271294557172938,1.513411521440852,-0.105185537579503,-0.02179326117038727,0.1406262367963791,-0.03503056243062019,-0.02830445766448975,0.0005300939083099365,-0.01330244541168213,2,0.6055769049572483,0.3236640929963658,-0.6736428413047533,0.2733561278442162,0.9928362369537354,0.1049916818737984,-0.05703633278608322,52.93178558349609,-26.49007034301758,0.072113037109375,2,106016.208267375,4,1,1582558926.380342,1582558685.643339,11,0.6387488,0,0,10.91,0,0,1582558765.788069,106013.309225,0,5.828949,99.29535
1582558926.613797,112,0,1582558925.101903,41.20571467086346,29.07209517817164,177.4879,0.03121054,214.9294694809967,3,6.000906205260658,-9999,106016.445770875,0.9608917236328125,0.110260009765625,-0.065765380859375,106016.439758875,-2.271097523162284,1.514878297376152,-0.1054492261378556,-0.0217415876686573,0.1453885138034821,-0.02571104466915131,-0.02896964550018311,0.00251084566116333,-0.01042717695236206,2,0.6059942329884667,0.3240088964027072,-0.6732051313799763,0.2731007780537277,0.9928910136222839,0.1052539125084877,-0.05557844787836075,52.87416839599609,-26.42646408081055,0.268798828125,2,106016.208267375,4,1,1582558926.380342,1582558685.643339,11,0.6387488,0,0,10.91,0,0,1582558765.788069,106013.309225,0,5.828949,99.29535
1582558926.623682,113,0,1582558925.101903,41.20571467086346,29.07209517817164,177.4879,0.03121054,214.9294694809967,3,6.000906205260658,-9999,106016.455810875,0.9777069091796875,0.11505126953125,-0.0511474609375,106016.449798875,-2.270916077452377,1.516291195208277,-0.105611431416957,-0.02091973647475243,0.141130119562149,-0.0148205803707242,-0.03052544593811035,0.005797982215881348,-0.01025956869125366,2,0.6064127784112416,0.3243088590455433,-0.6727727925651572,0.2728810738270301,0.992951512336731,0.1054152101278305,-0.05417461320757866,52.87416839599609,-26.42646408081055,0.268798828125,2,106016.208267375,4,1,1582558926.380342,1582558685.643339,11,0.6387488,0,0,10.91,0,0,1582558765.788069,106013.309225,0,5.828949,99.29535
1582558926.651731,114,0,1582558925.101903,41.20571467086346,29.07209517817164,177.4879,0.03121054,214.9294694809967,3,6.000906205260658,-9999,106016.465851875,0.977935791015625,0.1120758056640625,-0.054351806640625,106016.459839875,-2.27077065383626,1.517446446200997,-0.105667862050564,-0.01463468372821808,0.1121373251080513,-0.002719229785725474,-0.01372015476226807,0.01013639569282532,0.003760099411010742,2,0.6067681574269581,0.3245286287116821,-0.6724097027564594,0.2727244864758348,0.9930074214935303,0.1054713279008865,-0.05302714556455612,52.90296173095703,-26.34434127807617,0.449920654296875,2,106016.208267375,4,1,1582558926.380342,1582558685.643339,11,0.6387488,0,0,10.91,0,0,1582558765.788069,106013.309225,0,5.828949,99.29535
1582558926.653208,115,0,1582558925.101903,41.20571467086346,29.07209517817164,177.4879,0.03121054,214.9294694809967,3,6.000906205260658,-9999,106016.475891875,0.9720916748046875,0.109619140625,-0.0557403564453125,106016.469879875,-2.270641501574022,1.518495886589768,-0.1056513354768027,-0.0120974900200963,0.1021755114197731,0.002670741640031338,-0.01624900102615356,0.005285292863845825,-0.004087567329406738,2,0.6071027140304565,0.3247056195414186,-0.6720715776787762,0.2726029167093257,0.9930643439292908,0.1054548919200897,-0.05198511108756065,52.90296173095703,-26.34434127807617,0.449920654296875,2,106016.208267375,4,1,1582558926.380342,1582558685.643339,11,0.6387488,0,0,10.91,0,0,1582558765.788069,106013.309225,0,5.828949,99.29535
1582558926.654335,116,0,1582558925.101903,41.20571467086346,29.07209517817164,177.4879,0.03121054,214.9294694809967,3,6.000906205260658,-9999,106016.485931875,0.9584503173828125,0.1105194091796875,-0.0629730224609375,106016.479919875,-2.270541287782487,1.519557418332794,-0.1055213250867821,-0.008611520752310753,0.1053727939724922,0.01331854145973921,-0.02385514974594116,0.004590660333633423,-0.005827724933624268,2,0.6074650410567582,0.3248390580624451,-0.6717190652123891,0.272505861235794,0.9931327700614929,0.1053256094455719,-0.05093162134289742,52.80637359619141,-26.33561706542969,0.598846435546875,2,106016.208267375,4,1,1582558926.380342,1582558685.643339,11,0.6387488,0,0,10.91,0,0,1582558765.788069,106013.309225,0,5.828949,99.29535
1582558926.664006,117,0,1582558925.101903,41.20571467086346,29.07209517817164,177.4879,0.03121054,214.9294694809967,3,6.000906205260658,-9999,106016.495971875,0.9591827392578125,0.1082916259765625,-0.0661163330078125,106016.489959875,-2.270406768275216,1.520836822661947,-0.1052582066009604,-0.01264594309031963,0.1256370544433594,0.02797657996416092,-0.03667289018630981,0.004745602607727051,-0.01478773355484009,2,0.6079172598775754,0.3249698991661363,-0.6712783222350212,0.2724273263506317,0.9932247400283813,0.1050639525055885,-0.04966234043240547,52.80637359619141,-26.33561706542969,0.598846435546875,2,106016.208267375,4,1,1582558926.380342,1582558685.643339,11,0.6387488,0,0,10.91,0,0,1582558765.788069,106013.309225,0,5.828949,99.29535
1582558926.674076,118,0,1582558925.101903,41.20571467086346,29.07209517817164,177.4879,0.03121054,214.9294694809967,3,6.000906205260658,-9999,106016.506012875,0.977874755859375,0.111328125,-0.051971435546875,106016.500000875,-2.270284403800546,1.522204133200659,-0.1048996030576905,-0.009723973460495472,0.1399886459112167,0.03498170524835587,-0.0309484601020813,0.004079937934875488,-0.01693779230117798,2,0.6084167626401492,0.325078465540763,-0.6707999068655914,0.2723609085743817,0.9933291673660278,0.1047073230147362,-0.04830606654286385,52.79566192626953,-26.38312911987305,0.631317138671875,2,106016.208267375,4,1,1582558926.380342,1582558685.643339,11,0.6387488,0,0,10.91,0,0,1582558765.788069,106013.309225,0,5.828949,99.29535
1582558926.686531,119,0,1582558925.101903,41.20571467086346,29.07209517817164,177.4879,0.03121054,214.9294694809967,3,6.000906205260658,-9999,106016.516052875,0.98236083984375,0.112213134765625,-0.04229736328125,106016.510040875,-2.270183033140523,1.523265604841014,-0.1044272574192169,-0.008079204708337784,0.1060503870248795,0.04761388152837753,-0.0135158896446228,0.007647395133972168,-0.001083016395568848,2,0.6088359717970304,0.3251026930429939,-0.6704025375571169,0.2723736709852398,0.9934291839599609,0.1042375639081001,-0.04725399613380432,52.79566192626953,-26.38312911987305,0.631317138671875,2,106016.208267375,4,1,1582558926.380342,1582558685.643339,11,0.6387488,0,0,10.91,0,0,1582558765.788069,106013.309225,0,5.828949,99.29535
1582558926.712097,120,0,1582558925.101903,41.20571467086346,29.07209517817164,177.4879,0.03121054,214.9294694809967,3,6.000906205260658,-9999,106016.526092875,0.9860992431640625,0.106597900390625,-0.0500640869140625,106016.520080875,-2.270113560190109,1.524134594873113,-0.1039393867007306,-0.003346591722220182,0.08617189526557922,0.05037041008472443,-0.01153212785720825,0.007995367050170898,0.003045380115509033,2,0.6091982443981812,0.3250860928103337,-0.6700657858448191,0.2724119787808143,0.9935204982757568,0.1037523373961449,-0.04639306291937828,52.68289947509766,-26.44259262084961,0.89013671875,2,106016.208267375,4,1,1582558926.380342,1582558685.643339,11,0.6387488,0,0,10.91,0,0,1582558765.788069,106013.309225,0,5.828949,99.29535
1582558926.713419,121,0,1582558925.101903,41.20571467086346,29.07209517817164,177.4879,0.03121054,214.9294694809967,3,6.000906205260658,-9999,106016.536163875,0.9907073974609375,0.0978546142578125,-0.055145263671875,106016.530121875,-2.270032200856861,1.52503872068723,-0.1034926488917329,-0.006391384173184633,0.09042975306510925,0.04768700897693634,-0.006904959678649902,0.001283437013626099,-0.006685853004455566,2,0.6095631906276883,0.3250911701716557,-0.6697218367744713,0.2724355041908438,0.993608295917511,0.1033079996705055,-0.04549689590930939,52.68289947509766,-26.44259262084961,0.89013671875,2,106016.208267375,4,1,1582558926.380342,1582558685.643339,11,0.6387488,0,0,10.91,0,0,1582558765.788069,106013.309225,0,5.828949,99.29535
1582558926.714773,122,0,1582558925.101903,41.20571467086346,29.07209517817164,177.4879,0.03121054,214.9294694809967,3,6.000906205260658,-9999,106016.546203875,0.998992919921875,0.0991363525390625,-0.0394744873046875,106016.540161875,-2.269952770962997,1.525876463205988,-0.1031523671647046,-0.007187392096966505,0.0866132453083992,0.03334486111998558,-0.001805305480957031,-0.005885392427444458,-0.009088635444641113,2,0.6098880995128181,0.3251207042363303,-0.6694118214356815,0.2724350188302115,0.9936811327934265,0.1029695346951485,-0.04466606676578522,52.62566375732422,-26.48330688476562,0.860260009765625,2,106016.208267375,4,1,1582558926.380342,1582558685.643339,11,0.6387488,0,0,10.91,0,0,1582558765.788069,106013.309225,0,5.828949,99.29535
1582558926.724568,123,0,1582558925.101903,41.20571467086346,29.07209517817164,177.4879,0.03121054,214.9294694809967,3,6.000906205260658,-9999,106016.556244875,0.991455078125,0.108154296875,-0.033935546875,106016.550201875,-2.269910894142722,1.526254491141389,-0.1027961032348094,-0.002142299432307482,0.03510025143623352,0.03582213073968887,0.005755424499511719,-0.00180777907371521,0.008191585540771484,2,0.610067829980359,0.3250710928044542,-0.6692449145665008,0.2725018252036295,0.9937345385551453,0.1026151552796364,-0.04429205507040024,52.62566375732422,-26.48330688476562,0.860260009765625,2,106016.208267375,4,1,1582558926.380342,1582558685.643339,11,0.6387488,0,0,10.91,0,0,1582558765.788069,106013.309225,0,5.828949,99.29535
1582558926.734321,124,0,1582558925.101903,41.20571467086346,29.07209517817164,177.4879,0.03121054,214.9294694809967,3,6.000906205260658,-9999,106016.566284875,0.9792022705078125,0.1102142333984375,-0.0431671142578125,106016.560241875,-2.269899008499731,1.52634922365018,-0.1022983804923008,-0.0006807405734434724,0.01139919646084309,0.05052603781223297,-0.005957365036010742,0.007110297679901123,0.007550418376922607,2,0.610181406715157,0.3249285461924934,-0.6691502502024907,0.2726500538974299,0.9937896728515625,0.1021200492978096,-0.04420018196105957,52.67005157470703,-26.49481582641602,0.818084716796875,2,106016.208267375,4,1,1582558926.380342,1582558685.643339,11,0.6387488,0,0,10.91,0,0,1582558765.788069,106013.309225,0,5.828949,99.29535
1582558926.74731,125,0,1582558925.101903,41.20571467086346,29.07209517817164,177.4879,0.03121054,214.9294694809967,3,6.000906205260658,-9999,106016.576324875,0.9749755859375,0.1118927001953125,-0.0422515869140625,106016.570282875,-2.269982360092076,1.526270453402763,-0.1016276039489484,0.0107223829254508,-0.005163002759218216,0.06713937222957611,-0.01554363965988159,0.00887635350227356,0.0006432533264160156,2,0.6102814825168829,0.3246779341732078,-0.6690991192119741,0.2728500640277269,0.9938544034957886,0.1014527529478073,-0.0442815013229847,52.67005157470703,-26.49481582641602,0.818084716796875,2,106016.208267375,4,1,1582558926.380342,1582558685.643339,11,0.6387488,0,0,10.91,0,0,1582558765.788069,106013.309225,0,5.828949,99.29535
1582558926.77,126,0,1582558925.101903,41.20571467086346,29.07209517817164,177.4879,0.03121054,214.9294694809967,3,6.000906205260658,-9999,106016.586364875,0.9724578857421875,0.1082916259765625,-0.0480499267578125,106016.580322875,-2.270135521296547,1.526077787512162,-0.1008183442126401,0.01982917450368404,-0.0170721635222435,0.08139053732156754,-0.02088117599487305,0.01175683736801147,0.001967549324035645,2,0.6103779710558592,0.3243461287022578,-0.6690743761163168,0.2730895807151683,0.9939275979995728,0.1006476357579231,-0.04447664320468903,52.61516571044922,-26.52749252319336,0.8704833984375,2,106016.208267375,4,1,1582558926.380342,1582558685.643339,11,0.6387488,0,0,10.91,0,0,1582558765.788069,106013.309225,0,5.828949,99.29535
1582558926.771061,127,0,1582558925.101903,41.20571467086346,29.07209517817164,177.4879,0.03121054,214.9294694809967,3,6.000906205260658,-9999,106016.596405875,0.9873809814453125,0.0938568115234375,-0.0592193603515625,106016.590362875,-2.270241635265873,1.525962981586326,-0.1000550456364505,0.01407594885677099,-0.01379461027681828,0.07600030303001404,-0.01881629228591919,0.00537535548210144,-0.005956172943115234,2,0.6104850355479745,0.3240538998984261,-0.6690253057615818,0.2733173725486267,0.9939990043640137,0.09988819062709808,-0.0445941835641861,52.61516571044922,-26.52749252319336,0.8704833984375,2,106016.208267375,4,1,1582558926.380342,1582558685.643339,11,0.6387488,0,0,10.91,0,0,1582558765.788069,106013.309225,0,5.828949,99.29535
1582558926.774508,128,0,1582558925.101903,41.20571467086346,29.07209517817164,177.4879,0.03121054,214.9294694809967,3,6.000906205260658,-9999,106016.606445875,0.9971160888671875,0.0892486572265625,-0.0487213134765625,106016.600403875,-2.270300596568677,1.526005754425424,-0.09945975120822259,0.008865335956215858,0.009089738130569458,0.0588708408176899,-0.004793763160705566,-0.007047951221466064,-0.01545679569244385,2,0.6106088785457652,0.3238512605751375,-0.6689432827657694,0.2734814462930819,0.9940600395202637,0.09929585456848145,-0.04455431550741196,52.62920379638672,-26.51490020751953,0.791748046875,2,106016.208267375,4,1,1582558926.380342,1582558685.643339,11,0.6387488,0,0,10.91,0,0,1582558765.788069,106013.309225,0,5.828949,99.29535
1582558926.784495,129,0,1582558925.101903,41.20571467086346,29.07209517817164,177.4879,0.03121054,214.9294694809967,3,6.000906205260658,-9999,106016.616485875,0.9959259033203125,0.09368896484375,-0.0367279052734375,106016.610443875,-2.270334236044599,1.525761286464153,-0.09898162896450398,0.006148112472146749,-0.0239582285284996,0.04751139879226685,0.00385206937789917,-0.009394943714141846,-0.0001206398010253906,2,0.6106128022537214,0.3236545575710692,-0.6689606925764681,0.2736630079739282,0.9940964579582214,0.09882008284330368,-0.04479946568608284,52.62920379638672,-26.51490020751953,0.791748046875,2,106016.208267375,4,1,1582558926.380342,1582558685.643339,11,0.6387488,0,0,10.91,0,0,1582558765.788069,106013.309225,0,5.828949,99.29535
1582558926.795252,130,0,1582558925.101903,41.20571467086346,29.07209517817164,177.4879,0.03121054,214.9294694809967,3,6.000906205260658,-9999,106016.626526875,0.9815216064453125,0.09771728515625,-0.0489349365234375,106016.620483875,-2.270343845272064,1.525235662850301,-0.09857001032464904,0.00298087066039443,-0.05713660642504692,0.03993517905473709,-5.578994750976562e-05,-0.003492057323455811,0.007941663265228271,2,0.6105076124312659,0.3234478964686845,-0.6690691700176608,0.2738766520547563,0.9941133260726929,0.0984104722738266,-0.04532382637262344,52.66190338134766,-26.47696685791016,0.839080810546875,2,106016.208267375,4,1,1582558926.380342,1582558685.643339,11,0.6387488,0,0,10.91,0,0,1582558765.788069,106013.309225,0,5.828949,99.29535
1582558926.805857,131,0,1582558925.101903,41.20571467086346,29.07209517817164,177.4879,0.03121054,214.9294694809967,3,6.000906205260658,-9999,106016.636566875,0.965087890625,0.0979156494140625,-0.064666748046875,106016.630554875,-2.270326910573653,1.524889408341433,-0.09822147091758879,-0.0002833659236785024,-0.03614477440714836,0.03416464105248451,-0.01734739542007446,-0.0001544654369354248,-0.007917523384094238,2,0.6104475253373255,0.3232940070514209,-0.6691273758292244,0.2740498661981201,0.9941316843032837,0.09806361794471741,-0.04566960781812668,52.66190338134766,-26.47696685791016,0.839080810546875,2,106016.208267375,4,1,1582558926.380342,1582558685.643339,11,0.6387488,0,0,10.91,0,0,1582558765.788069,106013.309225,0,5.828949,99.29535
1582558926.830269,132,0,1582558925.101903,41.20571467086346,29.07209517817164,177.4879,0.03121054,214.9294694809967,3,6.000906205260658,-9999,106016.646606875,0.967010498046875,0.093780517578125,-0.0658721923828125,106016.640594875,-2.270239953083817,1.52490089965253,-0.09794299680886735,-0.005845936946570873,3.257393836975098e-05,0.02787184715270996,-0.03003996610641479,-0.0005028843879699707,-0.02036362886428833,2,0.6104840210759149,0.3232329521535098,-0.6690759190000829,0.2741662986527059,0.994159460067749,0.09778647869825363,-0.04565943777561188,52.67366790771484,-26.85074234008789,0.927337646484375,2,106016.208267375,4,1,1582558926.380342,1582558685.643339,11,0.6387488,0,0,10.91,0,0,1582558765.788069,106014.245489,0,5.828949,99.29535
1582558926.831596,133,0,1582558925.101903,41.20571467086346,29.07209517817164,177.4879,0.03121054,214.9294694809967,3,6.000906205260658,-9999,106016.656646875,0.976654052734375,0.0966644287109375,-0.053192138671875,106016.650635875,-2.270031608178383,1.525051454080939,-0.0976669222420449,-0.02062435075640678,0.01335104182362556,0.02923991158604622,-0.02538937330245972,-0.003737568855285645,-0.01874208450317383,2,0.6105470137211649,0.3232287833666439,-0.6689656323554535,0.2743000640709072,0.9941933155059814,0.09751172363758087,-0.04551099613308907,52.67366790771484,-26.85074234008789,0.927337646484375,2,106016.208267375,4,1,1582558926.380342,1582558685.643339,11,0.6387488,0,0,10.91,0,0,1582558765.788069,106014.245489,0,5.828949,99.29535
1582558926.834778,134,0,1582558925.101903,41.20571467086346,29.07209517817164,177.4879,0.03121054,214.9294694809967,3,6.000906205260658,-9999,106016.666687875,0.9725341796875,0.1002044677734375,-0.0525970458984375,106016.660675875,-2.269797793459055,1.525179439609068,-0.09734081920317364,-0.02267075330018997,0.01045753434300423,0.03369704633951187,-0.01737028360366821,0.0002186000347137451,-0.006493031978607178,2,0.6106067211100916,0.3232132916876304,-0.6688522003798812,0.2744619902333576,0.9942308068275452,0.09718716889619827,-0.0453852005302906,52.78379058837891,-26.78713989257812,0.625335693359375,2,106016.208267375,4,1,1582558926.380342,1582558685.643339,11,0.6387488,0,0,10.91,0,0,1582558765.788069,106014.245489,0,5.828949,99.29535
1582558926.84499,135,0,1582558925.101903,41.20571467086346,29.07209517817164,177.4879,0.03121054,214.9294694809967,3,6.000906205260658,-9999,106016.676727875,0.9703826904296875,0.1067962646484375,-0.044677734375,106016.670715875,-2.2695999384035,1.525259340351099,-0.09689145891183122,-0.01716653071343899,0.01091293618083,0.04598567262291908,-0.02344465255737305,0.004404425621032715,-0.00757753849029541,2,0.610676804823671,0.3231407842141424,-0.6687423672419091,0.2746591448819506,0.9942780733108521,0.09673992544412613,-0.04530774801969528,52.78379058837891,-26.78713989257812,0.625335693359375,2,106016.208267375,4,1,1582558926.380342,1582558685.643339,11,0.6387488,0,0,10.91,0,0,1582558765.788069,106014.245489,0,5.828949,99.29535
1582558926.855246,136,0,1582558925.101903,41.20571467086346,29.07209517817164,177.4879,0.03121054,214.9294694809967,3,6.000906205260658,-9999,106016.686767875,0.9660797119140625,0.107421875,-0.0453643798828125,106016.680755875,-2.269456577649138,1.5250726698966,-0.09626324789232477,-0.008972508832812309,-0.02471487782895565,0.06376268714666367,-0.02418339252471924,0.01165208220481873,0.003215551376342773,2,0.6106965667956625,0.3229576586596259,-0.6686979564995627,0.2749381825897971,0.9943298697471619,0.09611464291810989,-0.04549610987305641,52.74346160888672,-26.79290390014648,0.60699462890625,2,106016.208267375,4,1,1582558926.380342,1582558685.643339,11,0.6387488,0,0,10.91,0,0,1582558765.788069,106014.245489,0,5.828949,99.29535
1582558926.864979,137,0,1582558925.101903,41.20571467086346,29.07209517817164,177.4879,0.03121054,214.9294694809967,3,6.000906205260658,-9999,106016.696808875,0.9643707275390625,0.1052093505859375,-0.05511474609375,106016.690796875,-2.269307135702487,1.525007516986155,-0.09548593109688318,-0.01270412933081388,-0.003505196422338486,0.07797703891992569,-0.03017520904541016,0.01122057437896729,-0.00402534008026123,2,0.6107809049748101,0.3227453150321248,-0.6685962082299713,0.2752473821403202,0.994401216506958,0.09534090012311935,-0.04556429386138916,52.74346160888672,-26.79290390014648,0.60699462890625,2,106016.208267375,4,1,1582558926.380342,1582558685.643339,11,0.6387488,0,0,10.91,0,0,1582558765.788069,106014.245489,0,5.828949,99.29535
1582558926.887713,138,0,1582558925.101903,41.20571467086346,29.07209517817164,177.4879,0.03121054,214.9294694809967,3,6.000906205260658,-9999,106016.706848875,0.9753570556640625,0.106201171875,-0.0458221435546875,106016.700836875,-2.269207780335653,1.524922600991716,-0.0945895475753228,-0.005408553406596184,-0.009787904098629951,0.08907449990510941,-0.02827286720275879,0.01110607385635376,-0.007950007915496826,2,0.6108865609979363,0.3224768005558117,-0.6684918807986239,0.2755811866935859,0.9944825172424316,0.09444855898618698,-0.04565264657139778,52.59987640380859,-26.88935470581055,0.800872802734375,2,106016.208267375,4,1,1582558926.380342,1582558685.643339,11,0.6387488,0,0,10.91,0,0,1582558765.788069,106014.245489,0,5.828949,99.29535
1582558926.889272,139,0,1582558925.101903,41.20571467086346,29.07209517817164,177.4879,0.03121054,214.9294694809967,3,6.000906205260658,-9999,106016.716888875,0.979156494140625,0.1053619384765625,-0.045745849609375,106016.710876875,-2.269110628523253,1.524721813900122,-0.09348584466743037,-0.003838619915768504,-0.01657896488904953,0.1112913861870766,-0.01872354745864868,0.0128612220287323,-7.033348083496094e-05,2,0.6109884773953538,0.3221250281079955,-0.6683959163284239,0.2759989643978646,0.9945767521858215,0.09334973245859146,-0.04585709422826767,52.59987640380859,-26.88935470581055,0.800872802734375,2,106016.208267375,4,1,1582558926.380342,1582558685.643339,11,0.6387488,0,0,10.91,0,0,1582558765.788069,106014.245489,0,5.828949,99.29535
1582558926.895192,140,0,1582558925.101903,41.20571467086346,29.07209517817164,177.4879,0.03121054,214.9294694809967,3,6.000906205260658,-9999,106016.726928875,0.978515625,0.1048583984375,-0.040985107421875,106016.720916875,-2.269038036982109,1.524201014613105,-0.09214847039916728,-0.001018826151266694,-0.05443629622459412,0.1347502171993256,-0.01438307762145996,0.01300296187400818,0.001796305179595947,2,0.6110263122456123,0.3216464326006257,-0.6683704339143361,0.276534585822612,0.9946765899658203,0.09201811254024506,-0.04638083651661873,52.61168670654297,-27.02324295043945,0.85443115234375,2,106016.208267375,4,1,1582558926.380342,1582558685.643339,11,0.6387488,0,0,10.91,0,0,1582558765.788069,106014.245489,0,5.828949,99.29535
1582558926.904995,141,0,1582558925.101903,41.20571467086346,29.07209517817164,177.4879,0.03121054,214.9294694809967,3,6.000906205260658,-9999,106016.736969875,0.97039794921875,0.0994110107421875,-0.049041748046875,106016.730957875,-2.269020360897451,1.523554071944394,-0.09065747104054855,0.005194061901420355,-0.06369078159332275,0.1499574035406113,-0.01853245496749878,0.01374039053916931,0.004964113235473633,2,0.6110562599330525,0.3210838987398291,-0.668370755593287,0.2771208302910868,0.9947823286056519,0.09053333848714828,-0.04703075438737869,52.61168670654297,-27.02324295043945,0.85443115234375,2,106016.208267375,4,1,1582558926.380342,1582558685.643339,11,0.6387488,0,0,10.91,0,0,1582558765.788069,106014.245489,0,5.828949,99.29535
1582558926.915104,142,0,1582558925.101903,41.20571467086346,29.07209517817164,177.4879,0.03121054,214.9294694809967,3,6.000906205260658,-9999,106016.747009875,0.9629974365234375,0.0772857666015625,-0.0688934326171875,106016.740997875,-2.268970476600746,1.522894925005598,-0.08929539317729733,0.007307337131351233,-0.06873311102390289,0.1375089138746262,-0.02622228860855103,0.008291870355606079,-0.003331124782562256,2,0.6110552269043944,0.3205703609466352,-0.6683868460720581,0.277678054453029,0.9948732852935791,0.08917677402496338,-0.04769230633974075,52.45195770263672,-27.16400909423828,0.6934814453125,2,106016.208267375,4,1,1582558926.380342,1582558685.643339,11,0.6387488,0,0,10.91,0,0,1582558765.788069,106014.245489,0,5.828949,99.29535
1582558926.92639,143,0,1582558925.101903,41.20571467086346,29.07209517817164,177.4879,0.03121054,214.9294694809967,3,6.000906205260658,-9999,106016.757049875,0.958709716796875,0.060760498046875,-0.112152099609375,106016.751037875,-2.268652294075896,1.523212525871644,-0.08843963866174123,-0.02785464376211166,0.02937960252165794,0.0858936607837677,-0.03339308500289917,-0.01792466640472412,-0.03167372941970825,2,0.611253019172996,0.3204368514194813,-0.6681333595382002,0.2780065661703185,0.9949641823768616,0.08832439780235291,-0.04737994074821472,52.45195770263672,-27.16400909423828,0.6934814453125,2,106016.208267375,4,1,1582558926.380342,1582558685.643339,11,0.6387488,0,0,10.91,0,0,1582558765.788069,106014.245489,0,5.828949,99.29535
1582558926.945576,144,0,1582558925.101903,41.20571467086346,29.07209517817164,177.4879,0.03121054,214.9294694809967,3,6.000906205260658,-9999,106016.767090875,0.9883575439453125,0.0655059814453125,-0.0623321533203125,106016.761078875,-2.268146583007526,1.524482442365341,-0.08804862212370097,-0.0497867688536644,0.1306837797164917,0.04172668606042862,-0.03356295824050903,-0.02662929892539978,-0.06423157453536987,2,0.6116611885905697,0.3206424809488375,-0.6676234639044489,0.2780967591033482,0.995058000087738,0.08793489634990692,-0.04611798003315926,52.41753387451172,-27.29608917236328,0.7567138671875,2,106016.208267375,4,1,1582558926.380342,1582558685.643339,11,0.6387488,0,0,10.91,0,0,1582558765.788069,106014.245489,0,5.828949,99.29535
1582558926.946287,145,0,1582558925.101903,41.20571467086346,29.07209517817164,177.4879,0.03121054,214.9294694809967,3,6.000906205260658,-9999,106016.777130875,0.99609375,0.0788421630859375,-0.0390167236328125,106016.771118875,-2.267635098893626,1.525557918742037,-0.08796496421238727,-0.04972844570875168,0.1026369631290436,0.009979944676160812,-0.001087367534637451,-0.02061024308204651,-0.005944728851318359,2,0.6119519829100543,0.3209216546044446,-0.6672123432616128,0.2781216687075399,0.9951143860816956,0.08785156160593033,-0.04504812508821487,52.41753387451172,-27.29608917236328,0.7567138671875,2,106016.208267375,4,1,1582558926.380342,1582558685.643339,11,0.6387488,0,0,10.91,0,0,1582558765.788069,106014.245489,0,5.828949,99.29535
1582558926.955092,146,0,1582558925.101903,41.20571467086346,29.07209517817164,177.4879,0.03121054,214.9294694809967,3,6.000906205260658,-9999,106016.787201875,0.9827117919921875,0.0919036865234375,-0.04351806640625,106016.781158875,-2.267203925731904,1.526447310087828,-0.08802131417501918,-0.04288029298186302,0.0834788978099823,-0.002077368553727865,-0.00264817476272583,-0.005758613348007202,0.003500103950500488,2,0.6121699842794552,0.3211954004309412,-0.6668877393550863,0.2781048244200991,0.9951493144035339,0.08790769428014755,-0.04416285082697868,52.36054229736328,-27.27558135986328,0.81036376953125,2,106016.208267375,4,1,1582558926.380342,1582558685.643339,11,0.6387488,0,0,10.91,0,0,1582558765.788069,106014.245489,0,5.828949,99.29535
1582558926.965136,147,0,1582558925.101903,41.20571467086346,29.07209517817164,177.4879,0.03121054,214.9294694809967,3,6.000906205260658,-9999,106016.797241875,0.973358154296875,0.0951385498046875,-0.048431396484375,106016.791198875,-2.266876814453241,1.527282025526468,-0.08813349794155609,-0.03386522829532623,0.07965246587991714,-0.007858025841414928,-0.01424115896224976,0.00505492091178894,-0.0009020566940307617,2,0.6123770167790027,0.3214475396524666,-0.6666014877529095,0.2780438856396731,0.9951758980751038,0.08801944553852081,-0.04333173856139183,52.32982635498047,-27.46949005126953,0.805572509765625,2,106016.208267375,4,1,1582558926.380342,1582558685.643339,11,0.6387488,0,0,10.91,0,0,1582558765.788069,106014.245489,0,5.828949,99.29535
1582558926.975432,148,0,1582558925.101903,41.20571467086346,29.07209517817164,177.4879,0.03121054,214.9294694809967,3,6.000906205260658,-9999,106016.807281875,0.9655914306640625,0.0964813232421875,-0.0525665283203125,106016.801239875,-2.266707951696691,1.528308348412528,-0.08832469347612881,-0.01688092015683651,0.1022480502724648,-0.01757829636335373,-0.02424746751785278,0.00758051872253418,-0.007783889770507812,2,0.6126600285472646,0.3217030921965662,-0.6662888309510544,0.2778738948375515,0.9952028393745422,0.08820989727973938,-0.04230961948633194,52.32982635498047,-27.46949005126953,0.805572509765625,2,106016.208267375,4,1,1582558926.380342,1582558685.643339,11,0.6387488,0,0,10.91,0,0,1582558765.788069,106014.245489,0,5.828949,99.29535
1582558926.992452,149,0,1582558925.101903,41.20571467086346,29.07209517817164,177.4879,0.03121054,214.9294694809967,3,6.000906205260658,-9999,106016.817322875,0.9671783447265625,0.091400146484375,-0.0540313720703125,106016.811279875,-2.266671256313627,1.529550756906532,-0.08862484175489796,-0.004124111961573362,0.1213426515460014,-0.02931324951350689,-0.03023874759674072,0.007556140422821045,-0.01160013675689697,2,0.6130179079684763,0.3219829511009131,-0.66594268579292,0.2775901862026559,0.9952281713485718,0.08850887417793274,-0.0410720482468605,52.43138885498047,-27.21633911132812,0.75714111328125,2,106016.208267375,4,1,1582558926.380342,1582558685.643339,11,0.6387488,0,0,10.91,0,0,1582558765.788069,106014.245489,0,5.828949,99.29535
1582558926.995957,150,0,1582558925.101903,41.20571467086346,29.07209517817164,177.4879,0.03121054,214.9294694809967,3,6.000906205260658,-9999,106016.827362875,0.972503662109375,0.0868377685546875,-0.059326171875,106016.821319875,-2.266715981352061,1.531165583675791,-0.08906267692937081,0.001883714343421161,0.1627526879310608,-0.04290302842855453,-0.02742677927017212,0.001245319843292236,-0.01621520519256592,2,0.6134897126828031,0.3223332223744921,-0.6655115366963511,0.277174962262985,0.9952543377876282,0.08894497901201248,-0.03946333378553391,52.43138885498047,-27.21633911132812,0.75714111328125,2,106016.208267375,4,1,1582558926.380342,1582558685.643339,11,0.6387488,0,0,10.91,0,0,1582558765.788069,106014.245489,0,5.828949,99.29535
1582558927.005274,151,0,1582558925.101903,41.20571467086346,29.07209517817164,177.4879,0.03121054,214.9294694809967,3,6.000906205260658,-9999,106016.837402875,0.9767608642578125,0.0865478515625,-0.0540008544921875,106016.831360875,-2.26681039641956,1.533137128905683,-0.0896585182965816,0.005546625703573227,0.1984137445688248,-0.06075073033571243,-0.02165138721466064,-0.003178238868713379,-0.02152168750762939,2,0.6140615069336101,0.3227676114977706,-0.6649983357424818,0.27663466997244,0.9952771663665771,0.08953844755887985,-0.0374990701675415,52.39505767822266,-27.23520660400391,1.050201416015625,2,106016.208267375,4,1,1582558926.380342,1582558685.643339,11,0.6387488,0,0,10.91,0,0,1582558765.788069,106014.245489,0,5.828949,99.29535
1582558927.015342,152,0,1582558925.101903,41.20571467086346,29.07209517817164,177.4879,0.03121054,214.9294694809967,3,6.000906205260658,-9999,106016.847442875,0.9740447998046875,0.0972137451171875,-0.0418853759765625,106016.841400875,-2.266973899506809,1.535288131414197,-0.09030303737162687,0.01294075138866901,0.2234979420900345,-0.06758584827184677,-0.01930665969848633,-0.002477556467056274,-0.01718002557754517,2,0.6146955343849501,0.323220290655487,-0.6644453899121248,0.2760261699954513,0.9952977299690247,0.09018035233020782,-0.03535608574748039,52.39505767822266,-27.23520660400391,1.050201416015625,2,106016.208267375,4,1,1582558926.380342,1582558685.643339,11,0.6387488,0,0,10.91,0,0,1582558765.788069,106014.245489,0,5.828949,99.29535
1582558927.025603,153,0,1582558925.101903,41.20571467086346,29.07209517817164,177.4879,0.03121054,214.9294694809967,3,6.000906205260658,-9999,106016.857483875,0.966705322265625,0.10638427734375,-0.030792236328125,106016.851440875,-2.267224212333326,1.537351328716771,-0.09081612719401304,0.02300936356186867,0.2089773267507553,-0.05327907577157021,-0.02210837602615356,0.008959025144577026,-0.005853891372680664,2,0.615335838091098,0.3235912936461665,-0.6639132174903809,0.2754444886550624,0.995322048664093,0.09069134294986725,-0.03330096229910851,52.42182159423828,-27.09183883666992,1.25762939453125,2,106016.208267375,4,1,1582558926.380342,1582558685.643339,11,0.6387488,0,0,10.91,0,0,1582558765.788069,106014.245489,0,5.828949,99.29535
1582558927.035463,154,0,1582558925.101903,41.20571467086346,29.07209517817164,177.4879,0.03121054,214.9294694809967,3,6.000906205260658,-9999,106016.867523875,0.9628753662109375,0.1076507568359375,-0.0247802734375,106016.861480875,-2.267569330106289,1.539176844874288,-0.09111644086330081,0.03405650705099106,0.1863701641559601,-0.03141575679183006,-0.03088361024856567,0.01622822880744934,0.00194084644317627,2,0.6159475257019534,0.3238319144685495,-0.6634385743769887,0.2749379922239522,0.9953541159629822,0.09099041670560837,-0.03148307278752327,52.42182159423828,-27.09183883666992,1.25762939453125,2,106016.208267375,4,1,1582558926.380342,1582558685.643339,11,0.6387488,0,0,10.91,0,0,1582558765.788069,106014.245489,0,5.828949,99.29535
1582558927.052418,155,0,1582558925.101903,41.20571467086346,29.07209517817164,177.4879,0.03121054,214.9294694809967,3,6.000906205260658,-9999,106016.877563875,0.9652099609375,0.10552978515625,-0.03192138671875,106016.871521875,-2.267943729160713,1.54071245195766,-0.09113969879294095,0.03669090569019318,0.1538300663232803,-0.002416063100099564,-0.03161543607711792,0.01643392443656921,0.004806280136108398,2,0.6165135411039073,0.3239348782236222,-0.6630198702643633,0.274557590863276,0.995398998260498,0.09101357311010361,-0.02995449677109718,52.57021331787109,-27.0201301574707,1.37432861328125,2,106016.208267375,4,1,1582558926.380342,1582558685.643339,11,0.6387488,0,0,10.91,0,0,1582558765.788069,106014.245489,0,5.828949,99.29535
1582558927.055591,156,0,1582558925.101903,41.20571467086346,29.07209517817164,177.4879,0.03121054,214.9294694809967,3,6.000906205260658,-9999,106016.887604875,0.9667510986328125,0.093658447265625,-0.0344085693359375,106016.881592875,-2.268303010431181,1.542232115939514,-0.09098521982030178,0.03688923642039299,0.159868910908699,0.01512373611330986,-0.03150588274002075,0.01324611902236938,-0.005922436714172363,2,0.6171009783581338,0.3239834651762315,-0.6625800761835003,0.2742421841451385,0.9954574704170227,0.09085974097251892,-0.02844219282269478,52.57021331787109,-27.0201301574707,1.37432861328125,2,106016.208267375,4,1,1582558926.380342,1582558685.643339,11,0.6387488,0,0,10.91,0,0,1582558765.788069,106014.245489,0,5.828949,99.29535
1582558927.065587,157,0,1582558925.101903,41.20571467086346,29.07209517817164,177.4879,0.03121054,214.9294694809967,3,6.000906205260658,-9999,106016.897644875,0.9857635498046875,0.0889739990234375,-0.021026611328125,106016.891632875,-2.268617287716769,1.543391674704691,-0.09077458665391815,0.03170459344983101,0.1181486248970032,0.02032835222780704,-0.02557581663131714,0.0007758736610412598,-0.004390954971313477,2,0.6175708655509055,0.3239784307918077,-0.6622372850765348,0.2740181231727983,0.9955088496208191,0.09064997732639313,-0.0272884052246809,52.39499664306641,-27.09736251831055,1.571746826171875,2,106016.208267375,4,1,1582558926.380342,1582558685.643339,11,0.6387488,0,0,10.91,0,0,1582558765.788069,106014.245489,0,5.828949,99.29535
1582558927.076149,158,0,1582558925.101903,41.20571467086346,29.07209517817164,177.4879,0.03121054,214.9294694809967,3,6.000906205260658,-9999,106016.907684875,0.9880828857421875,0.087432861328125,-0.0295257568359375,106016.901672875,-2.268907506122229,1.544281672443157,-0.09055811395065791,0.02912632562220097,0.09300230443477631,0.02187370881438255,-0.007751345634460449,-0.001495659351348877,0.004778861999511719,2,0.6179483463341777,0.3239419441206607,-0.6619735014550082,0.2738477882153834,0.9955524206161499,0.09043438732624054,-0.02640291675925255,52.39499664306641,-27.09736251831055,1.571746826171875,2,106016.208267375,4,1,1582558926.380342,1582558685.643339,11,0.6387488,0,0,10.91,0,0,1582558765.788069,106014.245489,0,5.828949,99.29535
1582558927.08561,159,0,1582558925.101903,41.20571467086346,29.07209517817164,177.4879,0.03121054,214.9294694809967,3,6.000906205260658,-9999,106016.917724875,0.9903717041015625,0.08453369140625,-0.0280914306640625,106016.911712875,-2.269154815212244,1.545063794848364,-0.09042263298507497,0.02352729625999928,0.08181303739547729,0.01266263518482447,-0.008073985576629639,-0.003603756427764893,-0.005276918411254883,2,0.6182696373104654,0.3239295673547357,-0.6617477237605316,0.2736830531971339,0.9955851435661316,0.09029946476221085,-0.02562458254396915,52.51128387451172,-27.04497909545898,1.660552978515625,2,106016.208267375,4,1,1582558926.380342,1582558685.643339,11,0.6387488,0,0,10.91,0,0,1582558765.788069,106014.245489,0,5.828949,99.29535
