loggingTime,loggingSample,identifierForVendor,locationTimestamp_since1970,locationLatitude,locationLongitude,locationAltitude,locationSpeed,locationCourse,locationVerticalAccuracy,locationHorizontalAccuracy,locationFloor,accelerometerTimestamp_sinceReboot,accelerometerAccelerationX,accelerometerAccelerationY,accelerometerAccelerationZ,motionTimestamp_sinceReboot,motionYaw,motionRoll,motionPitch,motionRotationRateX,motionRotationRateY,motionRotationRateZ,motionUserAccelerationX,motionUserAccelerationY,motionUserAccelerationZ,motionAttitudeReferenceFrame,motionQuaternionX,motionQuaternionY,motionQuaternionZ,motionQuaternionW,motionGravityX,motionGravityY,motionGravityZ,motionMagneticFieldX,motionMagneticFieldY,motionMagneticFieldZ,motionMagneticFieldCalibrationAccuracy,activityTimestamp_sinceReboot,activity,activityActivityConfidence,activityActivityStartDate,pedometerStartDate,pedometerNumberofSteps,pedometerAverageActivePace,pedometerCurrentPace,pedometerCurrentCadence,pedometerDistance,pedometerFloorAscended,pedometerFloorDescended,pedometerEndDate,altimeterTimestamp_sinceReboot,altimeterReset,altimeterRelativeAltitude,altimeterPressure
1582550351.815329,1,0,1582550345.702354,41.2073041170373,29.07237498748199,161.2765,-1,-1,14.49210071563721,65,-9999,103239.6285864167,0.976226806640625,0.088226318359375,-0.0618896484375,103239.6235514167,2.99974735104702,1.506811821005284,-0.07792560941270611,-0.003428369760513306,0.005037944763898849,-0.001671686302870512,-0.008283734321594238,0.008280187845230103,0.02338695526123047,2,-0.683902372408745,0.02010321179853497,0.7250888052840693,0.07822753612391509,0.9949251413345337,0.07784676551818848,-0.06374680995941162,42.49822998046875,32.92873001098633,-11.31494140625,2,103237.4398221667,4,1,1582550349.598319,0,0,0,0,0,0,0,0,0,103237.111228,0,-3.075668,99.13359
1582550351.816544,2,0,1582550345.702354,41.2073041170373,29.07237498748199,161.2765,-1,-1,14.49210071563721,65,-9999,103239.6386274167,0.9739990234375,0.0909881591796875,-0.0560150146484375,103239.6335914167,2.999738973442265,1.506672112417347,-0.07787203788141411,0.002930726390331984,-0.01710624061524868,0.005799279548227787,-0.01587784290313721,0.00973743200302124,0.003918647766113281,2,-0.6838509638026056,0.02012013694233888,0.7251383162722576,0.0782137691375035,0.9949204325675964,0.07779335975646973,-0.06388607621192932,42.59909057617188,32.83866500854492,-11.28131103515625,2,103237.4398221667,4,1,1582550349.598319,0,0,0,0,0,0,0,0,0,103237.111228,0,-3.075668,99.13359
1582550351.817553,3,0,1582550345.702354,41.2073041170373,29.07237498748199,161.2765,-1,-1,14.49210071563721,65,-9999,103239.6486674167,0.9734344482421875,0.09149169921875,-0.058197021484375,103239.6436314167,2.99971451826067,1.506439168962187,-0.07778354507119305,0.002590392716228962,-0.02301543205976486,0.01020077150315046,-0.02114927768707275,0.01295369863510132,0.007065355777740479,2,-0.6837651443819657,0.02015164127220176,0.7252203725779649,0.07819490060839585,0.994912326335907,0.07770512998104095,-0.06411828100681305,42.59909057617188,32.83866500854492,-11.28131103515625,2,103237.4398221667,4,1,1582550349.598319,0,0,0,0,0,0,0,0,0,103237.111228,0,-3.075668,99.13359
1582550351.81861,4,0,1582550345.702354,41.2073041170373,29.07237498748199,161.2765,-1,-1,14.49210071563721,65,-9999,103239.6587384167,0.972503662109375,0.08642578125,-0.064544677734375,103239.6536724167,2.99967095188364,1.50619470751515,-0.07770007045534733,0.004469519481062889,-0.02440453693270683,0.008681437931954861,-0.02138411998748779,0.01407456398010254,0.006454706192016602,2,-0.6836750020901103,0.02018741192276202,0.7253055379440221,0.07818480559942159,0.9949032068252563,0.07762191444635391,-0.06436192244291306,42.42866516113281,32.86217880249023,-11.3023681640625,2,103237.4398221667,4,1,1582550349.598319,0,0,0,0,0,0,0,0,0,103237.111228,0,-3.075668,99.13359
1582550351.828504,5,0,1582550345.702354,41.2073041170373,29.07237498748199,161.2765,-1,-1,14.49210071563721,65,-9999,103239.6687784167,0.97137451171875,0.08575439453125,-0.0691375732421875,103239.6637124167,2.999630515568668,1.506131721212494,-0.07766155228656578,0.003219958860427141,-0.004345487803220749,0.00432033883407712,-0.02202379703521729,0.009871035814285278,0.001619517803192139,2,-0.6836512684406284,0.02021280792678792,0.725326884019849,0.07818700837641768,0.9949020743370056,0.07758350670337677,-0.06442476809024811,42.42866516113281,32.86217880249023,-11.3023681640625,2,103237.4398221667,4,1,1582550349.598319,0,0,0,0,0,0,0,0,0,103237.111228,0,-3.075668,99.13359
1582550351.839761,6,0,1582550345.702354,41.2073041170373,29.07237498748199,161.2765,-1,-1,14.49210071563721,65,-9999,103239.6788184167,0.9796142578125,0.0864410400390625,-0.058380126953125,103239.6737524167,2.999581265959355,1.506107913675548,-0.0776678186211221,0.004944355692714453,-0.0004719197750091553,0.000329858623445034,-0.02379179000854492,0.007606476545333862,-0.005208015441894531,2,-0.6836422153921735,0.02022642745112152,0.7253328571801279,0.07820723968455834,0.9949000477790833,0.07758975774049759,-0.06444842368364334,42.64187622070312,33.11886215209961,-11.52825927734375,2,103237.4398221667,4,1,1582550349.598319,0,0,0,0,0,0,0,0,0,103237.111228,0,-3.075668,99.13359
1582550351.861249,7,0,1582550345.702354,41.2073041170373,29.07237498748199,161.2765,-1,-1,14.49210071563721,65,-9999,103239.6888584167,0.9807586669921875,0.0866851806640625,-0.0567626953125,103239.6837934167,2.999549115998591,1.505958552165131,-0.07769935931808325,0.003822270315140486,-0.01674474030733109,-0.00325028644874692,-0.01743197441101074,0.009238243103027344,0.003836512565612793,2,-0.6835881153865988,0.02022008216373866,0.7253815251943081,0.07823113627518458,0.9948880672454834,0.07762119919061661,-0.06459687650203705,42.62876892089844,32.95615005493164,-11.2255859375,2,103237.4398221667,4,1,1582550349.598319,0,0,0,0,0,0,0,0,0,103237.111228,0,-3.075668,99.13359
1582550351.862465,8,0,1582550345.702354,41.2073041170373,29.07237498748199,161.2765,-1,-1,14.49210071563721,65,-9999,103239.6988994167,0.9672088623046875,0.0908050537109375,-0.06842041015625,103239.6938334167,2.999519638545218,1.505925805761949,-0.07770534138935214,0.003143697045743465,-0.001572713255882263,-0.0005434495396912098,-0.0124855637550354,0.008255720138549805,0.009285986423492432,2,-0.6835760140016416,0.02022669930104382,0.7253913926981512,0.07824419737132066,0.9948855638504028,0.07762716710567474,-0.06462942808866501,42.62876892089844,32.95615005493164,-11.2255859375,2,103239.6894694167,2,0,1582550351.847966,0,0,0,0,0,0,0,0,0,103237.111228,0,-3.075668,99.13359
1582550351.868579,9,0,1582550345.702354,41.2073041170373,29.07237498748199,161.2765,-1,-1,14.49210071563721,65,-9999,103239.7089394167,0.967010498046875,0.089813232421875,-0.0673828125,103239.7039044167,2.99949033293539,1.5060567206255,-0.07769583137311056,0.002548906020820141,0.01105171628296375,0.0006351168267428875,-0.02583098411560059,0.01287338137626648,-0.002837896347045898,2,-0.6836230840349047,0.02024529292251787,0.7253456892488908,0.07825025151861237,0.9948945045471191,0.07761768251657486,-0.06449921429157257,42.64877319335938,32.97333908081055,-11.0567626953125,2,103239.6894694167,2,0,1582550351.847966,0,0,0,0,0,0,0,0,0,103237.111228,0,-3.075668,99.13359
1582550351.879332,10,0,1582550345.702354,41.2073041170373,29.07237498748199,161.2765,-1,-1,14.49210071563721,65,-9999,103239.7189794167,0.971771240234375,0.089111328125,-0.065826416015625,103239.7139444167,2.999439298714902,1.506324120033896,-0.07768315848594301,0.005987579934298992,0.02908903919160366,0.001047374214977026,-0.0286567211151123,0.01224508881568909,-0.003714263439178467,2,-0.6837193791614038,0.02027782079385687,0.7252527728463849,0.07826174360231003,0.9949126839637756,0.07760504633188248,-0.06423324346542358,42.64877319335938,32.97333908081055,-11.0567626953125,2,103239.6894694167,2,0,1582550351.847966,0,0,0,0,0,0,0,0,0,103237.111228,0,-3.075668,99.13359
1582550351.888792,11,0,1582550345.702354,41.2073041170373,29.07237498748199,161.2765,-1,-1,14.49210071563721,65,-9999,103239.7290204167,0.97955322265625,0.086212158203125,-0.06005859375,103239.7239844167,2.999395875470217,1.506611005150792,-0.07767347082105436,0.004384574014693499,0.03031394444406033,0.0009799245744943619,-0.02460181713104248,0.01170548796653748,-0.00276339054107666,2,-0.6838228357562627,0.02030743528743056,0.7251535237350248,0.07827130248026937,0.9949320554733276,0.07759539037942886,-0.06394787132740021,42.55989074707031,32.97725296020508,-11.10955810546875,2,103239.6894694167,2,0,1582550351.847966,0,0,0,0,0,0,0,0,0,103237.111228,0,-3.075668,99.13359
1582550351.899695,12,0,1582550345.702354,41.2073041170373,29.07237498748199,161.2765,-1,-1,14.49210071563721,65,-9999,103239.7390604167,0.9816741943359375,0.0878753662109375,-0.0586700439453125,103239.7340244167,2.999350173597113,1.506825438113355,-0.07768306243023677,0.005002161022275686,0.02194362692534924,-0.001088019926100969,-0.01710736751556396,0.009208738803863525,0.002501070499420166,2,-0.6839002369907854,0.02032795973429702,0.7250780491975704,0.07828895443979189,0.9949449896812439,0.07760495692491531,-0.06373447924852371,42.55989074707031,32.97725296020508,-11.10955810546875,2,103239.6894694167,2,0,1582550351.847966,0,0,0,0,0,0,0,0,0,103237.111228,0,-3.075668,99.13359
1582550351.920004,13,0,1582550345.702354,41.2073041170373,29.07237498748199,161.2765,-1,-1,14.49210071563721,65,-9999,103239.7491004167,0.9780120849609375,0.0878753662109375,-0.059722900390625,103239.7440654167,2.999305452644643,1.506991302522065,-0.07770992122656759,0.003824749495834112,0.01663894206285477,-0.002174757421016693,-0.01345360279083252,0.0096244215965271,0.004746794700622559,2,-0.6839602554156068,0.02033995130754018,0.7250184381906436,0.07831259973983479,0.9949533343315125,0.07763173431158066,-0.06356930732727051,42.61276245117188,32.99467086791992,-11.15301513671875,2,103239.6894694167,2,0,1582550351.847966,0,0,0,0,0,0,0,0,0,103237.111228,0,-3.075668,99.13359
1582550351.92131,14,0,1582550345.702354,41.2073041170373,29.07237498748199,161.2765,-1,-1,14.49210071563721,65,-9999,103239.7591404167,0.9720916748046875,0.087921142578125,-0.061676025390625,103239.7541054167,2.999252817305804,1.50714465687074,-0.07774838867785117,0.004767242353409529,0.0160415917634964,-0.002940682228654623,-0.01593232154846191,0.01041004061698914,0.004212498664855957,2,-0.6840157962761175,0.02034994205917862,0.724962463600677,0.07834319918204397,0.9949601292610168,0.07767008244991302,-0.06341654062271118,42.61276245117188,32.99467086791992,-11.15301513671875,2,103239.6894694167,2,0,1582550351.847966,0,0,0,0,0,0,0,0,0,103237.111228,0,-3.075668,99.13359
1582550351.929127,15,0,1582550345.702354,41.2073041170373,29.07237498748199,161.2765,-1,-1,14.49210071563721,65,-9999,103239.7692114167,0.970428466796875,0.089996337890625,-0.06103515625,103239.7641454167,2.999177182026349,1.507321951820448,-0.07777593104572456,0.008537854067981243,0.01746641285717487,-0.002691000234335661,-0.02204489707946777,0.01024526357650757,0.00141143798828125,2,-0.6840796386930459,0.02037272063385204,0.724897776866909,0.07837817130279834,0.9949691891670227,0.07769754528999329,-0.06323999911546707,42.583251953125,32.91646194458008,-11.1473388671875,2,103239.6894694167,2,0,1582550351.847966,0,0,0,0,0,0,0,0,0,103237.111228,0,-3.075668,99.13359
1582550351.939032,16,0,1582550345.702354,41.2073041170373,29.07237498748199,161.2765,-1,-1,14.49210071563721,65,-9999,103239.7792524167,0.9727935791015625,0.0901031494140625,-0.0608367919921875,103239.7741864167,2.999088143381848,1.507538215474043,-0.07777454401901301,0.009177546016871929,0.0218499768525362,-0.0001535401679575443,-0.02463734149932861,0.01198610663414001,0.001867890357971191,2,-0.6841570908417035,0.0204121649796139,0.7248204493999217,0.07840777374812696,0.9949830174446106,0.07769615948200226,-0.06302483379840851,42.583251953125,32.91646194458008,-11.1473388671875,2,103239.6894694167,2,0,1582550351.847966,0,0,0,0,0,0,0,0,0,103237.111228,0,-3.075668,99.13359
1582550351.949071,17,0,1582550345.702354,41.2073041170373,29.07237498748199,161.2765,-1,-1,14.49210071563721,65,-9999,103239.7892924167,0.9774932861328125,0.088287353515625,-0.05987548828125,103239.7842264167,2.998974236532567,1.507763121210548,-0.07776147942766776,0.01266805827617645,0.02553845942020416,0.00175783783197403,-0.02323353290557861,0.01279258728027344,0.001384496688842773,2,-0.6842372667266013,0.0204647067329855,0.7247394877307125,0.07844230492111437,0.9949981570243835,0.07768313586711884,-0.06280111521482468,42.71902465820312,33.02526473999023,-11.11651611328125,2,103239.6894694167,2,0,1582550351.847966,0,0,0,0,0,0,0,0,0,103237.111228,0,-3.075668,99.13359
1582550351.960512,18,0,1582550345.702354,41.2073041170373,29.07237498748199,161.2765,-1,-1,14.49210071563721,65,-9999,103239.7993324167,0.9804534912109375,0.0874786376953125,-0.0574188232421875,103239.7942664167,2.99885191887967,1.507917786034373,-0.0777657025765988,0.01371095236390829,0.01445624604821205,-1.145526766777039e-07,-0.01849740743637085,0.01110991835594177,0.002374827861785889,2,-0.6842921132651525,0.02051108021365233,0.7246815391276276,0.07848647174379253,0.9950073957443237,0.0776873454451561,-0.06264720112085342,42.71902465820312,33.02526473999023,-11.11651611328125,2,103239.6894694167,2,0,1582550351.847966,0,0,0,0,0,0,0,0,0,103237.111228,0,-3.075668,99.13359
1582550351.984601,19,0,1582550345.702354,41.2073041170373,29.07237498748199,161.2765,-1,-1,14.49210071563721,65,-9999,103239.8093724167,0.981689453125,0.0879058837890625,-0.0572357177734375,103239.8043064167,2.998754999116163,1.508052528238515,-0.07778422194948313,0.009199860505759716,0.01627556420862675,-0.001344580203294754,-0.01508647203445435,0.009809732437133789,0.00471264123916626,2,-0.6843401744615151,0.02054278651365371,0.7246309268174632,0.07852650562545677,0.9950144290924072,0.07770580798387527,-0.06251303851604462,42.78878784179688,32.82915878295898,-11.2037353515625,2,103239.6894694167,2,0,1582550351.847966,0,0,0,0,0,0,0,0,0,103237.111228,0,-3.075668,99.13359
1582550351.986025,20,0,1582550345.702354,41.2073041170373,29.07237498748199,161.2765,-1,-1,14.49210071563721,65,-9999,103239.8194134167,0.9808807373046875,0.0871429443359375,-0.05780029296875,103239.8143774167,2.998669589200686,1.508098341036131,-0.07781293882727797,0.007822207175195217,0.003686802461743355,-0.003490555332973599,-0.0137748122215271,0.01020833849906921,0.00500255823135376,2,-0.6843562607542497,0.02056335108935109,0.7246107791817182,0.07856674670103519,0.995015025138855,0.07773444056510925,-0.0624673143029213,42.78878784179688,32.82915878295898,-11.2037353515625,2,103239.6894694167,2,0,1582550351.847966,0,0,0,0,0,0,0,0,0,103237.111228,0,-3.075668,99.13359
1582550351.9893,21,0,1582550345.702354,41.2073041170373,29.07237498748199,161.2765,-1,-1,14.49210071563721,65,-9999,103239.8294534167,0.9781036376953125,0.0877532958984375,-0.057952880859375,103239.8244184167,2.998544482244253,1.508062475755187,-0.07784582917892961,0.01509438641369343,-0.005938826128840446,-0.003186736721545458,-0.01384639739990234,0.009534776210784912,0.005022883415222168,2,-0.6843423939715052,0.02059277965826734,0.7246169904350321,0.07862364369722458,0.9950104355812073,0.07776723057031631,-0.06250285357236862,42.63078308105469,33.11954116821289,-11.00775146484375,2,103239.6894694167,2,0,1582550351.847966,0,0,0,0,0,0,0,0,0,103237.111228,0,-3.075668,99.13359
1582550351.999319,22,0,1582550345.702354,41.2073041170373,29.07237498748199,161.2765,-1,-1,14.49210071563721,65,-9999,103239.8394934167,0.9672393798828125,0.0908050537109375,-0.0619659423828125,103239.8344584167,2.998421861471733,1.508070184596551,-0.07788283306489169,0.01294681243598461,0.000592309981584549,-0.003431481309235096,-0.0158124566078186,0.00949782133102417,0.004648864269256592,2,-0.6843443957593545,0.02062156186958058,0.7246080864267173,0.07868057550113783,0.9950079917907715,0.07780411839485168,-0.06249499693512917,42.63078308105469,33.11954116821289,-11.00775146484375,2,103239.6894694167,2,0,1582550351.847966,0,0,0,0,0,0,0,0,0,103237.111228,0,-3.075668,99.13359
1582550352.009229,23,0,1582550345.702354,41.2073041170373,29.07237498748199,161.2765,-1,-1,14.49210071563721,65,-9999,103239.8495344167,0.967010498046875,0.0896759033203125,-0.06243896484375,103239.8444984167,2.998278502761727,1.508190887059773,-0.07790249617262707,0.01463833451271057,0.01378053240478039,-0.001077119261026382,-0.02578246593475342,0.01234686374664307,0.001156449317932129,2,-0.6843868953162462,0.02066820822587828,0.7245604198892347,0.07873795970784858,0.9950140714645386,0.07782372087240219,-0.06237480416893959,42.66485595703125,33.09701156616211,-10.9815673828125,2,103239.6894694167,2,0,1582550351.847966,0,0,0,0,0,0,0,0,0,103237.111228,0,-3.075668,99.13359
1582550352.041908,24,0,1582550345.702354,41.2073041170373,29.07237498748199,161.2765,-1,-1,14.49210071563721,65,-9999,103239.8595744167,0.973358154296875,0.0887908935546875,-0.0612640380859375,103239.8545384167,2.998136572716067,1.508396545553394,-0.07793110974244244,0.01473553851246834,0.02274020574986935,-0.002957577351480722,-0.02930247783660889,0.01239463686943054,-0.0005589723587036133,2,-0.6844602960895971,0.02071445506920061,0.7244833065911188,0.07879697733646795,0.995024561882019,0.07785224914550781,-0.06217002868652344,42.66485595703125,33.09701156616211,-10.9815673828125,2,103239.6894694167,2,0,1582550351.847966,0,0,0,0,0,0,0,0,0,103237.111228,0,-3.075668,99.13359
1582550352.04356,25,0,1582550345.702354,41.2073041170373,29.07237498748199,161.2765,-1,-1,14.49210071563721,65,-9999,103239.8696144167,0.9759979248046875,0.089324951171875,-0.058746337890625,103239.8645794167,2.998000031180801,1.508591766409457,-0.07793090581895049,0.01424643769860268,0.01988519355654716,0.0004992564208805561,-0.02276873588562012,0.01089942455291748,0.0004215240478515625,2,-0.6845295946313391,0.02076894639040017,0.7244110086967249,0.07884433004965674,0.9950366020202637,0.0778520479798317,-0.06197576969861984,42.58653259277344,33.04460525512695,-10.9375,2,103239.6894694167,2,0,1582550351.847966,0,0,0,0,0,0,0,0,0,103237.111228,0,-3.075668,99.13359
1582550352.044906,26,0,1582550345.702354,41.2073041170373,29.07237498748199,161.2765,-1,-1,14.49210071563721,65,-9999,103239.8796854167,0.976043701171875,0.089691162109375,-0.058563232421875,103239.8746194167,2.997870727471089,1.508754863982398,-0.0779060230957391,0.01203414984047413,0.017530158162117,0.00226732948794961,-0.01948481798171997,0.01130577921867371,0.002502560615539551,2,-0.684586998279877,0.02082870582361762,0.7243511989084248,0.07888101649782409,0.9950488209724426,0.07782723754644394,-0.06181361526250839,42.58653259277344,33.04460525512695,-10.9375,2,103239.6894694167,2,0,1582550351.847966,0,0,0,0,0,0,0,0,0,103237.111228,0,-3.075668,99.13359
1582550352.049504,27,0,1582550345.702354,41.2073041170373,29.07237498748199,161.2765,-1,-1,14.49210071563721,65,-9999,103239.8897254167,0.972747802734375,0.0892791748046875,-0.0590667724609375,103239.8846594167,2.997748422343477,1.508898572312627,-0.07786310059311297,0.01197162549942732,0.01394736766815186,0.004583812784403563,-0.01890188455581665,0.01153165102005005,0.002878546714782715,2,-0.6846372170813324,0.02089186686990757,0.7242988325305791,0.07890920550864938,0.9950609803199768,0.07778444886207581,-0.06167082116007805,42.69580078125,32.9126091003418,-11.0927734375,2,103239.6894694167,2,0,1582550351.847966,0,0,0,0,0,0,0,0,0,103237.111228,0,-3.075668,99.13359
1582550352.059462,28,0,1582550345.702354,41.2073041170373,29.07237498748199,161.2765,-1,-1,14.49210071563721,65,-9999,103239.8997654167,0.9680633544921875,0.089019775390625,-0.0619964599609375,103239.8947004167,2.997605637028608,1.509094235119788,-0.07781812086818531,0.01533093769103289,0.01747738569974899,0.00318352272734046,-0.02166390419006348,0.01175957918167114,0.002150058746337891,2,-0.6847060018358579,0.02096483810078575,0.7242278779105507,0.07894355004894121,0.9950764179229736,0.07773960381746292,-0.06147633492946625,42.69580078125,32.9126091003418,-11.0927734375,2,103239.6894694167,2,0,1582550351.847966,0,0,0,0,0,0,0,0,0,103237.111228,0,-3.075668,99.13359
1582550352.069503,29,0,1582550345.702354,41.2073041170373,29.07237498748199,161.2765,-1,-1,14.49210071563721,65,-9999,103239.9098064167,0.9734344482421875,0.0888519287109375,-0.0643310546875,103239.9047404167,2.997477696530012,1.509472554285711,-0.07773010451066513,0.01319289114326239,0.04200860485434532,0.009322574362158775,-0.02639365196228027,0.01108443737030029,0.0005532503128051758,2,-0.6848405044645089,0.02105561316703869,0.7240966796689363,0.07895594141877704,0.9951063990592957,0.07765185087919235,-0.06110028922557831,42.55810546875,32.86420822143555,-11.2952880859375,2,103239.6894694167,2,0,1582550351.847966,0,0,0,0,0,0,0,0,0,103237.111228,0,-3.075668,99.13359
1582550352.104493,30,0,1582550345.702354,41.2073041170373,29.07237498748199,161.2765,-1,-1,14.49210071563721,65,-9999,103239.9198464167,0.98260498046875,0.0864105224609375,-0.058074951171875,103239.9147804167,2.997370251642316,1.509868818699406,-0.07765821130514,0.01093506347388029,0.041853878647089,0.008055709302425385,-0.02410411834716797,0.01141548156738281,-0.004693269729614258,2,-0.6849818952144384,0.02113421496820683,0.7239594902598441,0.07896618126519567,0.9951360821723938,0.07758017629384995,-0.06070629507303238,42.55810546875,32.86420822143555,-11.2952880859375,2,103239.6894694167,2,0,1582550351.847966,0,0,0,0,0,0,0,0,0,103237.111228,0,-3.075668,99.13359
1582550352.105868,31,0,1582550345.702354,41.2073041170373,29.07237498748199,161.2765,-1,-1,14.49210071563721,65,-9999,103239.9298864167,0.984710693359375,0.0851287841796875,-0.056854248046875,103239.9248514167,2.997287539737745,1.510209925515751,-0.07761698796085963,0.008863468654453754,0.03352560847997665,0.004785765893757343,-0.01384353637695312,0.009366124868392944,0.001391470432281494,2,-0.6851039479092057,0.02119101772144338,0.7238410342825017,0.07897847877196162,0.9951599836349487,0.07753907889127731,-0.06036704406142235,42.70516967773438,33.0142707824707,-11.1690673828125,2,103239.6894694167,2,0,1582550351.847966,0,0,0,0,0,0,0,0,0,103237.111228,0,-3.075668,99.13359
1582550352.106983,32,0,1582550345.702354,41.2073041170373,29.07237498748199,161.2765,-1,-1,14.49210071563721,65,-9999,103239.9399274167,0.987335205078125,0.0878448486328125,-0.0526885986328125,103239.9348914167,2.997251102919078,1.510433039549965,-0.07758109363558206,0.002552043180912733,0.02238507196307182,0.003991877660155296,-0.01073169708251953,0.007403075695037842,0.003137946128845215,2,-0.6851838374231864,0.02122537779654565,0.7237646742117401,0.07897708900528488,0.995176374912262,0.07750329375267029,-0.06014518439769745,42.70516967773438,33.0142707824707,-11.1690673828125,2,103239.6894694167,2,0,1582550351.847966,0,0,0,0,0,0,0,0,0,103237.111228,0,-3.075668,99.13359
1582550352.109749,33,0,1582550345.702354,41.2073041170373,29.07237498748199,161.2765,-1,-1,14.49210071563721,65,-9999,103239.9499674167,0.9833526611328125,0.0868377685546875,-0.052459716796875,103239.9449314167,2.997202320885764,1.5105016846721,-0.07755331589603191,0.005428442265838385,0.008008414879441261,0.003825632389634848,-0.008418798446655273,0.01000946760177612,0.006014466285705566,2,-0.6852078049424883,0.02125489528739283,0.7237401446255465,0.07898453543260331,0.9951823949813843,0.07747559994459152,-0.06007698550820351,42.637939453125,32.97430038452148,-11.0772705078125,2,103239.6894694167,2,0,1582550351.847966,0,0,0,0,0,0,0,0,0,103237.111228,0,-3.075668,99.13359
1582550352.119829,34,0,1582550345.702354,41.2073041170373,29.07237498748199,161.2765,-1,-1,14.49210071563721,65,-9999,103239.9600074167,0.97344970703125,0.08721923828125,-0.056915283203125,103239.9549724167,2.997146122221884,1.510511982422413,-0.07755792306874809,0.005466258618980646,0.0001675356179475784,-0.0004042661748826504,-0.01052474975585938,0.00966915488243103,0.008064150810241699,2,-0.6852109931547312,0.02127288119279719,0.7237342364034716,0.07900633350574809,0.9951826930046082,0.07748018950223923,-0.06006671860814095,42.637939453125,32.97430038452148,-11.0772705078125,2,103239.6894694167,2,0,1582550351.847966,0,0,0,0,0,0,0,0,0,103237.111228,0,-3.075668,99.13359
1582550352.129843,35,0,1582550352.109489,41.20730279150193,29.07236723136099,161.2764,-1,-1,14.59150886535645,65,-9999,103239.9700474167,0.9687347412109375,0.08917236328125,-0.05987548828125,103239.9650124167,2.997066321404454,1.510609787690113,-0.07755861013567697,0.007736666593700647,0.01095682010054588,-0.0001869737170636654,-0.01991474628448486,0.009378612041473389,0.004045307636260986,2,-0.6852455449025288,0.02130383509223244,0.7236975279156519,0.07903440090318004,0.9951884746551514,0.07748087495565414,-0.05996938049793243,42.80726623535156,32.9032096862793,-11.21331787109375,2,103239.6894694167,2,0,1582550351.847966,0,0,0,0,0,0,0,0,0,103237.111228,0,-3.075668,99.13359
1582550352.155899,36,0,1582550352.109489,41.20730279150193,29.07236723136099,161.2764,-1,-1,14.59150886535645,65,-9999,103239.9800884167,0.97259521484375,0.088623046875,-0.05889892578125,103239.9750524167,2.99697232448341,1.510779830556263,-0.07755989155980061,0.008420832455158234,0.01848850399255753,-0.0009249355643987656,-0.02636396884918213,0.01160508394241333,3.087520599365234e-05,2,-0.6853060857914808,0.02134229865404924,0.7236355252679089,0.07906703840501672,0.9951986074447632,0.07748215645551682,-0.0598001517355442,42.80726623535156,32.9032096862793,-11.21331787109375,2,103239.6894694167,2,0,1582550351.847966,0,0,0,0,0,0,0,0,0,103237.111228,0,-3.075668,99.13359
1582550352.15699,37,0,1582550352.109489,41.20730279150193,29.07236723136099,161.2764,-1,-1,14.59150886535645,65,-9999,103239.9901594167,0.9741363525390625,0.0887298583984375,-0.0559234619140625,103239.9850934167,2.996860489235192,1.51091721644665,-0.0775468125069451,0.01272574439644814,0.01128576137125492,0.00153860729187727,-0.02394711971282959,0.01112979650497437,4.684925079345703e-05,2,-0.685354426375846,0.02139081283220323,0.723584568259561,0.07910158192438899,0.9952078461647034,0.0774691179394722,-0.05966348573565483,42.83499145507812,32.90002822875977,-11.096435546875,2,103239.6894694167,2,0,1582550351.847966,0,0,0,0,0,0,0,0,0,103237.111228,0,-3.075668,99.13359
1582550352.160516,38,0,1582550352.109489,41.20730279150193,29.07236723136099,161.2764,-1,-1,14.59150886535645,65,-9999,103240.0001994167,0.9727783203125,0.09161376953125,-0.0528717041015625,103239.9951334167,2.996737592032618,1.510995079237628,-0.0774873113015937,0.01054701302200556,0.01700303517282009,0.004806838929653168,-0.0206298828125,0.01158586144447327,0.004119992256164551,2,-0.6853805037096186,0.02145764593785815,0.7235552965627813,0.0791249372437427,0.9952170848846436,0.07740978896617889,-0.05958626791834831,42.83499145507812,32.90002822875977,-11.096435546875,2,103239.6894694167,2,0,1582550351.847966,0,0,0,0,0,0,0,0,0,103237.111228,0,-3.075668,99.13359
1582550352.169897,39,0,1582550352.109489,41.20730279150193,29.07236723136099,161.2764,-1,-1,14.59150886535645,65,-9999,103240.0102394167,0.970916748046875,0.0876312255859375,-0.0630950927734375,103240.0051734167,2.99665369386408,1.511112069204641,-0.07741224323983756,0.002822655253112316,0.01774935983121395,0.006872603669762611,-0.02374029159545898,0.01355278491973877,0.00417172908782959,2,-0.6854209411432036,0.02151833207638987,0.7235148622750088,0.07912846584230504,0.9952298998832703,0.07733494788408279,-0.05947018787264824,42.63418579101562,32.83197402954102,-11.08819580078125,2,103239.6894694167,2,0,1582550351.847966,0,0,0,0,0,0,0,0,0,103237.111228,0,-3.075668,99.13359
1582550352.180085,40,0,1582550352.109489,41.20730279150193,29.07236723136099,161.2764,-1,-1,14.59150886535645,65,-9999,103240.0202794167,0.9752044677734375,0.09027099609375,-0.04852294921875,103240.0152134167,2.996471413397297,1.511133211871901,-0.07734127934224597,0.02675488591194153,-0.007724576629698277,0.009799418039619923,-0.02263307571411133,0.01051077246665955,-0.001235365867614746,2,-0.6854256934092782,0.0216074456877095,0.7235031517336159,0.07917000231287979,0.9952366352081299,0.07726419717073441,-0.05944947525858879,42.63418579101562,32.83197402954102,-11.08819580078125,2,103239.6894694167,2,0,1582550351.847966,0,0,0,0,0,0,0,0,0,103237.111228,0,-3.075668,99.13359
1582550352.190572,41,0,1582550352.109489,41.20730279150193,29.07236723136099,161.2764,-1,-1,14.59150886535645,65,-9999,103240.0303204167,0.9676666259765625,0.082061767578125,-0.0686798095703125,103240.0252544167,2.996329150074457,1.511391247051042,-0.07732315576148274,0.01574708521366119,0.03983218967914581,0.001948740798979998,-0.02091050148010254,0.01466396450996399,0.01018059253692627,2,-0.685517255895661,0.02167300848961368,0.7234097334440439,0.07921249070835751,0.9952532649040222,0.07724612951278687,-0.05919274687767029,42.73670959472656,32.8614387512207,-11.13433837890625,2,103239.6894694167,2,0,1582550351.847966,0,0,0,0,0,0,0,0,0,103237.111228,0,-3.075668,99.13359
1582550352.222429,42,0,1582550352.109489,41.20730279150193,29.07236723136099,161.2764,-1,-1,14.59150886535645,65,-9999,103240.0403604167,0.9719390869140625,0.08746337890625,-0.062408447265625,103240.0353254167,2.996180453058088,1.511777447365944,-0.07731802684910427,0.01856524311006069,0.03532745689153671,0.0006379331462085247,-0.02752542495727539,0.004979729652404785,-0.009048342704772949,2,-0.6856552509993472,0.02174114759887436,0.7232716748889911,0.07926033284664474,0.9952764511108398,0.07724101096391678,-0.05880839750170708,42.73670959472656,32.8614387512207,-11.13433837890625,2,103239.6894694167,2,0,1582550351.847966,0,0,0,0,0,0,0,0,0,103237.111228,0,-3.075668,99.13359
1582550352.2238,43,0,1582550352.109489,41.20730279150193,29.07236723136099,161.2764,-1,-1,14.59150886535645,65,-9999,103240.0504004167,0.9773712158203125,0.0889129638671875,-0.05511474609375,103240.0453654167,2.996062701900733,1.512265441625191,-0.07730272190995399,0.01238382328301668,0.04897303506731987,0.00128994882106781,-0.02403044700622559,0.009664237499237061,-0.004040956497192383,2,-0.6858302249277271,0.02180642218748763,0.7231002018788233,0.07929237276500267,0.995306134223938,0.07722575217485428,-0.05832276493310928,42.60502624511719,32.89950180053711,-10.99139404296875,2,103239.6894694167,2,0,1582550351.847966,0,0,0,0,0,0,0,0,0,103237.111228,0,-3.075668,99.13359
1582550352.22478,44,0,1582550352.109489,41.20730279150193,29.07236723136099,161.2764,-1,-1,14.59150886535645,65,-9999,103240.0604404167,0.975830078125,0.0904693603515625,-0.0567474365234375,103240.0554054167,2.995956146159635,1.51272313185735,-0.07725467255985977,0.01046501565724611,0.0475732795894146,0.003612225409597158,-0.01897966861724854,0.01142117381095886,0.0004475116729736328,2,-0.6859938811429251,0.02187858793077296,0.7229410403903697,0.07930953206120911,0.9953365921974182,0.07717785239219666,-0.05786744505167007,42.60502624511719,32.89950180053711,-10.99139404296875,2,103239.6894694167,2,0,1582550351.847966,0,0,0,0,0,0,0,0,0,103237.111228,0,-3.075668,99.13359
1582550352.230391,45,0,1582550352.109489,41.20730279150193,29.07236723136099,161.2764,-1,-1,14.59150886535645,65,-9999,103240.0704814167,0.976806640625,0.0896148681640625,-0.0557403564453125,103240.0654454167,2.995877946839285,1.513215229209256,-0.0771498607883359,0.00890934094786644,0.04974918812513351,0.01121123880147934,-0.0191991925239563,0.01324990391731262,0.001606106758117676,2,-0.6861694954624185,0.02196300893525849,0.7227731987645021,0.07929665976558842,0.995373010635376,0.0770733505487442,-0.05737809836864471,42.63836669921875,32.82477188110352,-10.92242431640625,2,103239.6894694167,2,0,1582550351.847966,0,0,0,0,0,0,0,0,0,103237.111228,0,-3.075668,99.13359
1582550352.240309,46,0,1582550352.109489,41.20730279150193,29.07236723136099,161.2764,-1,-1,14.59150886535645,65,-9999,103240.0805214167,0.975738525390625,0.0882415771484375,-0.054351806640625,103240.0754864167,2.995822196233728,1.513702297106694,-0.07701602596449997,0.005593705456703901,0.04952334612607956,0.0140704084187746,-0.01894742250442505,0.01294079422950745,0.0004047155380249023,2,-0.6863431060765165,0.0220500681942486,0.7226091253906566,0.07926580176235187,0.995411217212677,0.0769399106502533,-0.05689387023448944,42.63836669921875,32.82477188110352,-10.92242431640625,2,103239.6894694167,2,0,1582550351.847966,0,0,0,0,0,0,0,0,0,103237.111228,0,-3.075668,99.13359
1582550352.250253,47,0,1582550352.109489,41.20730279150193,29.07236723136099,161.2764,-1,-1,14.59150886535645,65,-9999,103240.0905614167,0.974029541015625,0.08697509765625,-0.05615234375,103240.0855264167,2.995759739157486,1.514212183013012,-0.07686855003346568,0.008272904902696609,0.05123323947191238,0.01549073867499828,-0.01936912536621094,0.01162305474281311,0.001774609088897705,2,-0.686524658458888,0.02214527192040505,0.7224374232787307,0.07923241911833206,0.9954514503479004,0.076792873442173,-0.05638695880770683,42.75471496582031,32.84657669067383,-11.1448974609375,2,103239.6894694167,2,0,1582550351.847966,0,0,0,0,0,0,0,0,0,103237.111228,0,-3.075668,99.13359
1582550352.281594,48,0,1582550352.109489,41.20730279150193,29.07236723136099,161.2764,-1,-1,14.59150886535645,65,-9999,103240.1006324167,0.9761505126953125,0.0859527587890625,-0.0540618896484375,103240.0955664167,2.995699695967533,1.514765658456791,-0.07672495025860625,0.007157838437706232,0.05553584545850754,0.01441402360796928,-0.02121174335479736,0.01048454642295837,-2.717971801757812e-05,2,-0.6867219830127114,0.02223994291846637,0.7222505535612314,0.07919894871092559,0.9954934120178223,0.07664969563484192,-0.05583660677075386,42.75471496582031,32.84657669067383,-11.1448974609375,2,103239.6894694167,2,0,1582550351.847966,0,0,0,0,0,0,0,0,0,103237.111228,0,-3.075668,99.13359
1582550352.283372,49,0,1582550352.109489,41.20730279150193,29.07236723136099,161.2764,-1,-1,14.59150886535645,65,-9999,103240.110686375,0.9825286865234375,0.085540771484375,-0.0501556396484375,103240.1056074167,2.995623740985267,1.515293586443867,-0.0766031353603199,0.008878832682967186,0.05234657973051071,0.01205586548894644,-0.02051794528961182,0.009629428386688232,-4.89354133605957e-05,2,-0.686910141756409,0.02233113701851619,0.7220708313133275,0.07917888941126661,0.9955318570137024,0.07652823626995087,-0.05531155318021774,42.54869079589844,33.07983016967773,-11.04296875,2,103239.6894694167,2,0,1582550351.847966,0,0,0,0,0,0,0,0,0,103237.111228,0,-3.075668,99.13359
1582550352.28479,50,0,1582550352.109489,41.20730279150193,29.07236723136099,161.2764,-1,-1,14.59150886535645,65,-9999,103240.120727375,0.9834442138671875,0.084564208984375,-0.052703857421875,103240.115661375,2.995571771829907,1.515806369212175,-0.07652959426678051,0.003773818723857403,0.05280677229166031,0.007094397209584713,-0.01440238952636719,0.009229660034179688,0.004384875297546387,2,-0.6870936862499744,0.02239598336989329,0.7218955911834002,0.07916681437267775,0.9955658316612244,0.07645491510629654,-0.05480137094855309,42.54869079589844,33.07983016967773,-11.04296875,2,103239.6894694167,2,0,1582550351.847966,0,0,0,0,0,0,0,0,0,103237.111228,0,-3.075668,99.13359
1582550352.290556,51,0,1582550352.109489,41.20730279150193,29.07236723136099,161.2764,-1,-1,14.59150886535645,65,-9999,103240.130767375,0.98516845703125,0.0809783935546875,-0.05291748046875,103240.125701375,2.995464074791846,1.516375566273637,-0.07656379857834279,0.01153458096086979,0.05952875316143036,-0.004222099669277668,-0.01185202598571777,0.008295267820358276,0.001712322235107422,2,-0.6872983591864672,0.02244311135118948,0.7216943691581028,0.07921097889730605,0.9955942034721375,0.07648901641368866,-0.05423454567790031,42.74005126953125,32.98327255249023,-10.89288330078125,2,103239.6894694167,2,0,1582550351.847966,0,0,0,0,0,0,0,0,0,103237.111228,0,-3.075668,99.13359
1582550352.301031,52,0,1582550352.109489,41.20730279150193,29.07236723136099,161.2764,-1,-1,14.59150886535645,65,-9999,103240.140807375,0.986602783203125,0.0807342529296875,-0.05072021484375,103240.135741375,2.995347928721982,1.516948394170053,-0.07672526144192292,0.01079688593745232,0.05869597941637039,-0.01652989909052849,-0.0113518238067627,0.005067318677902222,0.0004241466522216797,2,-0.6875058841161039,0.02244716717073414,0.7214866208900773,0.07930162520985162,0.9956128001213074,0.07665000855922699,-0.05366356670856476,42.85423278808594,32.86674880981445,-10.7828369140625,2,103239.6894694167,2,0,1582550351.847966,0,0,0,0,0,0,0,0,0,103237.111228,0,-3.075668,99.13359
1582550352.313306,53,0,1582550352.109489,41.20730279150193,29.07236723136099,161.2764,-1,-1,14.59150886535645,65,-9999,103240.150848375,0.978668212890625,0.0816497802734375,-0.053070068359375,103240.145812375,2.995240207046371,1.51751921502276,-0.07701459608984,0.009189392440021038,0.05669587105512619,-0.02907764539122581,-0.008506715297698975,0.003466576337814331,0.001762032508850098,2,-0.6877144192245478,0.02240193751779851,0.7212748318987948,0.0794329673288201,0.9956210851669312,0.07693848758935928,-0.05309406295418739,42.85423278808594,32.86674880981445,-10.7828369140625,2,103239.6894694167,2,0,1582550351.847966,0,0,0,0,0,0,0,0,0,103237.111228,0,-3.075668,99.13359
1582550352.342045,54,0,1582550352.109489,41.20730279150193,29.07236723136099,161.2764,-1,-1,14.59150886535645,65,-9999,103240.160888375,0.9743804931640625,0.0846710205078125,-0.0579833984375,103240.155852375,2.995149265889486,1.518237009787973,-0.07739000265220344,0.00700853019952774,0.07359522581100464,-0.03651798516511917,-0.01527535915374756,0.004373997449874878,0.0003436803817749023,2,-0.6879772004454862,0.02232565818500265,0.721009641765592,0.07958607092638742,0.9956300258636475,0.07731277495622635,-0.05237787216901779,42.84637451171875,32.79159164428711,-10.68109130859375,2,103239.6894694167,2,0,1582550351.847966,0,0,0,0,0,0,0,0,0,103237.111228,0,-3.075668,99.13359
1582550352.343829,55,0,1582550352.109489,41.20730279150193,29.07236723136099,161.2764,-1,-1,14.59150886535645,65,-9999,103240.170928375,0.97296142578125,0.08599853515625,-0.0552520751953125,103240.165893375,2.995086280278239,1.519125346930861,-0.07782848415617724,0.004056384786963463,0.08874841034412384,-0.04294968396425247,-0.02100968360900879,0.006256073713302612,-0.006661415100097656,2,-0.688302459959457,0.02222382793173827,0.7206844140726913,0.07974885734336457,0.995642364025116,0.07774993777275085,-0.05149165168404579,42.84637451171875,32.79159164428711,-10.68109130859375,2,103239.6894694167,2,0,1582550351.847966,0,0,0,0,0,0,0,0,0,103237.111228,0,-3.075668,99.13359
1582550352.34547,56,0,1582550352.109489,41.20730279150193,29.07236723136099,161.2764,-1,-1,14.59150886535645,65,-9999,103240.180968375,0.9740142822265625,0.08660888671875,-0.05206298828125,103240.175933375,2.995024089970972,1.520155901226614,-0.07830532728739435,0.00374026782810688,0.1055183410644531,-0.04696653038263321,-0.02267289161682129,0.007764250040054321,-0.005385398864746094,2,-0.6886792815578231,0.02211364449665215,0.7203082924668225,0.07992298689331784,0.9956575632095337,0.07822532951831818,-0.05046366900205612,42.90472412109375,32.87602615356445,-10.87384033203125,2,103239.6894694167,2,0,1582550351.847966,0,0,0,0,0,0,0,0,0,103237.111228,0,-3.075668,99.13359
1582550352.350766,57,0,1582550352.109489,41.20730279150193,29.07236723136099,161.2764,-1,-1,14.59150886535645,65,-9999,103240.191009375,0.97674560546875,0.089569091796875,-0.0435638427734375,103240.185973375,2.994930376146748,1.521156648308187,-0.07879419896201129,0.006953577045351267,0.1030690893530846,-0.04892180487513542,-0.02247059345245361,0.007597237825393677,-0.003972768783569336,2,-0.6890449464827609,0.02200896462964352,0.7199405401246144,0.08011304920073437,0.9956691861152649,0.07871269434690475,-0.04946533590555191,42.90472412109375,32.87602615356445,-10.87384033203125,2,103239.6894694167,2,0,1582550351.847966,0,0,0,0,0,0,0,0,0,103237.111228,0,-3.075668,99.13359
1582550352.360897,58,0,1582550352.109489,41.20730279150193,29.07236723136099,161.2764,-1,-1,14.59150886535645,65,-9999,103240.201049375,0.9754638671875,0.0922393798828125,-0.0428009033203125,103240.196014375,2.994816335667859,1.521994851715577,-0.07922738480454411,0.008785299956798553,0.08195208758115768,-0.04237948358058929,-0.01938021183013916,0.009820491075515747,0.003354430198669434,2,-0.6893509602662662,0.02192512117431628,0.7196301479664442,0.0802932677396232,0.9956763386726379,0.07914452254772186,-0.04862908646464348,42.88177490234375,32.88451766967773,-10.52203369140625,2,103239.6894694167,2,0,1582550351.847966,0,0,0,0,0,0,0,0,0,103237.111228,0,-3.075668,99.13359
1582550352.370822,59,0,1582550352.109489,41.20730279150193,29.07236723136099,161.2764,-1,-1,14.59150886535645,65,-9999,103240.211120375,0.972564697265625,0.0923309326171875,-0.046844482421875,103240.206054375,2.9947011428238,1.522843842269907,-0.07960581740377468,0.009599367156624794,0.08692025393247604,-0.03902716562151909,-0.01968121528625488,0.01246434450149536,0.005864262580871582,2,-0.6896599889254733,0.02186204773854394,0.7193177161875877,0.08045506783720752,0.9956871271133423,0.07952176779508591,-0.047782301902771,42.88177490234375,32.88451766967773,-10.52203369140625,2,103239.6894694167,2,0,1582550351.847966,0,0,0,0,0,0,0,0,0,103237.111228,0,-3.075668,99.13359
1582550352.3946,60,0,1582550352.109489,41.20730279150193,29.07236723136099,161.2764,-1,-1,14.59150886535645,65,-9999,103240.221160375,0.9749755859375,0.0928192138671875,-0.0440216064453125,103240.216094375,2.994606209827543,1.523695952635181,-0.07990802285088115,0.008558336645364761,0.08650852739810944,-0.03139054775238037,-0.02308505773544312,0.01248359680175781,0.0001316666603088379,2,-0.6899692270183043,0.02181982646656738,0.7190081081640538,0.08058350328827601,0.9957035779953003,0.07982300966978073,-0.04693272337317467,42.77015686035156,32.95623397827148,-10.61474609375,2,103239.6894694167,2,0,1582550351.847966,0,0,0,0,0,0,0,0,0,103237.111228,0,-3.075668,99.13359
1582550352.395275,61,0,1582550352.109489,41.20730279150193,29.07236723136099,161.2764,-1,-1,14.59150886535645,65,-9999,103240.231200375,0.9748687744140625,0.0933837890625,-0.045074462890625,103240.226134375,2.99454785624868,1.524497104327821,-0.08012610808474786,0.005632580257952213,0.08053039759397507,-0.02321562170982361,-0.02115190029144287,0.01257133483886719,0.001682758331298828,2,-0.6902593376712789,0.02179342557962727,0.7187205813455964,0.08067052411588144,0.9957233667373657,0.08004039525985718,-0.04613418504595757,42.77015686035156,32.95623397827148,-10.61474609375,2,103239.6894694167,2,0,1582550351.847966,0,0,0,0,0,0,0,0,0,103237.111228,0,-3.075668,99.13359
1582550352.400817,62,0,1582550352.109489,41.20730279150193,29.07236723136099,161.2764,-1,-1,14.59150886535645,65,-9999,103240.241241375,0.9788970947265625,0.0927734375,-0.042510986328125,103240.236175375,2.994543750307073,1.525228929063206,-0.0802262023515191,9.160721674561501e-05,0.0754070058465004,-0.009132559411227703,-0.02122330665588379,0.01323443651199341,0.0003889799118041992,2,-0.6905235080314185,0.0217882037299697,0.7184638703457537,0.08069837150790876,0.9957489371299744,0.08014017343521118,-0.04540511965751648,42.7020263671875,32.96623611450195,-10.37091064453125,2,103239.6894694167,2,0,1582550351.847966,0,0,0,0,0,0,0,0,0,103237.111228,0,-3.075668,99.13359
1582550352.411072,63,0,1582550352.109489,41.20730279150193,29.07236723136099,161.2764,-1,-1,14.59150886535645,65,-9999,103240.251281375,0.9811859130859375,0.0928192138671875,-0.036956787109375,103240.246215375,2.994590675682971,1.525769713870374,-0.0802367168755086,-0.00589558482170105,0.05592986568808556,-0.0007925550453364849,-0.01779836416244507,0.01296451687812805,0.001208484172821045,2,-0.6907183952039394,0.02179001897728206,0.7182785992425067,0.08067923259624044,0.9957724809646606,0.08015064895153046,-0.04486658796668053,42.7020263671875,32.96623611450195,-10.37091064453125,2,103239.6894694167,2,0,1582550351.847966,0,0,0,0,0,0,0,0,0,103237.111228,0,-3.075668,99.13359
1582550352.420909,64,0,1582550352.109489,41.20730279150193,29.07236723136099,161.2764,-1,-1,14.59150886535645,65,-9999,103240.261321375,0.9821319580078125,0.0933837890625,-0.037109375,103240.256286375,2.994691344995172,1.526102191943325,-0.08013548839648123,-0.0102117694914341,0.03424214944243431,0.01128647848963737,-0.01502895355224609,0.01245510578155518,0.006828665733337402,2,-0.6908376050873895,0.02180521054243811,0.7181718175609707,0.08060470568990796,0.9957954287528992,0.08004974573850632,-0.04453587159514427,42.89949035644531,33.0716667175293,-10.45660400390625,2,103239.6894694167,2,0,1582550351.847966,0,0,0,0,0,0,0,0,0,103237.111228,0,-3.075668,99.13359
1582550352.431067,65,0,1582550352.109489,41.20730279150193,29.07236723136099,161.2764,-1,-1,14.59150886535645,65,-9999,103240.271361375,0.9843292236328125,0.0914459228515625,-0.035980224609375,103240.266326375,2.994845577689691,1.526243888731731,-0.07993244275119972,-0.01490328926593065,0.01315475441515446,0.02216295152902603,-0.01416659355163574,0.01386293768882751,0.007313907146453857,2,-0.690887588498811,0.02183096563648051,0.7181372191278763,0.08047807802838403,0.995818018913269,0.07984735071659088,-0.04439549893140793,42.89949035644531,33.0716667175293,-10.45660400390625,2,103239.6894694167,2,0,1582550351.847966,0,0,0,0,0,0,0,0,0,103237.111228,0,-3.075668,99.13359
1582550352.446358,66,0,1582550352.109489,41.20730279150193,29.07236723136099,161.2764,-1,-1,14.59150886535645,65,-9999,103240.281402375,0.98333740234375,0.091552734375,-0.037353515625,103240.276366375,2.995033379421308,1.52621634993655,-0.07964750413574609,-0.01790733449161053,-0.0036748256534338,0.03043153136968613,-0.01183807849884033,0.01216340065002441,0.008257865905761719,2,-0.6908761324224196,0.02186787179381255,0.7181655512039258,0.08031311238418304,0.9958394169807434,0.07956331968307495,-0.04442393034696579,42.83126831054688,33.09527969360352,-10.45404052734375,2,103239.6894694167,2,0,1582550351.847966,0,0,0,0,0,0,0,0,0,103237.111228,0,-3.075668,99.13359
1582550352.451065,67,0,1582550352.109489,41.20730279150193,29.07236723136099,161.2764,-1,-1,14.59150886535645,65,-9999,103240.291442375,0.9798431396484375,0.0888214111328125,-0.0395050048828125,103240.286407375,2.995229815153943,1.52604925706771,-0.07933489246281365,-0.01776685751974583,-0.01916160434484482,0.03283818811178207,-0.01226723194122314,0.01221564412117004,0.007555842399597168,2,-0.6908143009585909,0.02190620419572387,0.7182435308053323,0.0801370750118951,0.9958568215370178,0.07925169914960861,-0.04459143802523613,42.83126831054688,33.09527969360352,-10.45404052734375,2,103239.6894694167,2,0,1582550351.847966,0,0,0,0,0,0,0,0,0,103237.111228,0,-3.075668,99.13359
1582550352.461367,68,0,1582550352.109489,41.20730279150193,29.07236723136099,161.2764,-1,-1,14.59150886535645,65,-9999,103240.301482375,0.9794769287109375,0.0864105224609375,-0.042236328125,103240.296447375,2.995443831001056,1.525832127434827,-0.07903667165509715,-0.02017195895314217,-0.02333744056522846,0.03120699897408485,-0.01542448997497559,0.01077345013618469,0.005606114864349365,2,-0.6907348687478665,0.02193128529829325,0.7183387162695016,0.07996019699581786,0.9958704710006714,0.07895440608263016,-0.04480871930718422,42.97348022460938,32.9238166809082,-10.29925537109375,2,103239.6894694167,2,0,1582550351.847966,0,0,0,0,0,0,0,0,0,103237.111228,0,-3.075668,99.13359
1582550352.471711,69,0,1582550352.109489,41.20730279150193,29.07236723136099,161.2764,-1,-1,14.59150886535645,65,-9999,103240.311523375,0.979736328125,0.0861663818359375,-0.040557861328125,103240.306487375,2.995668157550215,1.525572293445616,-0.07876332064915012,-0.02121295779943466,-0.02768290042877197,0.02922870591282845,-0.01665520668029785,0.007948458194732666,0.002921044826507568,2,-0.6906405075793014,0.02194217700921253,0.7184482943198607,0.07978865065754343,0.9958804845809937,0.07868190854787827,-0.04506846144795418,42.97348022460938,32.9238166809082,-10.29925537109375,2,103239.6894694167,2,0,1582550351.847966,0,0,0,0,0,0,0,0,0,103237.111228,0,-3.075668,99.13359
1582550352.481125,70,0,1582550352.109489,41.20730279150193,29.07236723136099,161.2764,-1,-1,14.59150886535645,65,-9999,103240.321593375,0.9795379638671875,0.08770751953125,-0.0417327880859375,103240.316527375,2.995892739221185,1.525260077766402,-0.07852400755900062,-0.01959402486681938,-0.03320256993174553,0.02614316716790199,-0.01640039682388306,0.007424145936965942,0.004285693168640137,2,-0.6905277509101486,0.02193863511159533,0.7185744525021203,0.07962925527139225,0.9958851337432861,0.07844333350658417,-0.04538024216890335,42.9281005859375,32.8727912902832,-10.38616943359375,2,103239.6894694167,2,0,1582550351.847966,0,0,0,0,0,0,0,0,0,103237.111228,0,-3.075668,99.13359
1582550352.491035,71,0,1582550352.109489,41.20730279150193,29.07236723136099,161.2764,-1,-1,14.59150886535645,65,-9999,103240.331634375,0.9754180908203125,0.0878143310546875,-0.040374755859375,103240.326568375,2.996108334327762,1.524886782415512,-0.07830745917867252,-0.0184691920876503,-0.04154789447784424,0.02416988462209702,-0.01609528064727783,0.00941002368927002,0.003895282745361328,2,-0.6903932139613183,0.02192759771555786,0.7187204534789444,0.07948157402098255,0.9958851337432861,0.0782274529337883,-0.04575278237462044,42.9281005859375,32.8727912902832,-10.38616943359375,2,103239.6894694167,2,0,1582550351.847966,0,0,0,0,0,0,0,0,0,103237.111228,0,-3.075668,99.13359
1582550352.507034,72,0,1582550352.109489,41.20730279150193,29.07236723136099,161.2764,-1,-1,14.59150886535645,65,-9999,103240.341674375,0.974822998046875,0.0862579345703125,-0.0467987060546875,103240.336608375,2.996331407592347,1.524566694726026,-0.07813633550644632,-0.02108867838978767,-0.03304442018270493,0.01939217373728752,-0.01980185508728027,0.009641677141189575,0.00624382495880127,2,-0.6902784392901207,0.02189971522036449,0.7188463392808975,0.07934617852422643,0.995883584022522,0.07805684953927994,-0.04607215896248817,43.00344848632812,32.88455581665039,-10.580810546875,2,103239.6894694167,2,0,1582550351.847966,0,0,0,0,0,0,0,0,0,103237.111228,0,-3.075668,99.13359
1582550352.511419,73,0,1582550352.109489,41.20730279150193,29.07236723136099,161.2764,-1,-1,14.59150886535645,65,-9999,103240.351714375,0.9696197509765625,0.087066650390625,-0.050262451171875,103240.346648375,2.996545111176671,1.524362470189974,-0.07803005238247002,-0.01986096054315567,-0.02407489344477654,0.01203732006251812,-0.02111291885375977,0.009015262126922607,0.000298619270324707,2,-0.6902060096731952,0.02185628546477159,0.7189295886716499,0.07923515018401417,0.9958826303482056,0.07795089483261108,-0.04627593234181404,43.00344848632812,32.88455581665039,-10.580810546875,2,103239.6894694167,2,0,1582550351.847966,0,0,0,0,0,0,0,0,0,103237.111228,0,-3.075668,99.13359
1582550352.521286,74,0,1582550352.109489,41.20730279150193,29.07236723136099,161.2764,-1,-1,14.59150886535645,65,-9999,103240.361755375,0.9700927734375,0.0878143310546875,-0.0503082275390625,103240.356689375,2.996756295663076,1.524320477926966,-0.07797347538954048,-0.02026096731424332,-0.007922288961708546,0.008135523647069931,-0.02494549751281738,0.008400231599807739,-0.003459036350250244,2,-0.6901925005970997,0.02180218617120122,0.7189545789822029,0.07914027690108533,0.9958849549293518,0.07789448648691177,-0.04631795361638069,42.89132690429688,32.96567153930664,-10.5994873046875,2,103239.6894694167,2,0,1582550351.847966,0,0,0,0,0,0,0,0,0,103237.111228,0,-3.075668,99.13359
1582550352.531313,75,0,1582550352.109489,41.20730279150193,29.07236723136099,161.2764,-1,-1,14.59150886535645,65,-9999,103240.371795375,0.9748687744140625,0.0868988037109375,-0.047027587890625,103240.366759375,2.996969369648087,1.524418436018171,-0.07796686693115654,-0.01992514170706272,0.00947188027203083,0.0020781634375453,-0.02670538425445557,0.01031419634819031,-0.004701018333435059,2,-0.6902299472784116,0.02173492026724244,0.718929521262613,0.07906035645045317,0.9958901405334473,0.07788790017366409,-0.04622042551636696,42.89132690429688,32.96567153930664,-10.5994873046875,2,103239.6894694167,2,0,1582550351.847966,0,0,0,0,0,0,0,0,0,103237.111228,0,-3.075668,99.13359
1582550352.541288,76,0,1582550352.109489,41.20730279150193,29.07236723136099,161.2764,-1,-1,14.59150886535645,65,-9999,103240.381835375,0.9799652099609375,0.0887451171875,-0.0415191650390625,103240.376800375,2.997189099266955,1.52449140290106,-0.07795017911306934,-0.02171558514237404,0.004799896851181984,0.003849964588880539,-0.0223308801651001,0.008850693702697754,-0.001538991928100586,2,-0.6902583509934634,0.02166799449163875,0.7189135832655555,0.07897484580839143,0.9958946704864502,0.07787126302719116,-0.04614781215786934,42.91189575195312,32.95324325561523,-10.40399169921875,2,103239.6894694167,2,0,1582550351.847966,0,0,0,0,0,0,0,0,0,103237.111228,0,-3.075668,99.13359
1582550352.551364,77,0,1582550352.109489,41.20730279150193,29.07236723136099,161.2764,-1,-1,14.59150886535645,65,-9999,103240.391875375,0.982513427734375,0.08990478515625,-0.0384063720703125,103240.386840375,2.997404002468693,1.524449414659488,-0.07792802101117448,-0.0220737811177969,-0.005543287843465805,0.003279781900346279,-0.01695930957794189,0.0105208158493042,0.003569066524505615,2,-0.6902453023276238,0.02160017711672957,0.718937424314839,0.07889044861994399,0.9958944320678711,0.07784917205572128,-0.04618971049785614,42.91189575195312,32.95324325561523,-10.40399169921875,2,103239.6894694167,2,0,1582550351.847966,0,0,0,0,0,0,0,0,0,103237.111228,0,-3.075668,99.13359
1582550352.567502,78,0,1582550352.109489,41.20730279150193,29.07236723136099,161.2764,-1,-1,14.59150886535645,65,-9999,103240.401916375,0.982574462890625,0.0893402099609375,-0.0408782958984375,103240.396880375,2.997593418503581,1.52428618503168,-0.07788046018776222,-0.01845800690352917,-0.01994646154344082,0.006341618485748768,-0.01375114917755127,0.01183471083641052,0.007531285285949707,2,-0.6901880670657676,0.02154556306026362,0.719003084155186,0.07880780102896606,0.9958906173706055,0.07780175656080246,-0.04635244235396385,42.77513122558594,33.00215530395508,-10.36663818359375,2,103239.6894694167,2,0,1582550351.847966,0,0,0,0,0,0,0,0,0,103237.111228,0,-3.075668,99.13359
1582550352.571564,79,0,1582550352.109489,41.20730279150193,29.07236723136099,161.2764,-1,-1,14.59150886535645,65,-9999,103240.411956375,0.9773712158203125,0.08929443359375,-0.0444183349609375,103240.406921375,2.99776604405007,1.524127331757362,-0.07782827462381352,-0.01768568903207779,-0.01877440512180328,0.00674455426633358,-0.01289331912994385,0.01173412799835205,0.00674360990524292,2,-0.6901321572527312,0.02149860019471328,0.7190667362819529,0.07872954699118301,0.995887279510498,0.07774972915649414,-0.04651083052158356,42.77513122558594,33.00215530395508,-10.36663818359375,2,103239.6894694167,2,0,1582550351.847966,0,0,0,0,0,0,0,0,0,103237.111228,0,-3.075668,99.13359
1582550352.5822,80,0,1582550352.109489,41.20730279150193,29.07236723136099,161.2764,-1,-1,14.59150886535645,65,-9999,103240.421996375,0.9789886474609375,0.0885162353515625,-0.0418243408203125,103240.416961375,2.997901183026755,1.523986074876846,-0.07779568542967082,-0.01315849460661411,-0.01424192823469639,0.004374222364276648,-0.01768064498901367,0.01155298948287964,0.002154231071472168,2,-0.6900824096955382,0.02145819395760129,0.719122091917504,0.0786712993987983,0.9958832859992981,0.07771723717451096,-0.04665162786841393,42.92738342285156,33.20226669311523,-10.61785888671875,2,103239.6894694167,2,0,1582550351.847966,0,0,0,0,0,0,0,0,0,103237.111228,0,-3.075668,99.13359
1582550352.591666,81,0,1582550352.109489,41.20730279150193,29.07236723136099,161.2764,-1,-1,14.59150886535645,65,-9999,103240.432067375,0.9784393310546875,0.0890960693359375,-0.0428466796875,103240.427001375,2.998032021835712,1.523796462907788,-0.07778021312148561,-0.01261467672884464,-0.01930973865091801,0.002577654086053371,-0.01773393154144287,0.01074448227882385,0.004509806632995605,2,-0.6900154378479894,0.02141118711033602,0.7191932368483803,0.07862097536105689,0.9958755970001221,0.07770181447267532,-0.04684051498770714,42.92738342285156,33.20226669311523,-10.61785888671875,2,103239.6894694167,2,0,1582550351.847966,0,0,0,0,0,0,0,0,0,103237.111228,0,-3.075668,99.13359
1582550352.6017,82,0,1582550352.109489,41.20730279150193,29.07236723136099,161.2764,-1,-1,14.59150886535645,65,-9999,103240.442107375,0.9741973876953125,0.09063720703125,-0.042144775390625,103240.437041375,2.998158204313107,1.523558395268014,-0.07775018213070335,-0.01271694339811802,-0.0243535004556179,0.004621629603207111,-0.01691639423370361,0.0111558735370636,0.004625082015991211,2,-0.6899307962989403,0.02136916093762814,0.7192815324139596,0.07856784879850331,0.9958668351173401,0.07767187058925629,-0.04707771167159081,42.94125366210938,32.99689865112305,-10.43914794921875,2,103239.6894694167,2,0,1582550351.847966,0,0,0,0,0,0,0,0,0,103237.111228,0,-3.075668,99.13359
1582550352.611786,83,0,1582550352.109489,41.20730279150193,29.07236723136099,161.2764,-1,-1,14.59150886535645,65,-9999,103240.452148375,0.974365234375,0.0904541015625,-0.0422515869140625,103240.447082375,2.998254068315493,1.523257751677916,-0.07769882248507159,-0.008751825429499149,-0.03018477745354176,0.006739397067576647,-0.0210719108581543,0.01248881220817566,0.0050010085105896,2,-0.6898230443107655,0.02134285902212613,0.7193910034210094,0.0785189688562215,0.9958566427230835,0.07762067019939423,-0.04737729951739311,42.94125366210938,32.99689865112305,-10.43914794921875,2,103239.6894694167,2,0,1582550351.847966,0,0,0,0,0,0,0,0,0,103237.111228,0,-3.075668,99.13359
1582550352.626833,84,0,1582550352.109489,41.20730279150193,29.07236723136099,161.2764,-1,-1,14.59150886535645,65,-9999,103240.462188375,0.975128173828125,0.0881805419921875,-0.0425262451171875,103240.457122375,2.998345650031084,1.522907709053562,-0.07764028249872205,-0.006974165327847004,-0.03539072349667549,0.006648849230259657,-0.02223461866378784,0.01323384046554565,0.005441427230834961,2,-0.6896973690083114,0.02131870411744596,0.7195175467286438,0.07846968211219657,0.9958444833755493,0.07756230235099792,-0.0477261058986187,42.87367248535156,32.98945236206055,-10.41656494140625,2,103239.6894694167,2,0,1582550351.847966,0,0,0,0,0,0,0,0,0,103238.053167,0,-3.073029,99.13358
1582550352.631832,85,0,1582550352.109489,41.20730279150193,29.07236723136099,161.2764,-1,-1,14.59150886535645,65,-9999,103240.472228375,0.9704742431640625,0.0912017822265625,-0.0442962646484375,103240.467162375,2.998435945846385,1.522533784879304,-0.07755690506933426,-0.007185840047895908,-0.03900391608476639,0.00961817242205143,-0.02031564712524414,0.01075348258018494,0.005615949630737305,2,-0.6895627504773412,0.02130306397170822,0.7196532825973967,0.07841260020265106,0.9958330392837524,0.07747917622327805,-0.04809878394007683,42.87367248535156,32.98945236206055,-10.41656494140625,2,103239.6894694167,2,0,1582550351.847966,0,0,0,0,0,0,0,0,0,103238.053167,0,-3.073029,99.13358
1582550352.64185,86,0,1582550352.109489,41.20730279150193,29.07236723136099,161.2764,-1,-1,14.59150886535645,65,-9999,103240.482268375,0.9674530029296875,0.0927734375,-0.0456695556640625,103240.477233375,2.998492402770217,1.522198262756514,-0.07745388564422091,-0.004939463920891285,-0.03417161107063293,0.01153032295405865,-0.02471721172332764,0.01300767064094543,0.004668712615966797,2,-0.6894413204968577,0.02130771866693604,0.7197751375680836,0.0783605475933743,0.9958248138427734,0.07737646996974945,-0.04843329265713692,42.85987854003906,33.13408279418945,-10.32421875,2,103239.6894694167,2,0,1582550351.847966,0,0,0,0,0,0,0,0,0,103238.053167,0,-3.073029,99.13358
1582550352.651904,87,0,1582550352.109489,41.20730279150193,29.07236723136099,161.2764,-1,-1,14.59150886535645,65,-9999,103240.492309375,0.971435546875,0.087890625,-0.04638671875,103240.487273375,2.998531299534006,1.521911193604061,-0.07738191404828289,-0.003677779110148549,-0.03014004416763783,0.008116810582578182,-0.02821838855743408,0.01553612947463989,0.002971291542053223,2,-0.6893375107579993,0.02130910942654041,0.719878424303624,0.0783249461065697,0.9958164691925049,0.07730471342802048,-0.04871943593025208,42.85987854003906,33.13408279418945,-10.32421875,2,103239.6894694167,2,0,1582550351.847966,0,0,0,0,0,0,0,0,0,103238.053167,0,-3.073029,99.13358
1582550352.662076,88,0,1582550352.109489,41.20730279150193,29.07236723136099,161.2764,-1,-1,14.59150886535645,65,-9999,103240.502349375,0.9750823974609375,0.0853118896484375,-0.0519561767578125,103240.497314375,2.998572505623248,1.521745985112291,-0.0773706145293229,-0.004267935641109943,-0.01809802837669849,0.001793400384485722,-0.02575469017028809,0.01205319166183472,0.00292205810546875,2,-0.6892783417695081,0.02129252330399389,0.7199373581778131,0.07830799564193225,0.9958091974258423,0.07729344815015793,-0.04888399317860603,42.77980041503906,32.9188117980957,-10.454833984375,2,103239.6894694167,2,0,1582550351.847966,0,0,0,0,0,0,0,0,0,103238.053167,0,-3.073029,99.13358
1582550352.671941,89,0,1582550352.109489,41.20730279150193,29.07236723136099,161.2764,-1,-1,14.59150886535645,65,-9999,103240.512389375,0.976898193359375,0.086822509765625,-0.05108642578125,103240.507354375,2.998604171260746,1.52174687742295,-0.07738452011316325,-0.003255017334595323,-0.0008091554045677185,0.0001050042919814587,-0.02126765251159668,0.007812649011611938,-0.002190589904785156,2,-0.6892791725045768,0.02127661813205417,0.7199378287279286,0.07830136004199889,0.9958083033561707,0.07730730623006821,-0.04888305440545082,42.77980041503906,32.9188117980957,-10.454833984375,2,103239.6894694167,2,0,1582550351.847966,0,0,0,0,0,0,0,0,0,103238.053167,0,-3.073029,99.13358
1582550352.687885,90,0,1582550352.109489,41.20730279150193,29.07236723136099,161.2764,-1,-1,14.59150886535645,65,-9999,103240.522430375,0.9737548828125,0.0860137939453125,-0.0514068603515625,103240.517394375,2.998631902528784,1.521879518021053,-0.07742811558182777,-0.002968461252748966,0.01125629618763924,-0.003180537605658174,-0.01910400390625,0.009295016527175903,-0.003177404403686523,2,-0.6893277589092847,0.02125647800905883,0.7198915177367955,0.07830490557921205,0.995811402797699,0.07735077291727066,-0.04875080659985542,42.91610717773438,32.80810165405273,-10.5845947265625,2,103239.6894694167,2,0,1582550351.847966,0,0,0,0,0,0,0,0,0,103238.053167,0,-3.073029,99.13358
1582550352.692124,91,0,1582550352.109489,41.20730279150193,29.07236723136099,161.2764,-1,-1,14.59150886535645,65,-9999,103240.532470375,0.9727325439453125,0.087890625,-0.0498504638671875,103240.527434375,2.99866120580367,1.522156622848263,-0.07749980397532603,-0.00417029857635498,0.02846171520650387,-0.006813816260546446,-0.0213245153427124,0.008628427982330322,-0.002553582191467285,2,-0.689428706432783,0.02123128108389377,0.7197942740003218,0.07831597033156434,0.9958191514015198,0.07742224633693695,-0.04847458377480507,42.91610717773438,32.80810165405273,-10.5845947265625,2,103239.6894694167,2,0,1582550351.847966,0,0,0,0,0,0,0,0,0,103238.053167,0,-3.073029,99.13358
1582550352.702136,92,0,1582550352.109489,41.20730279150193,29.07236723136099,161.2764,-1,-1,14.59150886535645,65,-9999,103240.542541375,0.976043701171875,0.08892822265625,-0.047393798828125,103240.537475375,2.998669818649675,1.522477364963702,-0.07755449698242024,0.0001070045400410891,0.03218747675418854,-0.004099789075553417,-0.02353322505950928,0.009870857000350952,-0.002537548542022705,2,-0.6895449038699324,0.02122109298832231,0.7196820307721032,0.0783282233266222,0.9958305954933167,0.07747677713632584,-0.04815497994422913,43.01383972167969,33.11400985717773,-10.47747802734375,2,103239.6894694167,2,0,1582550351.847966,0,0,0,0,0,0,0,0,0,103238.053167,0,-3.073029,99.13358
1582550352.712298,93,0,1582550352.109489,41.20730279150193,29.07236723136099,161.2764,-1,-1,14.59150886535645,65,-9999,103240.552581375,0.983001708984375,0.0886993408203125,-0.043243408203125,103240.547515375,2.998699417595278,1.522732391383154,-0.07759474227196238,-0.003361774608492851,0.0247885137796402,-0.003371410071849823,-0.02131462097167969,0.01152446866035461,6.151199340820312e-05,2,-0.6896374867415387,0.02120630862498646,0.7195935772408664,0.07832865030823871,0.995839536190033,0.07751689851284027,-0.04790085926651955,43.01383972167969,33.11400985717773,-10.47747802734375,2,103239.6894694167,2,0,1582550351.847966,0,0,0,0,0,0,0,0,0,103238.053167,0,-3.073029,99.13358
1582550352.722749,94,0,1582550352.109489,41.20730279150193,29.07236723136099,161.2764,-1,-1,14.59150886535645,65,-9999,103240.562621375,0.98779296875,0.087127685546875,-0.0426483154296875,103240.557555375,2.998743667001634,1.522883435381103,-0.07761011191043186,-0.004942893050611019,0.01540672779083252,0.001063285861164331,-0.01395058631896973,0.01086825132369995,0.003619134426116943,2,-0.68969248734568,0.02119141466516355,0.7195427574143445,0.07831641155870928,0.9958457350730896,0.07753222435712814,-0.04775039479136467,42.87625122070312,32.8808708190918,-10.38568115234375,2,103239.6894694167,2,0,1582550351.847966,0,0,0,0,0,0,0,0,0,103238.053167,0,-3.073029,99.13358
1582550352.73233,95,0,1582550352.109489,41.20730279150193,29.07236723136099,161.2764,-1,-1,14.59150886535645,65,-9999,103240.572662375,0.9913482666015625,0.0844879150390625,-0.0401153564453125,103240.567596375,2.998805288790042,1.522881527080884,-0.0776672174392315,-0.006975319236516953,-0.001488765701651573,-0.004472482949495316,-0.009307265281677246,0.01041460037231445,0.00520777702331543,2,-0.6896931661231142,0.02114942999296171,0.7195435395076231,0.07831383123385965,0.9958410859107971,0.07758915424346924,-0.04775207489728928,42.87625122070312,32.8808708190918,-10.38568115234375,2,103239.6894694167,2,0,1582550351.847966,0,0,0,0,0,0,0,0,0,103238.053167,0,-3.073029,99.13358
1582550352.747287,96,0,1582550352.109489,41.20730279150193,29.07236723136099,161.2764,-1,-1,14.59150886535645,65,-9999,103240.582702375,0.9813385009765625,0.085968017578125,-0.0436248779296875,103240.577636375,2.998908029037498,1.522768544015119,-0.07773234725342183,-0.01137219835072756,-0.01485810056328773,-0.005387012846767902,-0.004490196704864502,0.006992727518081665,0.006968200206756592,2,-0.689654408736893,0.02108602643199342,0.719584091540351,0.07830039748105611,0.995830774307251,0.07765409350395203,-0.04786435142159462,43.10537719726562,33.02347183227539,-10.40899658203125,2,103239.6894694167,2,0,1582550351.847966,0,0,0,0,0,0,0,0,0,103238.053167,0,-3.073029,99.13358
1582550352.752376,97,0,1582550352.109489,41.20730279150193,29.07236723136099,161.2764,-1,-1,14.59150886535645,65,-9999,103240.592742375,0.9732208251953125,0.08929443359375,-0.045196533203125,103240.587707375,2.999036318147073,1.522651630004139,-0.07779824967890224,-0.01378268748521805,-0.01044404599815607,-0.006163123529404402,-0.01191043853759766,0.007689952850341797,0.005985736846923828,2,-0.6896145117170944,0.02101337061986741,0.7196268093515139,0.07827805348897376,0.9958199262619019,0.0777197927236557,-0.04798052832484245,43.10537719726562,33.02347183227539,-10.40899658203125,2,103239.6894694167,2,0,1582550351.847966,0,0,0,0,0,0,0,0,0,103238.053167,0,-3.073029,99.13358
1582550352.762464,98,0,1582550352.109489,41.20730279150193,29.07236723136099,161.2764,-1,-1,14.59150886535645,65,-9999,103240.602782375,0.9687652587890625,0.0900421142578125,-0.0437164306640625,103240.597747375,2.999159449888139,1.522404555240803,-0.07784877587787324,-0.012334194034338,-0.02790213190019131,-0.004260561428964138,-0.02190446853637695,0.01114916801452637,0.001867592334747314,2,-0.6895275213430158,0.02094297129946759,0.7197148824511165,0.07825365902590992,0.9958041906356812,0.0777701660990715,-0.04822637885808945,42.8837890625,32.9337272644043,-10.3515625,2,103239.6894694167,2,0,1582550351.847966,0,0,0,0,0,0,0,0,0,103238.053167,0,-3.073029,99.13358
1582550352.772419,99,0,1582550352.109489,41.20730279150193,29.07236723136099,161.2764,-1,-1,14.59150886535645,65,-9999,103240.612823375,0.9663543701171875,0.0933685302734375,-0.0469207763671875,103240.607787375,2.999280672366106,1.522189155167901,-0.07785049796239625,-0.01253310777246952,-0.02061060443520546,0.001617556437849998,-0.02560186386108398,0.01178827881813049,0.005515336990356445,2,-0.6894512913851505,0.02089213567472165,0.7197938728425346,0.07821288287455957,0.9957937002182007,0.07777188718318939,-0.04844086989760399,42.86697387695312,32.87738418579102,-10.437744140625,2,103239.6894694167,2,0,1582550351.847966,0,0,0,0,0,0,0,0,0,103238.053167,0,-3.073029,99.13358
1582550352.782459,100,0,1582550352.109489,41.20730279150193,29.07236723136099,161.2764,-1,-1,14.59150886535645,65,-9999,103240.622863375,0.973846435546875,0.0889739990234375,-0.041351318359375,103240.617828375,2.999376154521279,1.52187440605476,-0.07782944017483108,-0.009570075199007988,-0.03208430111408234,0.00400614645332098,-0.03024208545684814,0.01539507508277893,0.0010528564453125,2,-0.6893387430337683,0.02085453449052288,0.719906875851352,0.07817458130167304,0.9957799911499023,0.07775089144706726,-0.04875437170267105,42.86697387695312,32.87738418579102,-10.437744140625,2,103239.6894694167,2,0,1582550351.847966,0,0,0,0,0,0,0,0,0,103238.053167,0,-3.073029,99.13358
1582550352.792506,101,0,1582550352.109489,41.20730279150193,29.07236723136099,161.2764,-1,-1,14.59150886535645,65,-9999,103240.632903375,0.973114013671875,0.0906219482421875,-0.04656982421875,103240.627868375,2.999431896352665,1.521479330472114,-0.07780499099099328,-0.004389830399304628,-0.040156040340662,0.002946168649941683,-0.02340400218963623,0.01242873072624207,0.007580399513244629,2,-0.6891967995980022,0.02082873285796433,0.7200461659436415,0.07815025622444788,0.9957625865936279,0.07772651314735413,-0.04914787039160728,42.80755615234375,32.92117691040039,-10.54168701171875,2,103239.6894694167,2,0,1582550351.847966,0,0,0,0,0,0,0,0,0,103238.053167,0,-3.073029,99.13358
1582550352.808451,102,0,1582550352.109489,41.20730279150193,29.07236723136099,161.2764,-1,-1,14.59150886535645,65,-9999,103240.642943375,0.9731903076171875,0.0908966064453125,-0.0467681884765625,103240.637908375,2.999454112191858,1.521108128138835,-0.07778285354500374,-0.001645975629799068,-0.04005084559321404,0.002737377304583788,-0.02189207077026367,0.01205408573150635,0.003555357456207275,2,-0.6890631066803863,0.02081458144743931,0.7201757060291205,0.07813852949449013,0.995745837688446,0.07770444452762604,-0.04951757565140724,42.80755615234375,32.92117691040039,-10.54168701171875,2,103239.6894694167,2,0,1582550351.847966,0,0,0,0,0,0,0,0,0,103238.053167,0,-3.073029,99.13358
1582550352.812479,103,0,1582550352.109489,41.20730279150193,29.07236723136099,161.2764,-1,-1,14.59150886535645,65,-9999,103240.653014375,0.9786376953125,0.0858612060546875,-0.051116943359375,103240.647948375,2.999459100492566,1.520852865700485,-0.07780479807007241,-0.001059700967743993,-0.02521435357630253,-0.001056692562997341,-0.02347993850708008,0.01387855410575867,0.003092288970947266,2,-0.6889715061132524,0.02079494701210849,0.7202630211992489,0.07814690731918295,0.9957315325737,0.07772631943225861,-0.04977166652679443,42.78573608398438,33.02591323852539,-10.441162109375,2,103239.6894694167,2,0,1582550351.847966,0,0,0,0,0,0,0,0,0,103238.053167,0,-3.073029,99.13358
1582550352.822556,104,0,1582550352.109489,41.20730279150193,29.07236723136099,161.2764,-1,-1,14.59150886535645,65,-9999,103240.663055375,0.9815673828125,0.0815582275390625,-0.05419921875,103240.657989375,2.999464344720403,1.520744954530002,-0.07792811654303267,-0.001631481572985649,-0.01243038196116686,-0.01200308371335268,-0.01818543672561646,0.009010016918182373,-0.0004627108573913574,2,-0.6889342163902051,0.02074427873032963,0.7202956868647391,0.07818837661624067,0.9957166314125061,0.07784926891326904,-0.04987864196300507,42.78573608398438,33.02591323852539,-10.441162109375,2,103240.653686375,4,2,1582550352.812183,0,0,0,0,0,0,0,0,0,103238.053167,0,-3.073029,99.13358
1582550352.832611,105,0,1582550352.109489,41.20730279150193,29.07236723136099,161.2764,-1,-1,14.59150886535645,65,-9999,103240.673095375,0.9845123291015625,0.08294677734375,-0.05096435546875,103240.668029375,2.99948928816695,1.520757939627877,-0.07815381164137697,-0.003967308439314365,0.001356886699795723,-0.02211982011795044,-0.01462846994400024,0.003963232040405273,-0.004138588905334473,2,-0.6889419253877391,0.02065448112397827,0.720283497542114,0.07825655178744922,0.9956997036933899,0.07807427644729614,-0.04986483231186867,42.95132446289062,33.04667282104492,-10.3798828125,2,103240.653686375,4,2,1582550352.812183,0,0,0,0,0,0,0,0,0,103238.053167,0,-3.073029,99.13358
1582550352.842905,106,0,1582550352.109489,41.20730279150193,29.07236723136099,161.2764,-1,-1,14.59150886535645,65,-9999,103240.683135375,0.9845733642578125,0.0870361328125,-0.04583740234375,103240.678069375,2.999534644501861,1.520716632424111,-0.07839752368195163,-0.00671995198354125,-0.00467756949365139,-0.0232418105006218,-0.01193714141845703,0.003765970468521118,-0.002297878265380859,2,-0.6889305019705614,0.02054899942297367,0.7202900538571201,0.07832409830200615,0.9956785440444946,0.07831723988056183,-0.04990500584244728,42.95132446289062,33.04667282104492,-10.3798828125,2,103240.653686375,4,2,1582550352.812183,0,0,0,0,0,0,0,0,0,103238.053167,0,-3.073029,99.13358
1582550352.852799,107,0,1582550352.109489,41.20730279150193,29.07236723136099,161.2764,-1,-1,14.59150886535645,65,-9999,103240.693175375,0.9806976318359375,0.091522216796875,-0.0464324951171875,103240.688110375,2.999595308276953,1.520613170310672,-0.07858076140515431,-0.007961690425872803,-0.01112074591219425,-0.01748541742563248,-0.01057487726211548,0.007459044456481934,0.003480672836303711,2,-0.6888960960901098,0.02045770909740174,0.7203210475821225,0.07836606421247683,0.9956591129302979,0.07849991321563721,-0.05000730231404305,42.82408142089844,33.18490982055664,-10.46661376953125,2,103240.653686375,4,2,1582550352.812183,0,0,0,0,0,0,0,0,0,103238.053167,0,-3.073029,99.13358
1582550352.873443,108,0,1582550352.109489,41.20730279150193,29.07236723136099,161.2764,-1,-1,14.59150886535645,65,-9999,103240.703216375,0.978240966796875,0.0921630859375,-0.0491790771484375,103240.698180375,2.99968671171797,1.52049470516601,-0.07869414599878991,-0.01074149832129478,-0.01162967551499605,-0.01015240326523781,-0.01417630910873413,0.01241192221641541,0.004040718078613281,2,-0.6888557428829101,0.02038052355781061,0.7203609799249338,0.07837317004586453,0.9956441521644592,0.07861294597387314,-0.05012479797005653,42.82408142089844,33.18490982055664,-10.46661376953125,2,103240.653686375,4,2,1582550352.812183,0,0,0,0,0,0,0,0,0,103238.053167,0,-3.073029,99.13358
1582550352.874381,109,0,1582550352.109489,41.20730279150193,29.07236723136099,161.2764,-1,-1,14.59150886535645,65,-9999,103240.713256375,0.978057861328125,0.0914154052734375,-0.0470123291015625,103240.708221375,2.999806181486947,1.520370553235776,-0.07874210554539419,-0.01360967382788658,-0.01259039435535669,-0.002844617003574967,-0.01709598302841187,0.01347801089286804,0.00137174129486084,2,-0.6888128220870005,0.02031714439240467,0.7204065594394942,0.07834782139247254,0.995634138584137,0.0786607563495636,-0.05024822056293488,42.85026550292969,33.22793197631836,-10.44207763671875,2,103240.653686375,4,2,1582550352.812183,0,0,0,0,0,0,0,0,0,103238.053167,0,-3.073029,99.13358
1582550352.883091,110,0,1582550352.109489,41.20730279150193,29.07236723136099,161.2764,-1,-1,14.59150886535645,65,-9999,103240.723296375,0.978271484375,0.09228515625,-0.040679931640625,103240.718261375,2.999933396170561,1.520120245866966,-0.07871352794805142,-0.01327385008335114,-0.02365130186080933,0.004618092440068722,-0.0174214243888855,0.01294192671775818,0.002292513847351074,2,-0.6887235969800483,0.02027388728571139,0.7204989412957405,0.07829476133828345,0.9956239461898804,0.07863227277994156,-0.05049755424261093,42.85026550292969,33.22793197631836,-10.44207763671875,2,103240.653686375,4,2,1582550352.812183,0,0,0,0,0,0,0,0,0,103238.053167,0,-3.073029,99.13358
1582550352.893258,111,0,1582550352.109489,41.20730279150193,29.07236723136099,161.2764,-1,-1,14.59150886535645,65,-9999,103240.733337375,0.9780120849609375,0.0899810791015625,-0.0406951904296875,103240.728301375,3.000087899611097,1.519625479533211,-0.07862557917149193,-0.0160435363650322,-0.04935985803604126,0.009820045903325081,-0.0177541971206665,0.01350265741348267,0.009514391422271729,2,-0.6885458386165697,0.02023317812480391,0.7206786164970669,0.07821398771780191,0.9956055879592896,0.07854459434747696,-0.05099049210548401,42.87274169921875,33.04585647583008,-10.56512451171875,2,103240.653686375,4,2,1582550352.812183,0,0,0,0,0,0,0,0,0,103238.053167,0,-3.073029,99.13358
1582550352.903093,112,0,1582550352.109489,41.20730279150193,29.07236723136099,161.2764,-1,-1,14.59150886535645,65,-9999,103240.743377375,0.973876953125,0.09149169921875,-0.043975830078125,103240.738341375,3.000237808829371,1.518904795616292,-0.07846693746860756,-0.01437506638467312,-0.07484045624732971,0.01723242178559303,-0.01760756969451904,0.01201289892196655,0.01104152202606201,2,-0.6882856920055151,0.02021089955406419,0.7209387764707671,0.07811297325395233,0.9955811500549316,0.07838644087314606,-0.0517086498439312,42.87274169921875,33.04585647583008,-10.56512451171875,2,103240.653686375,4,2,1582550352.812183,0,0,0,0,0,0,0,0,0,103238.053167,0,-3.073029,99.13358
1582550352.913207,113,0,1582550352.109489,41.20730279150193,29.07236723136099,161.2764,-1,-1,14.59150886535645,65,-9999,103240.753417375,0.96856689453125,0.0936279296875,-0.052459716796875,103240.748382375,3.000363833141086,1.518165712018271,-0.07826328662791988,-0.01239757612347603,-0.07460945099592209,0.02075424417853355,-0.02068257331848145,0.01265841722488403,0.009855389595031738,2,-0.6880180314514228,0.02021249605471048,0.721205729927212,0.07800533307510515,0.9955584406852722,0.07818341255187988,-0.05244528502225876,42.76994323730469,33.0892448425293,-10.45098876953125,2,103240.653686375,4,2,1582550352.812183,0,0,0,0,0,0,0,0,0,103238.053167,0,-3.073029,99.13358
1582550352.937834,114,0,1582550352.109489,41.20730279150193,29.07236723136099,161.2764,-1,-1,14.59150886535645,65,-9999,103240.763488375,0.9659271240234375,0.0941314697265625,-0.0562744140625,103240.758422375,3.000443563007449,1.517563637486776,-0.07802727055465143,-0.006678172387182713,-0.06083238497376442,0.02327093109488487,-0.02652877569198608,0.01548773050308228,0.001758456230163574,2,-0.6877988205744605,0.020247183648885,0.7214251219060238,0.07790197534927185,0.9955452680587769,0.07794812321662903,-0.05304566770792007,42.76994323730469,33.0892448425293,-10.45098876953125,2,103240.653686375,4,2,1582550352.812183,0,0,0,0,0,0,0,0,0,103238.053167,0,-3.073029,99.13358
1582550352.939117,115,0,1582550352.109489,41.20730279150193,29.07236723136099,161.2764,-1,-1,14.59150886535645,65,-9999,103240.773528375,0.9603118896484375,0.09130859375,-0.064422607421875,103240.768462375,3.000475184405312,1.51724601010938,-0.07775952041017777,-0.0006938360165804625,-0.03466597571969032,0.02881111949682236,-0.02889776229858398,0.01651766896247864,-0.002257704734802246,2,-0.6876812916969692,0.02032104049889111,0.7215458359126357,0.07780225155355353,0.995549201965332,0.07768118381500244,-0.05336299166083336,42.7017822265625,33.09542465209961,-10.504638671875,2,103240.653686375,4,2,1582550352.812183,0,0,0,0,0,0,0,0,0,103238.053167,0,-3.073029,99.13358
1582550352.943577,116,0,1582550352.109489,41.20730279150193,29.07236723136099,161.2764,-1,-1,14.59150886535645,65,-9999,103240.783568375,0.9600677490234375,0.086212158203125,-0.06744384765625,103240.778503375,3.000477667930036,1.517394499950679,-0.07755580052227329,0.0002734242007136345,0.01334629207849503,0.02115426771342754,-0.03429257869720459,0.01490494608879089,-0.009820461273193359,2,-0.6877323916603135,0.02039983941418611,0.7215026900117256,0.07773020058264296,0.9955729246139526,0.0774780735373497,-0.05321600660681725,42.7017822265625,33.09542465209961,-10.504638671875,2,103240.653686375,4,2,1582550352.812183,0,0,0,0,0,0,0,0,0,103238.053167,0,-3.073029,99.13358
1582550352.953376,117,0,1582550352.109489,41.20730279150193,29.07236723136099,161.2764,-1,-1,14.59150886535645,65,-9999,103240.793609375,0.9740753173828125,0.0867767333984375,-0.0565338134765625,103240.788543375,3.000447105682198,1.517859114350559,-0.07740945654517545,0.003706199117004871,0.05088471621274948,0.01489310152828693,-0.03631222248077393,0.009344100952148438,-0.01508939266204834,2,-0.6878978802773625,0.02048145430795284,0.7213471560235503,0.07768642066507564,0.9956086277961731,0.07733216881752014,-0.05275403335690498,42.79864501953125,33.01955032348633,-10.29779052734375,2,103240.653686375,4,2,1582550352.812183,0,0,0,0,0,0,0,0,0,103238.053167,0,-3.073029,99.13358
1582550352.963326,118,0,1582550352.109489,41.20730279150193,29.07236723136099,161.2764,-1,-1,14.59150886535645,65,-9999,103240.803649375,0.9805450439453125,0.0872650146484375,-0.0497894287109375,103240.798583375,3.000406388733352,1.518304732280033,-0.07729363293578906,0.004871065728366375,0.04309017956256866,0.01227015443146229,-0.02534294128417969,0.009383291006088257,-0.007369160652160645,2,-0.6880567451374118,0.02055475317431171,0.7211967050757859,0.07765691897631088,0.9956409335136414,0.07721669226884842,-0.05231083557009697,42.79864501953125,33.01955032348633,-10.29779052734375,2,103240.653686375,4,2,1582550352.812183,0,0,0,0,0,0,0,0,0,103238.053167,0,-3.073029,99.13358
1582550352.973372,119,0,1582550352.109489,41.20730279150193,29.07236723136099,161.2764,-1,-1,14.59150886535645,65,-9999,103240.813689375,0.9751739501953125,0.0886993408203125,-0.0504302978515625,103240.808654375,3.000356589371839,1.518768273824829,-0.07717605364966391,0.005740475840866566,0.04471574723720551,0.0114867752417922,-0.01451200246810913,0.00998881459236145,0.001996517181396484,2,-0.6882219167157262,0.02063250354051444,0.721039859753473,0.07762988713856211,0.9956742525100708,0.07709946483373642,-0.05184978619217873,42.70970153808594,33.04092788696289,-10.50982666015625,2,103240.653686375,4,2,1582550352.812183,0,0,0,0,0,0,0,0,0,103238.053167,0,-3.073029,99.13358
1582550353.004999,120,0,1582550352.109489,41.20730279150193,29.07236723136099,161.2764,-1,-1,14.59150886535645,65,-9999,103240.823730375,0.9696502685546875,0.0931854248046875,-0.0519256591796875,103240.818694375,3.000305864864299,1.519273359285936,-0.07699586893814515,0.005455250851809978,0.04983621090650558,0.01787037402391434,-0.01989245414733887,0.01131284236907959,0.0007618069648742676,2,-0.6884012425961814,0.02073484637337181,0.7208709055501952,0.07758128780999335,0.9957141280174255,0.07691981643438339,-0.05134759098291397,42.70970153808594,33.04092788696289,-10.50982666015625,2,103240.653686375,4,2,1582550352.812183,0,0,0,0,0,0,0,0,0,103238.053167,0,-3.073029,99.13358
1582550353.006414,121,0,1582550352.109489,41.20730279150193,29.07236723136099,161.2764,-1,-1,14.59150886535645,65,-9999,103240.833770375,0.9703216552734375,0.09185791015625,-0.0533599853515625,103240.828735375,3.000264160264269,1.519911166256101,-0.07674233816038453,0.005093532614409924,0.06519144028425217,0.02703885734081268,-0.02491879463195801,0.01563975214958191,-0.0007725954055786133,2,-0.6886275276571332,0.02086577199440498,0.7206593758495153,0.07750290029672319,0.9957661032676697,0.07666703313589096,-0.05071349442005157,42.85093688964844,32.79315567016602,-10.37823486328125,2,103240.653686375,4,2,1582550352.812183,0,0,0,0,0,0,0,0,0,103238.053167,0,-3.073029,99.13358
1582550353.007516,122,0,1582550352.109489,41.20730279150193,29.07236723136099,161.2764,-1,-1,14.59150886535645,65,-9999,103240.843810375,0.9816131591796875,0.082672119140625,-0.0446624755859375,103240.838775375,3.00022932415252,1.520536548200599,-0.07650584462224472,0.004531871993094683,0.06564711034297943,0.02396663650870323,-0.02696734666824341,0.01682171225547791,-0.003729104995727539,2,-0.6888495384886495,0.02098763908773543,0.7204517426162247,0.07742793565096256,0.9958157539367676,0.07643122971057892,-0.05009166523814201,42.85093688964844,32.79315567016602,-10.37823486328125,2,103240.653686375,4,2,1582550352.812183,0,0,0,0,0,0,0,0,0,103238.053167,0,-3.073029,99.13358
1582550353.013826,123,0,1582550352.109489,41.20730279150193,29.07236723136099,161.2764,-1,-1,14.59150886535645,65,-9999,103240.853850375,0.990020751953125,0.0831451416015625,-0.03369140625,103240.848815375,3.000203213179987,1.520826470516893,-0.07628436855107154,0.004276208579540253,0.03004144318401814,0.02367075905203819,-0.01645493507385254,0.007704168558120728,0.002467989921569824,2,-0.6889509369596762,0.02108804412046789,0.7203593714041839,0.07735844293926725,0.995847225189209,0.07621040195226669,-0.04980380088090897,42.69302368164062,32.88599014282227,-10.46441650390625,2,103240.653686375,4,2,1582550352.812183,0,0,0,0,0,0,0,0,0,103238.053167,0,-3.073029,99.13358
1582550353.023625,124,0,1582550352.109489,41.20730279150193,29.07236723136099,161.2764,-1,-1,14.59150886535645,65,-9999,103240.863891375,0.9839324951171875,0.083709716796875,-0.034881591796875,103240.858855375,3.000194687573005,1.520696150447583,-0.07608289592833248,0.001722503453493118,-0.01250814646482468,0.02290057018399239,-0.006743907928466797,0.006623327732086182,0.01463764905929565,2,-0.6889013928110617,0.02115888207758554,0.7204115658173563,0.07729387883895794,0.995855987071991,0.07600951194763184,-0.04993434622883797,42.69302368164062,32.88599014282227,-10.46441650390625,2,103240.653686375,4,2,1582550352.812183,0,0,0,0,0,0,0,0,0,103238.053167,0,-3.073029,99.13358
1582550353.03379,125,0,1582550352.109489,41.20730279150193,29.07236723136099,161.2764,-1,-1,14.59150886535645,65,-9999,103240.873962375,0.970611572265625,0.0817718505859375,-0.049102783203125,103240.868896375,3.000155020893243,1.5203674440502,-0.07599512870534531,0.004865908063948154,-0.03550897538661957,0.009670764207839966,-0.009770512580871582,0.00817573070526123,0.01673537492752075,2,-0.6887814632520629,0.02119162006815511,0.7205265759282566,0.07728158915259609,0.995846152305603,0.07592200487852097,-0.05026202276349068,42.83314514160156,32.86000442504883,-10.60577392578125,2,103240.653686375,4,2,1582550352.812183,0,0,0,0,0,0,0,0,0,103238.053167,0,-3.073029,99.13358
1582550353.066026,126,0,1582550352.109489,41.20730279150193,29.07236723136099,161.2764,-1,-1,14.59150886535645,65,-9999,103240.884002375,0.9648895263671875,0.0810089111328125,-0.06103515625,103240.878936375,3.000105866545257,1.520317035191126,-0.07608759550040863,0.004612907767295837,-0.002615209668874741,-0.008657908067107201,-0.02285289764404297,0.005764156579971313,0.004349589347839355,2,-0.6887639392607323,0.02117311870402222,0.7205385573458067,0.07733150035417091,0.9958366751670837,0.0760141983628273,-0.0503118708729744,42.83314514160156,32.86000442504883,-10.60577392578125,2,103240.653686375,4,2,1582550352.812183,0,0,0,0,0,0,0,0,0,103238.053167,0,-3.073029,99.13358
1582550353.067453,127,0,1582550352.109489,41.20730279150193,29.07236723136099,161.2764,-1,-1,14.59150886535645,65,-9999,103240.894042375,0.975189208984375,0.07891845703125,-0.0576019287109375,103240.888976375,3.000085844724795,1.520554685374583,-0.07636031435362936,-0.0002729420084506273,0.02485016547143459,-0.02684090659022331,-0.03154158592224121,0.005171775817871094,-0.009911000728607178,2,-0.6888527505833297,0.02109045364181777,0.7204454927950302,0.07742959016574374,0.9958277940750122,0.07628612965345383,-0.05007416009902954,42.90573120117188,32.96283340454102,-10.5316162109375,2,103240.653686375,4,2,1582550352.812183,0,0,0,0,0,0,0,0,0,103238.053167,0,-3.073029,99.13358
1582550353.068822,128,0,1582550352.109489,41.20730279150193,29.07236723136099,161.2764,-1,-1,14.59150886535645,65,-9999,103240.904082375,0.97314453125,0.083587646484375,-0.0545501708984375,103240.899016375,3.000074809255175,1.52097213392188,-0.07672100733965921,0.0001323912292718887,0.04126189649105072,-0.03486714139580727,-0.02251684665679932,0.001943439245223999,-0.009488940238952637,2,-0.6890074803878568,0.02097984100997757,0.7202874970376252,0.07755271322540153,0.9958210587501526,0.07664576172828674,-0.04965707659721375,42.90573120117188,32.96283340454102,-10.5316162109375,2,103240.653686375,4,2,1582550352.812183,0,0,0,0,0,0,0,0,0,103238.053167,0,-3.073029,99.13358
1582550353.073814,129,0,1582550352.109489,41.20730279150193,29.07236723136099,161.2764,-1,-1,14.59150886535645,65,-9999,103240.914123375,0.97265625,0.0867919921875,-0.0527496337890625,103240.909057375,3.000086880965561,1.521565369422388,-0.0771409281075925,-0.001896873582154512,0.06150045990943909,-0.0449679046869278,-0.02165937423706055,0.00556829571723938,-0.005930900573730469,2,-0.6892264171413249,0.02084670727477261,0.7200674750140656,0.07768602056188512,0.995818018913269,0.07706444710493088,-0.04906472191214561,42.88153076171875,32.89497756958008,-10.399658203125,2,103240.653686375,4,2,1582550352.812183,0,0,0,0,0,0,0,0,0,103238.053167,0,-3.073029,99.13358
1582550353.083927,130,0,1582550352.109489,41.20730279150193,29.07236723136099,161.2764,-1,-1,14.59150886535645,65,-9999,103240.924163375,0.972991943359375,0.0913543701171875,-0.04730224609375,103240.919128375,3.000143622394019,1.522180042328629,-0.07746195674424247,-0.006546752993017435,0.06240992993116379,-0.03146301954984665,-0.02285480499267578,0.008772939443588257,-0.004972696304321289,2,-0.6894522182075538,0.02073487352810971,0.7198455626335726,0.07776922317141888,0.9958233237266541,0.07738451659679413,-0.04845140874385834,42.88153076171875,32.89497756958008,-10.399658203125,2,103240.653686375,4,2,1582550352.812183,0,0,0,0,0,0,0,0,0,103238.053167,0,-3.073029,99.13358
1582550353.094061,131,0,1582550352.109489,41.20730279150193,29.07236723136099,161.2764,-1,-1,14.59150886535645,65,-9999,103240.934203375,0.973663330078125,0.093902587890625,-0.04730224609375,103240.929168375,3.000223882794181,1.522780373645114,-0.07768014194149177,-0.008588244207203388,0.05845917016267776,-0.0214131660759449,-0.02327889204025269,0.01279732584953308,-0.0005972385406494141,2,-0.68967175757753,0.02065161185968578,0.7196332107755481,0.07780890898718834,0.9958351850509644,0.07760204374790192,-0.04785275459289551,42.73283386230469,32.89928817749023,-10.46966552734375,2,103240.653686375,4,2,1582550352.812183,0,0,0,0,0,0,0,0,0,103238.053167,0,-3.073029,99.13358
1582550353.123273,132,0,1582550352.109489,41.20730279150193,29.07236723136099,161.2764,-1,-1,14.59150886535645,65,-9999,103240.944244375,0.9782257080078125,0.09039306640625,-0.044219970703125,103240.939208375,3.000310957992878,1.523395671625867,-0.07784338851613491,-0.009443385526537895,0.0606996938586235,-0.01560933887958527,-0.02253258228302002,0.01606780290603638,-5.125999450683594e-06,2,-0.689895998762695,0.02058648679962732,0.719418196574059,0.07782722496947819,0.9958518743515015,0.07776479423046112,-0.04723941534757614,42.73283386230469,32.89928817749023,-10.46966552734375,2,103240.653686375,4,2,1582550352.812183,0,0,0,0,0,0,0,0,0,103238.053167,0,-3.073029,99.13358
1582550353.124512,133,0,1582550352.109489,41.20730279150193,29.07236723136099,161.2764,-1,-1,14.59150886535645,65,-9999,103240.954284375,0.9847869873046875,0.088104248046875,-0.0378875732421875,103240.949248375,3.000390589401667,1.523861200171613,-0.07797923300716697,-0.009856827557086945,0.04563403129577637,-0.0129558127373457,-0.01903426647186279,0.01362824440002441,0.001239895820617676,2,-0.690065895709143,0.02052801904008733,0.7192555366024018,0.07784040013857091,0.9958632588386536,0.077900230884552,-0.04677531868219376,42.87994384765625,33.0770378112793,-10.44561767578125,2,103240.653686375,4,2,1582550352.812183,0,0,0,0,0,0,0,0,0,103238.053167,0,-3.073029,99.13358
1582550353.125528,134,0,1582550352.109489,41.20730279150193,29.07236723136099,161.2764,-1,-1,14.59150886535645,65,-9999,103240.964324375,0.9855499267578125,0.0888519287109375,-0.0361328125,103240.959289375,3.000444591966879,1.524089470010213,-0.07808096770247257,-0.007014169823378325,0.02541024796664715,-0.009803162887692451,-0.01238423585891724,0.0101851224899292,0.007649779319763184,2,-0.6901497638923115,0.02048149323696713,0.7191749769585042,0.07785354266576322,0.9958660006523132,0.07800165563821793,-0.04654762521386147,42.87994384765625,33.0770378112793,-10.44561767578125,2,103240.653686375,4,2,1582550352.812183,0,0,0,0,0,0,0,0,0,103238.053167,0,-3.073029,99.13358
1582550353.133913,135,0,1582550352.109489,41.20730279150193,29.07236723136099,161.2764,-1,-1,14.59150886535645,65,-9999,103240.974364375,0.9835357666015625,0.0904388427734375,-0.03472900390625,103240.969329375,3.00049085187565,1.524008193512964,-0.07812541723595999,-0.005522831343114376,-0.008732031099498272,-0.004214689135551453,-0.01036286354064941,0.01056802272796631,0.009927809238433838,2,-0.6901215457950139,0.02044629835305922,0.7192031167896774,0.07785298909494281,0.9958587288856506,0.07804596424102783,-0.04662840068340302,42.93978881835938,33.0603141784668,-10.3245849609375,2,103240.653686375,4,2,1582550352.812183,0,0,0,0,0,0,0,0,0,103238.053167,0,-3.073029,99.13358
1582550353.144656,136,0,1582550352.109489,41.20730279150193,29.07236723136099,161.2764,-1,-1,14.59150886535645,65,-9999,103240.984435375,0.9805755615234375,0.0906524658203125,-0.0418243408203125,103240.979369375,3.000541146251128,1.523750920839104,-0.07809354471371542,-0.004196310881525278,-0.02606787718832493,0.004518348723649979,-0.01145201921463013,0.01215618848800659,0.01262533664703369,2,-0.6900291563334713,0.02043045002081473,0.7192950005850466,0.07782659047353463,0.9958491325378418,0.07801419496536255,-0.04688471928238869,42.93978881835938,33.0603141784668,-10.3245849609375,2,103240.974975375,2,0,1582550353.133472,0,0,0,0,0,0,0,0,0,103238.053167,0,-3.073029,99.13358
1582550353.154203,137,0,1582550352.109489,41.20730279150193,29.07236723136099,161.2764,-1,-1,14.59150886535645,65,-9999,103240.994475375,0.9843902587890625,0.084075927734375,-0.043914794921875,103240.989410375,3.000629004981811,1.523422632052284,-0.07807822223856498,-0.008604461327195168,-0.03023169189691544,0.002819635905325413,-0.01529836654663086,0.01278185844421387,0.006848573684692383,2,-0.6899117917605424,0.02039290564293622,0.7194122238103153,0.07779308072712282,0.9958348274230957,0.07799891382455826,-0.04721169918775558,42.80464172363281,33.09554672241211,-10.364990234375,2,103240.974975375,2,0,1582550353.133472,0,0,0,0,0,0,0,0,0,103238.053167,0,-3.073029,99.13358
1582550353.179821,138,0,1582550352.109489,41.20730279150193,29.07236723136099,161.2764,-1,-1,14.59150886535645,65,-9999,103241.004516375,0.9850921630859375,0.084228515625,-0.0417633056640625,103240.999450375,3.00071588188945,1.522986157075832,-0.07813867889967571,-0.007997261360287666,-0.04526283964514732,-0.0049850232899189,-0.01272481679916382,0.00771668553352356,0.00270545482635498,2,-0.6897563827249602,0.0203241018617053,0.7195638580586192,0.07778700534043426,0.9958094358444214,0.07805918902158737,-0.04764612764120102,42.80464172363281,33.09554672241211,-10.364990234375,2,103240.974975375,2,0,1582550353.133472,0,0,0,0,0,0,0,0,0,103238.053167,0,-3.073029,99.13358
1582550353.181451,139,0,1582550352.109489,41.20730279150193,29.07236723136099,161.2764,-1,-1,14.59150886535645,65,-9999,103241.014556375,0.9799957275390625,0.086456298828125,-0.0518341064453125,103241.009490375,3.000801962222775,1.522637934328932,-0.0782770510325304,-0.008294852450489998,-0.03688709437847137,-0.01188638806343079,-0.009981274604797363,0.005213618278503418,0.006866335868835449,2,-0.6896336209326653,0.02023082006980897,0.7196819609827594,0.0778070028748663,0.9957819581031799,0.07819713652133942,-0.04799236729741096,42.85777282714844,33.11852645874023,-10.36419677734375,2,103240.974975375,2,0,1582550353.133472,0,0,0,0,0,0,0,0,0,103238.053167,0,-3.073029,99.13358
1582550353.184441,140,0,1582550352.109489,41.20730279150193,29.07236723136099,161.2764,-1,-1,14.59150886535645,65,-9999,103241.024596375,0.9806671142578125,0.0839996337890625,-0.053802490234375,103241.019530375,3.000910948716172,1.522564931579498,-0.07849682406888395,-0.01299346704035997,-0.005124637857079506,-0.02050357684493065,-0.01481294631958008,0.008198916912078857,-0.00201869010925293,2,-0.6896110752452214,0.02011090011725181,0.7197029789624878,0.07784386679487376,0.9957613348960876,0.07841623574495316,-0.04806423187255859,42.85777282714844,33.11852645874023,-10.36419677734375,2,103240.974975375,2,0,1582550353.133472,0,0,0,0,0,0,0,0,0,103238.053167,0,-3.073029,99.13358
1582550353.194558,141,0,1582550352.109489,41.20730279150193,29.07236723136099,161.2764,-1,-1,14.59150886535645,65,-9999,103241.034637375,0.982025146484375,0.0869903564453125,-0.048248291015625,103241.029601375,3.00101171125286,1.522609816041633,-0.07874733221226757,-0.01084035076200962,0.003446411341428757,-0.02428959868848324,-0.01604676246643066,0.005995959043502808,-0.006596207618713379,2,-0.6896312128725821,0.01998728820556694,0.7196818940525771,0.07789304418616233,0.9957439303398132,0.07866597175598145,-0.04801859706640244,42.91482543945312,33.19775009155273,-10.28363037109375,2,103240.974975375,2,0,1582550353.133472,0,0,0,0,0,0,0,0,0,103238.053167,0,-3.073029,99.13358
1582550353.204353,142,0,1582550352.109489,41.20730279150193,29.07236723136099,161.2764,-1,-1,14.59150886535645,65,-9999,103241.044677375,0.9718475341796875,0.0917816162109375,-0.052825927734375,103241.039641375,3.001112554208128,1.522784537245962,-0.07898696143855188,-0.01047283504158258,0.0156404934823513,-0.02205973491072655,-0.01304566860198975,0.006687790155410767,-0.0009424686431884766,2,-0.6896979254226751,0.01987262648126992,0.7196161805376845,0.0779371502637925,0.9957332015037537,0.07890485227108002,-0.04784370213747025,42.91482543945312,33.19775009155273,-10.28363037109375,2,103240.974975375,2,0,1582550353.133472,0,0,0,0,0,0,0,0,0,103238.053167,0,-3.073029,99.13358
1582550353.214484,143,0,1582550352.109489,41.20730279150193,29.07236723136099,161.2764,-1,-1,14.59150886535645,65,-9999,103241.054717375,0.9694976806640625,0.089813232421875,-0.0498046875,103241.049682375,3.001213003152914,1.523109386108141,-0.07924533965116411,-0.01232038252055645,0.03083095699548721,-0.02431797236204147,-0.02192139625549316,0.01224377751350403,-0.004639089107513428,2,-0.68981883112967,0.01975719794386066,0.7194981968044223,0.07798639026265275,0.9957283735275269,0.07916242629289627,-0.0475192666053772,42.84255981445312,33.11173629760742,-10.37664794921875,2,103240.974975375,2,0,1582550353.133472,0,0,0,0,0,0,0,0,0,103238.053167,0,-3.073029,99.13358
1582550353.247024,144,0,1582550352.109489,41.20730279150193,29.07236723136099,161.2764,-1,-1,14.59150886535645,65,-9999,103241.064757375,0.9723968505859375,0.0923004150390625,-0.04827880859375,103241.059722375,3.001290184607221,1.523538311289555,-0.07951108735086633,-0.009064135141670704,0.04041327908635139,-0.02502743527293205,-0.02668142318725586,0.01046827435493469,-0.003968596458435059,2,-0.6899769850912056,0.01965120986126739,0.7193431149209172,0.07804554559698296,0.9957277774810791,0.07942733913660049,-0.04709117859601974,42.84255981445312,33.11173629760742,-10.37664794921875,2,103240.974975375,2,0,1582550353.133472,0,0,0,0,0,0,0,0,0,103238.053167,0,-3.073029,99.13358
1582550353.24886,145,0,1582550352.109489,41.20730279150193,29.07236723136099,161.2764,-1,-1,14.59150886535645,65,-9999,103241.074798375,0.97882080078125,0.087890625,-0.0463104248046875,103241.069762375,3.001347975907201,1.524058320535395,-0.0798015568218445,-0.0087294802069664,0.05222626775503159,-0.02724217437207699,-0.02410399913787842,0.01243695616722107,-0.001481592655181885,2,-0.6901679368570701,0.0195465485082213,0.7191547019822017,0.07811929725672373,0.9957289695739746,0.07971688359975815,-0.04657230153679848,43.02357482910156,33.14460372924805,-10.294677734375,2,103240.974975375,2,0,1582550353.133472,0,0,0,0,0,0,0,0,0,103238.053167,0,-3.073029,99.13358
1582550353.250304,146,0,1582550352.109489,41.20730279150193,29.07236723136099,161.2764,-1,-1,14.59150886535645,65,-9999,103241.084838375,0.977386474609375,0.0903778076171875,-0.0452423095703125,103241.079803375,3.001396691911897,1.524608922960723,-0.08011854269372191,-0.008258366957306862,0.0545051321387291,-0.03075381927192211,-0.01818358898162842,0.008687704801559448,-0.001450955867767334,2,-0.6903700274130377,0.01943668107242269,0.7189544290647817,0.07820518603485421,0.9957292675971985,0.08003285527229309,-0.04602288082242012,43.10687255859375,33.16268539428711,-10.02154541015625,2,103240.974975375,2,0,1582550353.133472,0,0,0,0,0,0,0,0,0,103238.053167,0,-3.073029,99.13358
1582550353.254678,147,0,1582550352.109489,41.20730279150193,29.07236723136099,161.2764,-1,-1,14.59150886535645,65,-9999,103241.094909375,0.976043701171875,0.0921478271484375,-0.0456085205078125,103241.089843375,3.001455046241062,1.525215201260319,-0.08041119457329524,-0.007942084223031998,0.05970127880573273,-0.02802715450525284,-0.01728785037994385,0.008975774049758911,0.0004006624221801758,2,-0.6905918626939214,0.01933449727245606,0.7187360624125722,0.07827877315900289,0.9957334995269775,0.08032456785440445,-0.04541811347007751,43.10687255859375,33.16268539428711,-10.02154541015625,2,103240.974975375,2,0,1582550353.133472,0,0,0,0,0,0,0,0,0,103238.053167,0,-3.073029,99.13358
1582550353.264786,148,0,1582550352.109489,41.20730279150193,29.07236723136099,161.2764,-1,-1,14.59150886535645,65,-9999,103241.104949375,0.9797821044921875,0.0918731689453125,-0.0415802001953125,103241.099883375,3.001501046531875,1.525800562205028,-0.08068215660775205,-0.005304489750415087,0.05884906649589539,-0.02697600424289703,-0.02063417434692383,0.01197102665901184,-0.001205623149871826,2,-0.69080572590248,0.01924364531743344,0.718525252511079,0.07834962591966038,0.9957382082939148,0.08059465140104294,-0.04483426362276077,43.03704833984375,33.3740348815918,-10.1102294921875,2,103240.974975375,2,0,1582550353.133472,0,0,0,0,0,0,0,0,0,103238.053167,0,-3.073029,99.13358
1582550353.274668,149,0,1582550352.109489,41.20730279150193,29.07236723136099,161.2764,-1,-1,14.59150886535645,65,-9999,103241.11498275,0.97698974609375,0.095733642578125,-0.0399169921875,103241.109923375,3.001545870694599,1.526304739753112,-0.08088585056763443,-0.005412347614765167,0.05181379616260529,-0.01962221786379814,-0.01645928621292114,0.01068463921546936,0.001831650733947754,2,-0.6909895777085657,0.01917434867335144,0.7183449374062002,0.07839862998344532,0.9957442283630371,0.08079767972230911,-0.04433149471879005,43.03704833984375,33.3740348815918,-10.1102294921875,2,103240.974975375,2,0,1582550353.133472,0,0,0,0,0,0,0,0,0,103238.053167,0,-3.073029,99.13358
1582550353.305673,150,0,1582550352.109489,41.20730279150193,29.07236723136099,161.2764,-1,-1,14.59150886535645,65,-9999,103241.12502375,0.9709320068359375,0.098968505859375,-0.039703369140625,103241.11995775,3.001571765733597,1.526715930647975,-0.08099427870800058,-0.003778232261538506,0.04052385687828064,-0.009684099815785885,-0.01808595657348633,0.01393347978591919,0.003786861896514893,2,-0.6911387269491307,0.01914236404205111,0.7181995942989088,0.07842262701257813,0.9957534670829773,0.08090575039386749,-0.04392166063189507,43.072509765625,33.17351150512695,-10.09991455078125,2,103240.974975375,2,0,1582550353.133472,0,0,0,0,0,0,0,0,0,103238.053167,0,-3.073029,99.13358
1582550353.306957,151,0,1582550352.109489,41.20730279150193,29.07236723136099,161.2764,-1,-1,14.59150886535645,65,-9999,103241.13506375,0.9703826904296875,0.0953216552734375,-0.041748046875,103241.12999775,3.001560302810103,1.52710670976988,-0.08103403646088116,0.000897048506885767,0.04051528126001358,-0.003772002179175615,-0.02388286590576172,0.01795259118080139,0.004053711891174316,2,-0.6912793811901576,0.01914729637266899,0.7180625470134738,0.07843666115665676,0.99576735496521,0.08094538003206253,-0.04353239759802818,43.072509765625,33.17351150512695,-10.09991455078125,2,103240.974975375,2,0,1582550353.133472,0,0,0,0,0,0,0,0,0,103238.053167,0,-3.073029,99.13358
1582550353.308,152,0,1582550352.109489,41.20730279150193,29.07236723136099,161.2764,-1,-1,14.59150886535645,65,-9999,103241.14510375,0.97149658203125,0.0948944091796875,-0.042236328125,103241.14006875,3.001548815904711,1.527505789157066,-0.08099704725070463,0.001341796480119228,0.03944815695285797,0.003947436809539795,-0.02606993913650513,0.01519718766212463,0.001413226127624512,2,-0.6914221239330802,0.01918026375561449,0.7179255075044926,0.07842424324542185,0.9957875609397888,0.08090851455926895,-0.04313512891530991,42.9844970703125,33.16804122924805,-10.1690673828125,2,103240.974975375,2,0,1582550353.133472,0,0,0,0,0,0,0,0,0,103238.053167,0,-3.073029,99.13358
1582550353.31493,153,0,1582550352.109489,41.20730279150193,29.07236723136099,161.2764,-1,-1,14.59150886535645,65,-9999,103241.15514475,0.976165771484375,0.0915679931640625,-0.040740966796875,103241.15010875,3.001539361526787,1.527925420729714,-0.08092862647246966,0.002102294005453587,0.04263148456811905,0.007940167561173439,-0.02443015575408936,0.01407527923583984,0.0007058382034301758,2,-0.6915718749056314,0.01922468725733811,0.7177828548961636,0.07840010675262132,0.9958112835884094,0.08084031939506531,-0.04271750524640083,42.9844970703125,33.16804122924805,-10.1690673828125,2,103240.974975375,2,0,1582550353.133472,0,0,0,0,0,0,0,0,0,103238.053167,0,-3.073029,99.13358
1582550353.324949,154,0,1582550352.109489,41.20730279150193,29.07236723136099,161.2764,-1,-1,14.59150886535645,65,-9999,103241.16518475,0.985321044921875,0.0854644775390625,-0.0364532470703125,103241.16014875,3.001535907528483,1.528286740270521,-0.08092281859509177,4.713237285614014e-05,0.03841996192932129,0.001655107364058495,-0.02122640609741211,0.01162439584732056,0.000712275505065918,2,-0.691701440452678,0.01924213746093656,0.7176579467378998,0.07839587019836208,0.9958270788192749,0.0808345302939415,-0.04235771298408508,43.11453247070312,33.23885726928711,-10.23583984375,2,103240.974975375,2,0,1582550353.133472,0,0,0,0,0,0,0,0,0,103238.053167,0,-3.073029,99.13358
1582550353.335014,155,0,1582550352.109489,41.20730279150193,29.07236723136099,161.2764,-1,-1,14.59150886535645,65,-9999,103241.17522475,0.9893035888671875,0.0849761962890625,-0.0359649658203125,103241.17018975,3.001533507960182,1.528513680329647,-0.08102091805062001,0.0002561688888818026,0.0221279114484787,-0.01014587841928005,-0.01265245676040649,0.005758762359619141,0.005155086517333984,2,-0.6917839535191392,0.01921646530752513,0.7175754355175388,0.07842826605985165,0.9958285689353943,0.08093230426311493,-0.04213137924671173,43.11453247070312,33.23885726928711,-10.23583984375,2,103240.974975375,2,0,1582550353.133472,0,0,0,0,0,0,0,0,0,103238.053167,0,-3.073029,99.13358
1582550353.35939,156,0,1582550353.329495,41.20730367007319,29.07235853843789,161.2762,-1,-1,14.57697868347168,65,-9999,103241.18526475,0.9887237548828125,0.086761474609375,-0.0361785888671875,103241.18022975,3.001561281686956,1.528628148426493,-0.0811670942017379,-0.002781965304166079,0.01150589436292648,-0.01258133910596371,-0.006343603134155273,0.003232657909393311,0.006001889705657959,2,-0.6918269305023669,0.01915862005446606,0.7175313099729964,0.07846747175742275,0.9958215951919556,0.08107800036668777,-0.0420168898999691,42.93168640136719,33.13238143920898,-10.12005615234375,2,103240.974975375,2,0,1582550353.133472,0,0,0,0,0,0,0,0,0,103238.053167,0,-3.073029,99.13358
1582550353.360938,157,0,1582550353.329495,41.20730367007319,29.07235853843789,161.2762,-1,-1,14.57697868347168,65,-9999,103241.19530575,0.9918975830078125,0.0838775634765625,-0.0354766845703125,103241.19026975,3.001660076505879,1.528582793563192,-0.08137883476003649,-0.01231963932514191,-0.004650712013244629,-0.02007287368178368,-0.007499456405639648,0.005783438682556152,0.005695343017578125,2,-0.6918139723515633,0.01904628666877067,0.7175426996989113,0.07850527357141246,0.9958025813102722,0.08128904551267624,-0.04206133261322975,42.93168640136719,33.13238143920898,-10.12005615234375,2,103240.974975375,2,0,1582550353.133472,0,0,0,0,0,0,0,0,0,103238.053167,0,-3.073029,99.13358
1582550353.365128,158,0,1582550353.329495,41.20730367007319,29.07235853843789,161.2762,-1,-1,14.57697868347168,65,-9999,103241.20537575,0.9871673583984375,0.090606689453125,-0.03143310546875,103241.20031075,3.001762707947315,1.52828389794573,-0.08162155767306806,-0.00989909190684557,-0.03220430761575699,-0.02386734448373318,-0.004217028617858887,0.002413511276245117,0.00616002082824707,2,-0.6917104078050124,0.01891148853915703,0.7176407230905919,0.0785547441849061,0.995770275592804,0.08153095841407776,-0.04235813394188881,43.02044677734375,33.14445114135742,-10.17047119140625,2,103240.974975375,2,0,1582550353.133472,0,0,0,0,0,0,0,0,0,103238.053167,0,-3.073029,99.13358
1582550353.375649,159,0,1582550353.329495,41.20730367007319,29.07235853843789,161.2762,-1,-1,14.57697868347168,65,-9999,103241.21541675,0.98138427734375,0.093048095703125,-0.038604736328125,103241.21035075,3.001906051969543,1.527820504807971,-0.08181740733632456,-0.01684810034930706,-0.04793474823236465,-0.0171012207865715,-0.007339835166931152,0.007467269897460938,0.01159536838531494,2,-0.6915476366193286,0.01877304763829774,0.7177990209284928,0.07857499643006222,0.9957346320152283,0.08172615617513657,-0.04281887784600258,43.02044677734375,33.14445114135742,-10.17047119140625,2,103240.974975375,2,0,1582550353.133472,0,0,0,0,0,0,0,0,0,103238.053167,0,-3.073029,99.13358
1582550353.385202,160,0,1582550353.329495,41.20730367007319,29.07235853843789,161.2762,-1,-1,14.57697868347168,65,-9999,103241.22545675,0.98004150390625,0.0941619873046875,-0.040496826171875,103241.22039075,3.002046932899198,1.527294946704872,-0.08198204614188483,-0.01469679921865463,-0.05354522541165352,-0.0143621601164341,-0.01343798637390137,0.01075154542922974,0.005755186080932617,2,-0.691362125046634,0.01864427453419781,0.7179799187004438,0.07858593070915637,0.9956985712051392,0.08189024031162262,-0.04334160685539246,42.92503356933594,33.2577018737793,-10.191162109375,2,103240.974975375,2,0,1582550353.133472,0,0,0,0,0,0,0,0,0,103238.053167,0,-3.073029,99.13358
1582550353.395384,161,0,1582550353.329495,41.20730367007319,29.07235853843789,161.2762,-1,-1,14.57697868347168,65,-9999,103241.23549675,0.9825286865234375,0.0941619873046875,-0.0394134521484375,103241.23043075,3.002185118780404,1.526696399100759,-0.08212641974223882,-0.01383471116423607,-0.06125886365771294,-0.01325517985969782,-0.01594823598861694,0.01195046305656433,0.00352776050567627,2,-0.6911500950010525,0.0185208697341851,0.7181865719515986,0.07859147470234185,0.9956606030464172,0.08203413337469101,-0.04393704608082771,42.92503356933594,33.2577018737793,-10.191162109375,2,103240.974975375,2,0,1582550353.133472,0,0,0,0,0,0,0,0,0,103238.053167,0,-3.073029,99.13358
1582550353.42042,162,0,1582550353.329495,41.20730367007319,29.07235853843789,161.2762,-1,-1,14.57697868347168,65,-9999,103241.24553775,0.9813079833984375,0.0948638916015625,-0.04241943359375,103241.24047175,3.002316865158775,1.526052042049663,-0.08221928773137531,-0.0136493556201458,-0.06596067547798157,-0.007663607131689787,-0.01354700326919556,0.01217842102050781,0.005206465721130371,2,-0.6909209127102796,0.01841648520790845,0.7184106628201763,0.07858199241313879,0.995624303817749,0.082126684486866,-0.04457825049757957,43.02127075195312,33.42631912231445,-10.16619873046875,2,103240.974975375,2,0,1582550353.133472,0,0,0,0,0,0,0,0,0,103238.053167,0,-3.073029,99.13358
1582550353.421889,163,0,1582550353.329495,41.20730367007319,29.07235853843789,161.2762,-1,-1,14.57697868347168,65,-9999,103241.25557775,0.9773712158203125,0.0957489013671875,-0.0430755615234375,103241.25054175,3.002436761383572,1.52542705592082,-0.08226414020289842,-0.01198996230959892,-0.06374114006757736,-0.003246391657739878,-0.01389676332473755,0.01249989867210388,0.003158211708068848,2,-0.6906979722821321,0.01833431864667662,0.7186295247893815,0.07856006226440532,0.9955925941467285,0.08217138797044754,-0.04520032927393913,43.02127075195312,33.42631912231445,-10.16619873046875,2,103240.974975375,2,0,1582550353.133472,0,0,0,0,0,0,0,0,0,103238.053167,0,-3.073029,99.13358
1582550353.425473,164,0,1582550353.329495,41.20730367007319,29.07235853843789,161.2762,-1,-1,14.57697868347168,65,-9999,103241.26561775,0.9738311767578125,0.0977783203125,-0.0464935302734375,103241.26058275,3.002537404495219,1.524837495669773,-0.08225166157571052,-0.009316415525972843,-0.06207586452364922,0.001903629396110773,-0.01739585399627686,0.01324471831321716,0.002814590930938721,2,-0.6904868864519886,0.0182809294727711,0.7188376267962259,0.07852501737094886,0.9955669045448303,0.08215895295143127,-0.04578733444213867,42.88088989257812,33.44333267211914,-10.40557861328125,2,103240.974975375,2,0,1582550353.133472,0,0,0,0,0,0,0,0,0,103238.053167,0,-3.073029,99.13358
1582550353.435345,165,0,1582550353.329495,41.20730367007319,29.07235853843789,161.2762,-1,-1,14.57697868347168,65,-9999,103241.27565775,0.9715423583984375,0.097503662109375,-0.0490570068359375,103241.27062275,3.002611708873588,1.524399027899412,-0.08218162401957593,-0.006865831557661295,-0.04390411078929901,0.008541755378246307,-0.02118098735809326,0.01543542742729187,0.000672459602355957,2,-0.6903291906700568,0.01826337658256494,0.7189945302721811,0.07847827225897308,0.9955523610115051,0.0820891484618187,-0.04622411355376244,42.88088989257812,33.44333267211914,-10.40557861328125,2,103240.974975375,2,0,1582550353.133472,0,0,0,0,0,0,0,0,0,103238.053167,0,-3.073029,99.13358
1582550353.445559,166,0,1582550353.329495,41.20730367007319,29.07235853843789,161.2762,-1,-1,14.57697868347168,65,-9999,103241.28569875,0.972442626953125,0.0962371826171875,-0.0464935302734375,103241.28066275,3.002663799776995,1.524079850475005,-0.08207246116714921,-0.005300425924360752,-0.03130283206701279,0.01152689382433891,-0.02398276329040527,0.01554426550865173,-0.002778172492980957,2,-0.6902137175777469,0.01827234232341451,0.7191110001297396,0.07842501218549719,0.9955465793609619,0.08198035508394241,-0.04654229059815407,42.75047302246094,33.42461776733398,-10.1077880859375,2,103240.974975375,2,0,1582550353.133472,0,0,0,0,0,0,0,0,0,103238.053167,0,-3.073029,99.13358
1582550353.455879,167,0,1582550353.329495,41.20730367007319,29.07235853843789,161.2762,-1,-1,14.57697868347168,65,-9999,103241.29573875,0.9752044677734375,0.0939178466796875,-0.045440673828125,103241.29070375,3.002714812139143,1.523809024979,-0.08191225258633517,-0.004919473547488451,-0.02813412249088287,0.01783570274710655,-0.02361702919006348,0.014788419008255,-0.0003717541694641113,2,-0.6901150428262594,0.01830204681301961,0.7192126661201517,0.07835419052802278,0.9955470561981201,0.08182068169116974,-0.04681252688169479,42.75047302246094,33.42461776733398,-10.1077880859375,2,103240.974975375,2,0,1582550353.133472,0,0,0,0,0,0,0,0,0,103238.053167,0,-3.073029,99.13358
1582550353.483527,168,0,1582550353.329495,41.20730367007319,29.07235853843789,161.2762,-1,-1,14.57697868347168,65,-9999,103241.30577875,0.972900390625,0.0932769775390625,-0.0469512939453125,103241.30074375,3.00278124116255,1.523558550009743,-0.08171381818051202,-0.005523744970560074,-0.0266099963337183,0.02123389579355717,-0.02072238922119141,0.01256006956100464,0.001587390899658203,2,-0.6900233913035244,0.01834107062498225,0.7193093616831996,0.07826453539608474,0.9955514669418335,0.08162291347980499,-0.04706265032291412,42.750244140625,33.67768478393555,-10.36285400390625,2,103240.974975375,2,0,1582550353.133472,0,0,0,0,0,0,0,0,0,103238.053167,0,-3.073029,99.13358
1582550353.48496,169,0,1582550353.329495,41.20730367007319,29.07235853843789,161.2762,-1,-1,14.57697868347168,65,-9999,103241.31584975,0.97265625,0.0950469970703125,-0.0430908203125,103241.31078375,3.002834163872712,1.523270493794911,-0.08148344723842979,-0.003158162347972393,-0.02932734787464142,0.02336401864886284,-0.02208560705184937,0.01199623942375183,0.0004559755325317383,2,-0.6899177273542405,0.01839486086801645,0.7194197535439141,0.07816914720576673,0.9955567121505737,0.08139330893754959,-0.04735031723976135,42.750244140625,33.67768478393555,-10.36285400390625,2,103240.974975375,2,0,1582550353.133472,0,0,0,0,0,0,0,0,0,103238.053167,0,-3.073029,99.13358
1582550353.486346,170,0,1582550353.329495,41.20730367007319,29.07235853843789,161.2762,-1,-1,14.57697868347168,65,-9999,103241.32588975,0.9665069580078125,0.0963134765625,-0.046661376953125,103241.32082375,3.002868708376854,1.522979166428116,-0.08121505475850176,-0.002652161754667759,-0.03101898916065693,0.02739764004945755,-0.02270388603210449,0.01342344284057617,0.003844380378723145,2,-0.6898102771490987,0.0184686309299838,0.7195318196838136,0.07806736297239514,0.9955644607543945,0.08112580329179764,-0.04764138162136078,42.8106689453125,33.45067977905273,-10.35540771484375,2,103240.974975375,2,0,1582550353.133472,0,0,0,0,0,0,0,0,0,103238.053167,0,-3.073029,99.13358
1582550353.49588,171,0,1582550353.329495,41.20730367007319,29.07235853843789,161.2762,-1,-1,14.57697868347168,65,-9999,103241.33593075,0.9671478271484375,0.094085693359375,-0.0511474609375,103241.33086475,3.002862277823744,1.52282712800738,-0.08092147504419406,0.003606447018682957,-0.0155764315277338,0.02996610850095749,-0.028076171875,0.01553192734718323,0.002486586570739746,2,-0.6897522500251336,0.01857111995268801,0.7195954415728885,0.07797044107425272,0.9955811500549316,0.08083318918943405,-0.04779389500617981,42.8106689453125,33.45067977905273,-10.35540771484375,2,103240.974975375,2,0,1582550353.133472,0,0,0,0,0,0,0,0,0,103238.053167,0,-3.073029,99.13358
1582550353.505672,172,0,1582550353.329495,41.20730367007319,29.07235853843789,161.2762,-1,-1,14.57697868347168,65,-9999,103241.34597075,0.9739227294921875,0.0922698974609375,-0.04803466796875,103241.34090475,3.002854158685227,1.522754703157114,-0.08061496005100383,0.002515083644539118,-0.008075638674199581,0.03054667636752129,-0.02962327003479004,0.01396059989929199,-0.002887487411499023,2,-0.68972269252063,0.0186819723551247,0.719631835005546,0.07786894451022475,0.9956023097038269,0.08052767068147659,-0.04786718264222145,42.86720275878906,33.4520378112793,-10.40447998046875,2,103240.974975375,2,0,1582550353.133472,0,0,0,0,0,0,0,0,0,103238.053167,0,-3.073029,99.13358
1582550353.515699,173,0,1582550353.329495,41.20730367007319,29.07235853843789,161.2762,-1,-1,14.57697868347168,65,-9999,103241.35601075,0.9736785888671875,0.0925445556640625,-0.047637939453125,103241.35094475,3.002827949217397,1.522730691269002,-0.0802808612979239,0.003969535231590271,-0.002833204343914986,0.03381976112723351,-0.02301132678985596,0.01205062866210938,-0.001168608665466309,2,-0.6897100557462212,0.01881093158211511,0.719651880300566,0.07776405281276438,0.9956278800964355,0.08019465208053589,-0.04789237678050995,42.86720275878906,33.4520378112793,-10.40447998046875,2,103240.974975375,2,0,1582550353.133472,0,0,0,0,0,0,0,0,0,103238.053167,0,-3.073029,99.13358
1582550353.538875,174,0,1582550353.329495,41.20730367007319,29.07235853843789,161.2762,-1,-1,14.57697868347168,65,-9999,103241.36605175,0.973388671875,0.091064453125,-0.0479888916015625,103241.36101575,3.00280714498329,1.522785475028446,-0.0799243146339893,0.003261667210608721,0.00676269643008709,0.03706562146544456,-0.02128767967224121,0.01248234510421753,0.000807642936706543,2,-0.6897255443476219,0.01894921277577688,0.7196458701427808,0.07764878127921049,0.9956590533256531,0.07983925193548203,-0.0478392019867897,42.80732727050781,33.20770645141602,-10.1923828125,2,103240.974975375,2,0,1582550353.133472,0,0,0,0,0,0,0,0,0,103238.053167,0,-3.073029,99.13358
1582550353.540231,175,0,1582550353.329495,41.20730367007319,29.07235853843789,161.2762,-1,-1,14.57697868347168,65,-9999,103241.37609175,0.98052978515625,0.0856781005859375,-0.043975830078125,103241.37105575,3.002785877559988,1.522832930951071,-0.0796253086602625,0.004402902442961931,0.006437571719288826,0.02988553792238235,-0.02315998077392578,0.01229223608970642,-0.0007793903350830078,2,-0.6897390193186188,0.0190665572326324,0.7196402718113415,0.0775534783908936,0.9956852793693542,0.07954119890928268,-0.04779310151934624,42.80732727050781,33.20770645141602,-10.1923828125,2,103240.974975375,2,0,1582550353.133472,0,0,0,0,0,0,0,0,0,103238.053167,0,-3.073029,99.13358
