loggingTime,loggingSample,identifierForVendor,locationTimestamp_since1970,locationLatitude,locationLongitude,locationAltitude,locationSpeed,locationCourse,locationVerticalAccuracy,locationHorizontalAccuracy,locationFloor,accelerometerTimestamp_sinceReboot,accelerometerAccelerationX,accelerometerAccelerationY,accelerometerAccelerationZ,motionTimestamp_sinceReboot,motionYaw,motionRoll,motionPitch,motionRotationRateX,motionRotationRateY,motionRotationRateZ,motionUserAccelerationX,motionUserAccelerationY,motionUserAccelerationZ,motionAttitudeReferenceFrame,motionQuaternionX,motionQuaternionY,motionQuaternionZ,motionQuaternionW,motionGravityX,motionGravityY,motionGravityZ,motionMagneticFieldX,motionMagneticFieldY,motionMagneticFieldZ,motionMagneticFieldCalibrationAccuracy,activityTimestamp_sinceReboot,activity,activityActivityConfidence,activityActivityStartDate,pedometerStartDate,pedometerNumberofSteps,pedometerAverageActivePace,pedometerCurrentPace,pedometerCurrentCadence,pedometerDistance,pedometerFloorAscended,pedometerFloorDescended,pedometerEndDate,altimeterTimestamp_sinceReboot,altimeterReset,altimeterRelativeAltitude,altimeterPressure
1582550332.298714,1,0,1582550332.262191,41.20729459376808,29.07241239401643,161.2788,-1,-1,14.80326175689697,65,-9999,103220.125014875,0.975799560546875,0.113067626953125,-0.0631866455078125,103220.119948875,-2.919556341470815,1.502991331200844,-0.1033540683427609,-0.000597106758505106,0.002131903544068336,-0.003090521553531289,-0.02179604768753052,0.01344168186187744,0.01474076509475708,2,-0.6734420799081626,-0.1130487360051973,0.7291080550468076,-0.045794084672376,0.9923779964447021,0.1031701639294624,-0.06739149987697601,42.45860290527344,37.07776260375977,-1.983673095703125,2,103220.085549875,2,0,1582550332.244046,0,0,0,0,0,0,0,0,0,103217.330551,0,-2.885422,99.13136
1582550332.299331,2,0,1582550332.262191,41.20729459376808,29.07241239401643,161.2788,-1,-1,14.80326175689697,65,-9999,103220.135054875,0.96612548828125,0.1139068603515625,-0.0705108642578125,103220.130019875,-2.919577717637986,1.503083717765475,-0.103402865136826,0.005669381003826857,2.376921474933624e-05,-0.004379680380225182,-0.01082605123519897,0.009944677352905273,0.0132448673248291,2,-0.673474144732117,-0.1130612408957352,0.7290782659512969,-0.04576440707590262,0.9923790693283081,0.1032186970114708,-0.06729946285486221,42.45860290527344,37.07776260375977,-1.983673095703125,2,103220.085549875,2,0,1582550332.244046,0,0,0,0,0,0,0,0,0,103217.330551,0,-2.885422,99.13136
1582550332.304717,3,0,1582550332.262191,41.20729459376808,29.07241239401643,161.2788,-1,-1,14.80326175689697,65,-9999,103220.145094875,0.97821044921875,0.1144866943359375,-0.06365966796875,103220.140059875,-2.919572593225448,1.503252709448817,-0.1034447613766258,-0.002717712195590138,0.02343987673521042,-0.003294708207249641,-0.02688521146774292,0.01078808307647705,-0.004562020301818848,2,-0.6735330239367117,-0.113081950546843,0.7290221309907863,-0.04574246360798934,0.9923862814903259,0.1032603681087494,-0.06713147461414337,42.38301086425781,37.01677322387695,-2.01727294921875,2,103220.085549875,2,0,1582550332.244046,0,0,0,0,0,0,0,0,0,103217.330551,0,-2.885422,99.13136
1582550332.314733,4,0,1582550332.262191,41.20729459376808,29.07241239401643,161.2788,-1,-1,14.80326175689697,65,-9999,103220.155135875,0.9828033447265625,0.11419677734375,-0.058319091796875,103220.150099875,-2.919587600084032,1.503180453994432,-0.1034935679227086,0.0004824360366910696,-0.009325603023171425,-0.004523167386651039,-0.01776587963104248,0.01066318154335022,0.0006667971611022949,2,-0.673504706324566,-0.1130928425594697,0.7290477145877456,-0.04572443314285296,0.9923763275146484,0.1033089160919189,-0.06720283627510071,42.38301086425781,37.01677322387695,-2.01727294921875,2,103220.085549875,2,0,1582550332.244046,0,0,0,0,0,0,0,0,0,103217.330551,0,-2.885422,99.13136
1582550332.324752,5,0,1582550332.262191,41.20729459376808,29.07241239401643,161.2788,-1,-1,14.80326175689697,65,-9999,103220.165175875,0.97613525390625,0.1146240234375,-0.0636138916015625,103220.160139875,-2.919609740689702,1.503045181405099,-0.103542153965919,0.001520536374300718,-0.01277200039476156,-0.003623285563662648,-0.008062362670898438,0.01113367080688477,0.0100628137588501,2,-0.6734538324713086,-0.1130998119659792,0.7290946536731671,-0.04570743573910291,0.9923622012138367,0.1033572405576706,-0.06733673810958862,42.39848327636719,37.04559707641602,-2.123382568359375,2,103220.085549875,2,0,1582550332.244046,0,0,0,0,0,0,0,0,0,103217.330551,0,-2.885422,99.13136
1582550332.334947,6,0,1582550332.262191,41.20729459376808,29.07241239401643,161.2788,-1,-1,14.80326175689697,65,-9999,103220.175215875,0.9722137451171875,0.113250732421875,-0.066375732421875,103220.170180875,-2.919636653647402,1.502912090609944,-0.1035958132958178,0.002212492749094963,-0.01447238121181726,-0.006286749616265297,-0.01572293043136597,0.01117190718650818,0.004030287265777588,2,-0.6734037167706248,-0.1131070761564509,0.7291412486966726,-0.04568690016877319,0.9923478960990906,0.1034106090664864,-0.06746844947338104,42.39848327636719,37.04559707641602,-2.123382568359375,2,103220.085549875,2,0,1582550332.244046,0,0,0,0,0,0,0,0,0,103217.330551,0,-2.885422,99.13136
1582550332.347756,7,0,1582550332.262191,41.20729459376808,29.07241239401643,161.2788,-1,-1,14.80326175689697,65,-9999,103220.185255875,0.972412109375,0.11431884765625,-0.0661468505859375,103220.180220875,-2.919644033381819,1.502845817434219,-0.1036321972157266,-0.001046417513862252,-0.003724396228790283,-0.004151693545281887,-0.01884281635284424,0.01003700494766235,0.00203549861907959,2,-0.6733778714389098,-0.1131161834336219,0.7291642577547814,-0.04567550922016828,0.9923394322395325,0.1034468039870262,-0.067533940076828,42.34822082519531,37.18888473510742,-1.93023681640625,2,103220.085549875,2,0,1582550332.244046,0,0,0,0,0,0,0,0,0,103217.330551,0,-2.885422,99.13136
1582550332.354855,8,0,1582550332.262191,41.20729459376808,29.07241239401643,161.2788,-1,-1,14.80326175689697,65,-9999,103220.195326875,0.9732208251953125,0.1148529052734375,-0.06597900390625,103220.190260875,-2.919683179727587,1.502776363655706,-0.1036780173478422,0.004142157267779112,-0.007014906965196133,-0.005189414601773024,-0.02113741636276245,0.01061716675758362,0.0001818537712097168,2,-0.6733520989292796,-0.1131179596413623,0.7291895581951642,-0.04564958987558332,0.9923301935195923,0.1034923791885376,-0.06760255247354507,42.34822082519531,37.18888473510742,-1.93023681640625,2,103220.085549875,2,0,1582550332.244046,0,0,0,0,0,0,0,0,0,103217.330551,0,-2.885422,99.13136
1582550332.364996,9,0,1582550332.262191,41.20729459376808,29.07241239401643,161.2788,-1,-1,14.80326175689697,65,-9999,103220.205366875,0.975555419921875,0.11431884765625,-0.0656890869140625,103220.200301875,-2.919707755793159,1.502736977730821,-0.1037227166144805,0.0009237274061888456,-0.004144018515944481,-0.003462887369096279,-0.01873445510864258,0.0113355815410614,0.002707839012145996,2,-0.6733365376376812,-0.1131249081234962,0.7292042163850949,-0.04562761834249046,0.9923229217529297,0.1035368368029594,-0.06764132529497147,42.52748107910156,36.98421859741211,-1.92742919921875,2,103220.085549875,2,0,1582550332.244046,0,0,0,0,0,0,0,0,0,103217.330551,0,-2.885422,99.13136
1582550332.376691,10,0,1582550332.262191,41.20729459376808,29.07241239401643,161.2788,-1,-1,14.80326175689697,65,-9999,103220.215407875,0.9750518798828125,0.1154937744140625,-0.064208984375,103220.210341875,-2.919743620980576,1.50266597048649,-0.1037661692043272,0.003786376211792231,-0.008524768985807896,-0.003779971972107887,-0.01776385307312012,0.01059046387672424,0.0009011626243591309,2,-0.6733101563714177,-0.113126888120529,0.7292297714712919,-0.04560374973362558,0.9923136234283447,0.1035800501704216,-0.0677114799618721,42.52748107910156,36.98421859741211,-1.92742919921875,2,103220.085549875,2,0,1582550332.244046,0,0,0,0,0,0,0,0,0,103217.330551,0,-2.885422,99.13136
1582550332.385084,11,0,1582550332.262191,41.20729459376808,29.07241239401643,161.2788,-1,-1,14.80326175689697,65,-9999,103220.225447875,0.972381591796875,0.1154022216796875,-0.0659332275390625,103220.220381875,-2.91979216903201,1.50260624430034,-0.1038289197107662,0.004746978171169758,-0.005200611427426338,-0.00585990073159337,-0.01650214195251465,0.0116267204284668,0.004133820533752441,2,-0.6732874872611603,-0.1131318156837798,0.7292521542198861,-0.04556803384000502,0.9923030734062195,0.103642463684082,-0.06777030229568481,42.48445129394531,37.02936935424805,-2.02484130859375,2,103220.085549875,2,0,1582550332.244046,0,0,0,0,0,0,0,0,0,103217.330551,0,-2.885422,99.13136
1582550332.395069,12,0,1582550332.262191,41.20729459376808,29.07241239401643,161.2788,-1,-1,14.80326175689697,65,-9999,103220.235487875,0.9691009521484375,0.113983154296875,-0.0674285888671875,103220.230421875,-2.919853743877947,1.502584011692046,-0.103910199734737,0.00499963853508234,-0.002334145829081535,-0.007798564154654741,-0.01989495754241943,0.01182043552398682,0.001759529113769531,2,-0.6732781558578429,-0.1131398884376781,0.7292624691014266,-0.04551910656220093,0.9922930598258972,0.1037233099341393,-0.06779178231954575,42.48445129394531,37.02936935424805,-2.02484130859375,2,103220.085549875,2,0,1582550332.244046,0,0,0,0,0,0,0,0,0,103217.330551,0,-2.885422,99.13136
1582550332.405457,13,0,1582550332.262191,41.20729459376808,29.07241239401643,161.2788,-1,-1,14.80326175689697,65,-9999,103220.245528875,0.967559814453125,0.1134033203125,-0.067596435546875,103220.240492875,-2.919929500361485,1.50262318546813,-0.1039865428625194,0.006586615927517414,0.003666754812002182,-0.007523725740611553,-0.02263623476028442,0.01031023263931274,0.0007131695747375488,2,-0.6732922930703058,-0.1131428243447246,0.7292525444766715,-0.04546327510605574,0.9922879338264465,0.1037992388010025,-0.06775237619876862,42.49273681640625,37.13428115844727,-2.067840576171875,2,103220.085549875,2,0,1582550332.244046,0,0,0,0,0,0,0,0,0,103217.330551,0,-2.885422,99.13136
1582550332.415152,14,0,1582550332.262191,41.20729459376808,29.07241239401643,161.2788,-1,-1,14.80326175689697,65,-9999,103220.255568875,0.96728515625,0.1140899658203125,-0.0701904296875,103220.250532875,-2.920017564188798,1.502735010515561,-0.1040453207382545,0.008059434592723846,0.0133135449141264,-0.005313348025083542,-0.02446866035461426,0.009412527084350586,0.0003118515014648438,2,-0.6733346437690055,-0.1131369106867305,0.7292179301678436,-0.04540478382684593,0.9922893047332764,0.1038577035069466,-0.0676409974694252,42.49273681640625,37.13428115844727,-2.067840576171875,2,103220.085549875,2,0,1582550332.244046,0,0,0,0,0,0,0,0,0,103217.330551,0,-2.885422,99.13136
1582550332.426671,15,0,1582550332.262191,41.20729459376808,29.07241239401643,161.2788,-1,-1,14.80326175689697,65,-9999,103220.265608875,0.9739990234375,0.1136474609375,-0.065277099609375,103220.260573875,-2.920106964777931,1.502865777242978,-0.1041263132270799,0.006532111205160618,0.01331328041851521,-0.008319258689880371,-0.02582716941833496,0.01017123460769653,-0.002687156200408936,2,-0.6733826819259066,-0.1131389909596688,0.729177465963984,-0.04533718579183399,0.9922897815704346,0.1039382517337799,-0.06751066446304321,42.44062805175781,37.06723403930664,-2.18157958984375,2,103220.085549875,2,0,1582550332.244046,0,0,0,0,0,0,0,0,0,103217.330551,0,-2.885422,99.13136
1582550332.435703,16,0,1582550332.262191,41.20729459376808,29.07241239401643,161.2788,-1,-1,14.80326175689697,65,-9999,103220.275648875,0.974700927734375,0.11395263671875,-0.0663909912109375,103220.270613875,-2.920203956867148,1.50299716349428,-0.1042252723265788,0.008183708414435387,0.01479035057127476,-0.009714278392493725,-0.01914238929748535,0.0095691978931427,0.00111842155456543,2,-0.6734303348664168,-0.1131449935994192,0.7291372282588178,-0.04526064118954493,0.9922882914543152,0.1040366739034653,-0.06737958639860153,42.44062805175781,37.06723403930664,-2.18157958984375,2,103220.085549875,2,0,1582550332.244046,0,0,0,0,0,0,0,0,0,103217.330551,0,-2.885422,99.13136
1582550332.445325,17,0,1582550332.262191,41.20729459376808,29.07241239401643,161.2788,-1,-1,14.80326175689697,65,-9999,103220.285689875,0.9757080078125,0.1136322021484375,-0.06719970703125,103220.280653875,-2.920281478011954,1.503153099931319,-0.104346786283844,0.006142395548522472,0.01767268963158131,-0.01208262704312801,-0.01756846904754639,0.01001286506652832,0.001329302787780762,2,-0.6734845176274695,-0.1131662483102688,0.7290888608127767,-0.04518216098558764,0.9922863245010376,0.104157529771328,-0.06722401082515717,42.43499755859375,37.0938606262207,-2.0989990234375,2,103220.085549875,2,0,1582550332.244046,0,0,0,0,0,0,0,0,0,103217.330551,0,-2.885422,99.13136
1582550332.455305,18,0,1582550332.262191,41.20729459376808,29.07241239401643,161.2788,-1,-1,14.80326175689697,65,-9999,103220.295729875,0.9788665771484375,0.11676025390625,-0.060394287109375,103220.290694875,-2.920389955075918,1.50320912195932,-0.1044722737699343,0.0112132839858532,0.004400141537189484,-0.01215744204819202,-0.01731514930725098,0.008911490440368652,-0.0007416009902954102,2,-0.6735038073056784,-0.1131762250576449,0.7290746908572077,-0.04509663307431466,0.9922769069671631,0.104282334446907,-0.06716752797365189,42.43499755859375,37.0938606262207,-2.0989990234375,2,103220.085549875,2,0,1582550332.244046,0,0,0,0,0,0,0,0,0,103217.330551,0,-2.885422,99.13136
1582550332.466945,19,0,1582550332.262191,41.20729459376808,29.07241239401643,161.2788,-1,-1,14.80326175689697,65,-9999,103220.305800875,0.971405029296875,0.1162872314453125,-0.0625457763671875,103220.300734875,-2.920525385826048,1.503190748942668,-0.1045912885222548,0.01274220459163189,-0.00332275964319706,-0.01220111735165119,-0.01362407207489014,0.01181432604789734,0.005638957023620605,2,-0.6734978654002254,-0.1131731368583477,0.729086294900305,-0.04500776440550297,0.9922634959220886,0.1044007018208504,-0.0671849325299263,42.48045349121094,37.12847518920898,-1.90765380859375,2,103220.085549875,2,0,1582550332.244046,0,0,0,0,0,0,0,0,0,103217.330551,0,-2.885422,99.13136
1582550332.476805,20,0,1582550332.262191,41.20729459376808,29.07241239401643,161.2788,-1,-1,14.80326175689697,65,-9999,103220.315840875,0.9637908935546875,0.1151123046875,-0.0714874267578125,103220.310774875,-2.920678722509011,1.503307610773766,-0.1046986009117177,0.01376998610794544,0.0160476453602314,-0.01116499677300453,-0.01896119117736816,0.01196703314781189,0.005812168121337891,2,-0.6735429247618661,-0.1131628148313102,0.729052307346755,-0.04490864306631975,0.9922600388526917,0.1045074239373207,-0.06706821173429489,42.48045349121094,37.12847518920898,-1.90765380859375,2,103220.085549875,2,0,1582550332.244046,0,0,0,0,0,0,0,0,0,103217.330551,0,-2.885422,99.13136
1582550332.485498,21,0,1582550332.262191,41.20729459376808,29.07241239401643,161.2788,-1,-1,14.80326175689697,65,-9999,103220.325880875,0.96734619140625,0.1150360107421875,-0.0684814453125,103220.320814875,-2.92084208269921,1.503518065313123,-0.1047850964044062,0.01646963134407997,0.02264855429530144,-0.009237134829163551,-0.0276486873626709,0.01062974333763123,-0.003903746604919434,2,-0.6736238681713071,-0.1131437016240759,0.7289866694546909,-0.04480768638326466,0.9922650456428528,0.1045934483408928,-0.06685877591371536,42.43824768066406,37.17047500610352,-2.17791748046875,2,103220.085549875,2,0,1582550332.244046,0,0,0,0,0,0,0,0,0,103217.330551,0,-2.885422,99.13136
1582550332.495545,22,0,1582550332.262191,41.20729459376808,29.07241239401643,161.2788,-1,-1,14.80326175689697,65,-9999,103220.335921875,0.974609375,0.1143798828125,-0.0641326904296875,103220.330855875,-2.920980735155388,1.503736300250992,-0.1048683402905101,0.01377986650913954,0.0241271611303091,-0.009300611913204193,-0.02618968486785889,0.01010444760322571,-0.002549231052398682,2,-0.6737064327720794,-0.1131318893064148,0.7289177433974721,-0.04471639772842378,0.992270827293396,0.1046762317419052,-0.06664163619279861,42.43824768066406,37.17047500610352,-2.17791748046875,2,103220.085549875,2,0,1582550332.244046,0,0,0,0,0,0,0,0,0,103217.330551,0,-2.885422,99.13136
1582550332.505537,23,0,1582550332.262191,41.20729459376808,29.07241239401643,161.2788,-1,-1,14.80326175689697,65,-9999,103220.345961875,0.9747772216796875,0.114044189453125,-0.064239501953125,103220.340895875,-2.921103175927987,1.503895785896609,-0.1049659898529849,0.01162936352193356,0.0164500679820776,-0.01019410230219364,-0.01889640092849731,0.01008373498916626,0.001305103302001953,2,-0.6737658176817899,-0.1131294240939327,0.7288687140903584,-0.04462949011510137,0.9922714829444885,0.1047733426094055,-0.06648271530866623,42.48171997070312,37.12515640258789,-2.0634765625,2,103220.085549875,2,0,1582550332.244046,0,0,0,0,0,0,0,0,0,103217.330551,0,-2.885422,99.13136
1582550332.515568,24,0,1582550332.262191,41.20729459376808,29.07241239401643,161.2788,-1,-1,14.80326175689697,65,-9999,103220.356001875,0.9747772216796875,0.1160888671875,-0.0637359619140625,103220.350966875,-2.92121652602412,1.50403295825178,-0.1050564596774629,0.01073800772428513,0.0153023824095726,-0.007992125116288662,-0.01714134216308594,0.008727222681045532,0.002465128898620605,2,-0.6738169825093873,-0.1131268977031543,0.7288265994405163,-0.04454953532171901,0.9922710061073303,0.104863315820694,-0.06634595990180969,42.48171997070312,37.12515640258789,-2.0634765625,2,103220.085549875,2,0,1582550332.244046,0,0,0,0,0,0,0,0,0,103217.330551,0,-2.885422,99.13136
1582550332.526799,25,0,1582550332.262191,41.20729459376808,29.07241239401643,161.2788,-1,-1,14.80326175689697,65,-9999,103220.366042875,0.9779052734375,0.1153106689453125,-0.062255859375,103220.361006875,-2.9213252781433,1.504086305753168,-0.1051681307070945,0.01094680093228817,0.005590632557868958,-0.0102347731590271,-0.01817083358764648,0.01105755567550659,0.001999378204345703,2,-0.6738361045282915,-0.113131701506443,0.7288131356737526,-0.04446880164981615,0.9922628998756409,0.1049743741750717,-0.06629224121570587,42.52337646484375,37.42927932739258,-1.93316650390625,2,103220.085549875,2,0,1582550332.244046,0,0,0,0,0,0,0,0,0,103217.330551,0,-2.885422,99.13136
1582550332.535681,26,0,1582550332.262191,41.20729459376808,29.07241239401643,161.2788,-1,-1,14.80326175689697,65,-9999,103220.376082875,0.975860595703125,0.1139373779296875,-0.062744140625,103220.371046875,-2.921423129633521,1.504087010357054,-0.1053277369396131,0.008491752669215202,-0.0009140539914369583,-0.01586625166237354,-0.01470571756362915,0.01042580604553223,0.003737092018127441,2,-0.6738326500428679,-0.1131562837112788,0.7288180353776623,-0.04437866406673463,0.9922462105751038,0.105133093893528,-0.06629043072462082,42.52337646484375,37.42927932739258,-1.93316650390625,2,103220.085549875,2,0,1582550332.244046,0,0,0,0,0,0,0,0,0,103217.330551,0,-2.885422,99.13136
1582550332.545751,27,0,1582550332.262191,41.20729459376808,29.07241239401643,161.2788,-1,-1,14.80326175689697,65,-9999,103220.386122875,0.973602294921875,0.114593505859375,-0.067169189453125,103220.381087875,-2.921513308592882,1.504171219937841,-0.1055171758185878,0.007494397927075624,0.01143289171159267,-0.02013423293828964,-0.01586645841598511,0.009138762950897217,0.004140257835388184,2,-0.6738574679492352,-0.1131960410168583,0.7287950481028476,-0.04427638548157931,0.9922317862510681,0.1053214818239212,-0.06620553880929947,42.50894165039062,37.36360549926758,-2.105133056640625,2,103220.085549875,2,0,1582550332.244046,0,0,0,0,0,0,0,0,0,103217.330551,0,-2.885422,99.13136
1582550332.555728,28,0,1582550332.262191,41.20729459376808,29.07241239401643,161.2788,-1,-1,14.80326175689697,65,-9999,103220.396162875,0.979766845703125,0.11810302734375,-0.0609588623046875,103220.391127875,-2.921573277288618,1.504232269343188,-0.1056836462316339,0.004092684481292963,0.007746372371912003,-0.01701902225613594,-0.01887428760528564,0.008408606052398682,-0.001216292381286621,2,-0.6738734603720202,-0.1132371887172793,0.728778862996309,-0.04419428676922099,0.9922183156013489,0.1054870262742043,-0.06614379584789276,42.50894165039062,37.36360549926758,-2.105133056640625,2,103220.085549875,2,0,1582550332.244046,0,0,0,0,0,0,0,0,0,103217.330551,0,-2.885422,99.13136
1582550332.565824,29,0,1582550332.262191,41.20729459376808,29.07241239401643,161.2788,-1,-1,14.80326175689697,65,-9999,103220.406203875,0.9794158935546875,0.1165618896484375,-0.06109619140625,103220.401167875,-2.921627835949248,1.504155417532869,-0.1058210746665402,0.005780862178653479,-0.008465621620416641,-0.01289751380681992,-0.01397180557250977,0.0122087299823761,0.003787815570831299,2,-0.6738405745069171,-0.1132666511805475,0.7288085511553464,-0.04413189415602126,0.9921988844871521,0.105623684823513,-0.06621909141540527,42.50833129882812,37.3903923034668,-1.9195556640625,2,103220.085549875,2,0,1582550332.244046,0,0,0,0,0,0,0,0,0,103217.330551,0,-2.885422,99.13136
1582550332.576522,30,0,1582550332.262191,41.20729459376808,29.07241239401643,161.2788,-1,-1,14.80326175689697,65,-9999,103220.416273875,0.9763946533203125,0.116180419921875,-0.063140869140625,103220.411208875,-2.921668571151842,1.504042653076045,-0.1059422097611929,0.003942947834730148,-0.0104443971067667,-0.01095097325742245,-0.01231884956359863,0.01105070114135742,0.006065607070922852,2,-0.6737947654057083,-0.1132941019550107,0.7288496378829802,-0.04408210826932668,0.9921786189079285,0.1057441458106041,-0.06633011996746063,42.50833129882812,37.3903923034668,-1.9195556640625,2,103220.085549875,2,0,1582550332.244046,0,0,0,0,0,0,0,0,0,103217.330551,0,-2.885422,99.13136
1582550332.585951,31,0,1582550332.262191,41.20729459376808,29.07241239401643,161.2788,-1,-1,14.80326175689697,65,-9999,103220.426314875,0.9737396240234375,0.11639404296875,-0.06182861328125,103220.421248875,-2.921728344670695,1.503879474315635,-0.1060645745992505,0.005011141300201416,-0.01565114408731461,-0.01243808213621378,-0.01519429683685303,0.01034915447235107,0.003281712532043457,2,-0.6737315849238334,-0.1133144821069115,0.7289081773757957,-0.04402783379377534,0.9921548962593079,0.1058658212423325,-0.06649115681648254,42.46528625488281,37.20641708374023,-2.21435546875,2,103220.085549875,2,0,1582550332.244046,0,0,0,0,0,0,0,0,0,103217.330551,0,-2.885422,99.13136
1582550332.595998,32,0,1582550332.262191,41.20729459376808,29.07241239401643,161.2788,-1,-1,14.80326175689697,65,-9999,103220.436354875,0.9636077880859375,0.116943359375,-0.06597900390625,103220.431288875,-2.921827932811909,1.503714818039723,-0.106159403980265,0.009532563388347626,-0.01617171242833138,-0.009642353281378746,-0.01784348487854004,0.01033112406730652,0.004497289657592773,2,-0.6736717169857163,-0.113311494776923,0.7289675118948762,-0.04396850763897708,0.9921338558197021,0.1059601157903671,-0.06665384769439697,42.46528625488281,37.20641708374023,-2.21435546875,2,103220.085549875,2,0,1582550332.244046,0,0,0,0,0,0,0,0,0,103217.330551,0,-2.885422,99.13136
1582550332.605961,33,0,1582550332.262191,41.20729459376808,29.07241239401643,161.2788,-1,-1,14.80326175689697,65,-9999,103220.446394875,0.950225830078125,0.11578369140625,-0.074249267578125,103220.441328875,-2.921945198207897,1.503696374069461,-0.1062139778910557,0.01142660342156887,-0.001565339043736458,-0.006831652484834194,-0.02575588226318359,0.01082620024681091,0.002180576324462891,2,-0.6736684708678131,-0.1132912683302753,0.7289773221289535,-0.04390820565850218,0.9921268820762634,0.1060143858194351,-0.06667175889015198,42.38320922851562,37.26362228393555,-2.138885498046875,2,103220.085549875,2,0,1582550332.244046,0,0,0,0,0,0,0,0,0,103217.330551,0,-2.885422,99.13136
1582550332.616002,34,0,1582550332.262191,41.20729459376808,29.07241239401643,161.2788,-1,-1,14.80326175689697,65,-9999,103220.456435875,0.9516143798828125,0.1172943115234375,-0.0707244873046875,103220.451369875,-2.922092660350512,1.503856855360523,-0.1061941485649488,0.01543532498180866,0.01722067035734653,0.001228440552949905,-0.04006600379943848,0.009899824857711792,-0.006706595420837402,2,-0.6737364671416994,-0.1132379599709969,0.7289260608903374,-0.04385211236541919,0.9921395778656006,0.1059946641325951,-0.06651267409324646,42.38320922851562,37.26362228393555,-2.138885498046875,2,103220.085549875,2,0,1582550332.244046,0,0,0,0,0,0,0,0,0,103217.330551,0,-2.885422,99.13136
1582550332.626543,35,0,1582550332.262191,41.20729459376808,29.07241239401643,161.2788,-1,-1,14.80326175689697,65,-9999,103220.466475875,0.958770751953125,0.1190185546875,-0.0670013427734375,103220.461439875,-2.922258566330836,1.504103151256476,-0.1061152646654131,0.01667129807174206,0.02653693966567516,0.007521490566432476,-0.04213523864746094,0.01069548726081848,-0.006049871444702148,2,-0.6738401840682766,-0.113159037372319,0.7288453783357361,-0.04380464268338535,0.9921643733978271,0.1059162244200706,-0.06626887619495392,42.48558044433594,37.44868850708008,-1.986236572265625,2,103220.085549875,2,0,1582550332.244046,0,0,0,0,0,0,0,0,0,103217.330551,0,-2.885422,99.13136
1582550332.636583,36,0,1582550332.262191,41.20729459376808,29.07241239401643,161.2788,-1,-1,14.80326175689697,65,-9999,103220.476515875,0.97039794921875,0.1175994873046875,-0.06512451171875,103220.471480875,-2.922421666755149,1.504374572872774,-0.1060285113676918,0.01633515208959579,0.03118217922747135,0.009399469941854477,-0.03482282161712646,0.01336050033569336,-0.0009933114051818848,2,-0.6739533372844815,-0.1130787533433103,0.7287559239467196,-0.04375945585528784,0.9921914935112,0.1058299615979195,-0.06600018590688705,42.48558044433594,37.44868850708008,-1.986236572265625,2,103220.085549875,2,0,1582550332.244046,0,0,0,0,0,0,0,0,0,103217.330551,0,-2.885422,99.13136
1582550332.646293,37,0,1582550332.262191,41.20729459376808,29.07241239401643,161.2788,-1,-1,14.80326175689697,65,-9999,103220.486555875,0.984222412109375,0.114501953125,-0.062744140625,103220.481520875,-2.922592013233988,1.504618527920706,-0.1060234867736816,0.0178355760872364,0.02515864185988903,0.0009948001243174076,-0.02499771118164062,0.0120074450969696,-0.0005336403846740723,2,-0.6740521460116486,-0.1130248645814493,0.7286773036312919,-0.04368530219795469,0.9922080636024475,0.1058249622583389,-0.06575816869735718,42.46905517578125,37.42849349975586,-2.07635498046875,2,103220.085549875,2,0,1582550332.244046,0,0,0,0,0,0,0,0,0,103217.330551,0,-2.885422,99.13136
1582550332.65618,38,0,1582550332.262191,41.20729459376808,29.07241239401643,161.2788,-1,-1,14.80326175689697,65,-9999,103220.496596875,0.987060546875,0.11444091796875,-0.0625457763671875,103220.491560875,-2.922731321009494,1.504848520587598,-0.1061218184297418,0.01169887185096741,0.02327308617532253,-0.0100606782361865,-0.01014041900634766,0.009102016687393188,0.002838492393493652,2,-0.6741381230509748,-0.1130183645383295,0.7286046002151775,-0.04358799471652575,0.9922127723693848,0.105922743678093,-0.06552927941083908,42.31048583984375,37.52389144897461,-2.02850341796875,2,103220.085549875,2,0,1582550332.244046,0,0,0,0,0,0,0,0,0,103217.330551,0,-2.885422,99.13136
1582550332.666687,39,0,1582550332.262191,41.20729459376808,29.07241239401643,161.2788,-1,-1,14.80326175689697,65,-9999,103220.506636875,0.9862823486328125,0.1151123046875,-0.0567626953125,103220.501601875,-2.922881824302114,1.504951121410533,-0.1062944424203548,0.01354311127215624,0.01183188147842884,-0.01715746894478798,-0.00500190258026123,0.007831692695617676,0.002033591270446777,2,-0.6741740220402368,-0.113032072036662,0.7285764315832857,-0.043468460263135,0.9922012686729431,0.1060943976044655,-0.06542627513408661,42.31048583984375,37.52389144897461,-2.02850341796875,2,103220.085549875,2,0,1582550332.244046,0,0,0,0,0,0,0,0,0,103217.330551,0,-2.885422,99.13136
1582550332.677187,40,0,1582550332.262191,41.20729459376808,29.07241239401643,161.2788,-1,-1,14.80326175689697,65,-9999,103220.516676875,0.9764404296875,0.1173095703125,-0.066131591796875,103220.511641875,-2.923033318867344,1.505043328564906,-0.1065310788303526,0.01230750605463982,0.01556062884628773,-0.0257689356803894,-0.005501866340637207,0.008801817893981934,0.008440494537353516,2,-0.6742024947176894,-0.1130682597820127,0.7285527887279113,-0.0433272648204085,0.9921820759773254,0.1063296943902969,-0.06533312797546387,42.37712097167969,37.37778091430664,-2.06866455078125,2,103220.085549875,2,0,1582550332.244046,0,0,0,0,0,0,0,0,0,103217.330551,0,-2.885422,99.13136
1582550332.686368,41,0,1582550332.262191,41.20729459376808,29.07241239401643,161.2788,-1,-1,14.80326175689697,65,-9999,103220.526747875,0.9731903076171875,0.1190185546875,-0.062835693359375,103220.521681875,-2.923219294883394,1.505068861013509,-0.1067397614848656,0.01843837089836597,-0.004030650481581688,-0.02080746740102768,-0.0139651894569397,0.009692907333374023,0.0002959966659545898,2,-0.674210241489777,-0.1130813069738636,0.7285519185646514,-0.04318683810732826,0.9921615719795227,0.1065371856093407,-0.06530633568763733,42.37712097167969,37.37778091430664,-2.06866455078125,2,103220.085549875,2,0,1582550332.244046,0,0,0,0,0,0,0,0,0,103217.330551,0,-2.885422,99.13136
1582550332.696427,42,0,1582550332.262191,41.20729459376808,29.07241239401643,161.2788,-1,-1,14.80326175689697,65,-9999,103220.536787875,0.9614105224609375,0.1207275390625,-0.0671234130859375,103220.531721875,-2.923408383852106,1.505203944327104,-0.1068897146096875,0.01818773150444031,0.01374952122569084,-0.01535675674676895,-0.01742172241210938,0.01258030533790588,0.002480506896972656,2,-0.6742614603307274,-0.1130745138834034,0.7285132531443883,-0.04305916890473738,0.992154598236084,0.1066862866282463,-0.06517127156257629,42.40679931640625,37.44562911987305,-2.091583251953125,2,103220.085549875,2,0,1582550332.244046,0,0,0,0,0,0,0,0,0,103217.330551,0,-2.885422,99.13136
1582550332.706467,43,0,1582550332.262191,41.20729459376808,29.07241239401643,161.2788,-1,-1,14.80326175689697,65,-9999,103220.546828875,0.9642333984375,0.120025634765625,-0.069183349609375,103220.541762875,-2.923571720397224,1.505425940857115,-0.1069486416681366,0.01502682454884052,0.02445702627301216,-0.006778714712709188,-0.02931654453277588,0.01323887705802917,-0.00170743465423584,2,-0.6743481468643807,-0.1130454477312121,0.7284429609215726,-0.04296700697978006,0.9921627640724182,0.1067448779940605,-0.0649506077170372,42.40679931640625,37.44562911987305,-2.091583251953125,2,103220.085549875,2,0,1582550332.244046,0,0,0,0,0,0,0,0,0,103217.330551,0,-2.885422,99.13136
1582550332.716485,44,0,1582550332.262191,41.20729459376808,29.07241239401643,161.2788,-1,-1,14.80326175689697,65,-9999,103220.556868875,0.9716644287109375,0.119537353515625,-0.06256103515625,103220.551802875,-2.92372047616848,1.505657108270212,-0.1069203340969238,0.01504212059080601,0.02507378160953522,0.003214386757463217,-0.02968549728393555,0.01381629705429077,-0.004546105861663818,2,-0.6744423859997053,-0.1129900423000924,0.7283675924927131,-0.04290940114995218,0.9921806454658508,0.1067167297005653,-0.06472143530845642,42.41262817382812,37.35051345825195,-2.195220947265625,2,103220.085549875,2,0,1582550332.244046,0,0,0,0,0,0,0,0,0,103217.330551,0,-2.885422,99.13136
1582550332.726797,45,0,1582550332.262191,41.20729459376808,29.07241239401643,161.2788,-1,-1,14.80326175689697,65,-9999,103220.566908875,0.9682769775390625,0.1191558837890625,-0.064117431640625,103220.561842875,-2.923862304192615,1.5059205821534,-0.1068555888855055,0.01463199406862259,0.02699205651879311,0.005707904230803251,-0.02160698175430298,0.01258370280265808,0.0007015466690063477,2,-0.6745500753310028,-0.1129245550060066,0.7282807782254916,-0.04286502295116429,0.9922047257423401,0.1066523566842079,-0.06446047872304916,42.41262817382812,37.35051345825195,-2.195220947265625,2,103220.085549875,2,0,1582550332.244046,0,0,0,0,0,0,0,0,0,103217.330551,0,-2.885422,99.13136
1582550332.736569,46,0,1582550332.262191,41.20729459376808,29.07241239401643,161.2788,-1,-1,14.80326175689697,65,-9999,103220.576948875,0.9638519287109375,0.1172943115234375,-0.0650634765625,103220.571913875,-2.924022428331432,1.506288707527146,-0.1067602262873798,0.01649277098476887,0.03884907811880112,0.008948622271418571,-0.02249526977539062,0.01280060410499573,0.0006570816040039062,2,-0.6746986616304904,-0.1128440696419149,0.728158197058174,-0.04281847169318503,0.9922383427619934,0.1065575405955315,-0.06409586220979691,42.41751098632812,37.69525527954102,-2.139373779296875,2,103220.085549875,2,0,1582550332.244046,0,0,0,0,0,0,0,0,0,103217.330551,0,-2.885422,99.13136
1582550332.746634,47,0,1582550332.262191,41.20729459376808,29.07241239401643,161.2788,-1,-1,14.80326175689697,65,-9999,103220.586989875,0.9658966064453125,0.1159515380859375,-0.0673980712890625,103220.581953875,-2.924188881520309,1.50678046332759,-0.1066883863195352,0.01573856361210346,0.05220323801040649,0.006421016063541174,-0.02828693389892578,0.01136139035224915,-0.001508891582489014,2,-0.6748912103329199,-0.1127725615048354,0.7279945724495998,-0.04275468269934052,0.9922773838043213,0.1064861044287682,-0.06360840797424316,42.41751098632812,37.69525527954102,-2.139373779296875,2,103220.085549875,2,0,1582550332.244046,0,0,0,0,0,0,0,0,0,103217.330551,0,-2.885422,99.13136
1582550332.756609,48,0,1582550332.262191,41.20729459376808,29.07241239401643,161.2788,-1,-1,14.80326175689697,65,-9999,103220.597029875,0.979583740234375,0.11114501953125,-0.064666748046875,103220.591994875,-2.924340217907449,1.507426996298372,-0.1067171057787413,0.01525798812508583,0.0684410035610199,-0.002525646472349763,-0.02730250358581543,0.009471327066421509,-0.004256367683410645,2,-0.6751333849144845,-0.1127456369088545,0.7277801934980781,-0.04265336433611883,0.9923153519630432,0.1065146625041962,-0.06296666711568832,42.521728515625,37.52913284301758,-2.09295654296875,2,103220.085549875,2,0,1582550332.244046,0,0,0,0,0,0,0,0,0,103217.330551,0,-2.885422,99.13136
1582550332.767455,49,0,1582550332.262191,41.20729459376808,29.07241239401643,161.2788,-1,-1,14.80326175689697,65,-9999,103220.607069875,0.9911651611328125,0.1105804443359375,-0.0594482421875,103220.602034875,-2.924452488392783,1.508022769565287,-0.1069003994671766,0.01076044142246246,0.06051942333579063,-0.01885508559644222,-0.01651710271835327,0.00576433539390564,-0.003170430660247803,2,-0.6753459253683988,-0.112786374271131,0.7275846095780436,-0.0425162471936345,0.9923331141471863,0.1066969111561775,-0.06237423047423363,42.521728515625,37.52913284301758,-2.09295654296875,2,103220.085549875,2,0,1582550332.244046,0,0,0,0,0,0,0,0,0,103217.330551,0,-2.885422,99.13136
1582550332.77679,50,0,1582550332.262191,41.20729459376808,29.07241239401643,161.2788,-1,-1,14.80326175689697,65,-9999,103220.617110875,0.9902496337890625,0.1132965087890625,-0.0545654296875,103220.612074875,-2.92453384587929,1.508462865252859,-0.1072160887706716,0.006687934976071119,0.0438963882625103,-0.03184270858764648,-0.002045333385467529,0.00270378589630127,0.001060009002685547,2,-0.6754924051672248,-0.1128818262986794,0.7274433638839926,-0.04235390137708051,0.9923269152641296,0.1070107966661453,-0.06193540617823601,42.31149291992188,37.27460098266602,-2.16339111328125,2,103220.085549875,2,0,1582550332.244046,0,0,0,0,0,0,0,0,0,103217.330551,0,-2.885422,99.13136
1582550332.786753,51,0,1582550332.262191,41.20729459376808,29.07241239401643,161.2788,-1,-1,14.80326175689697,65,-9999,103220.627150875,0.98651123046875,0.1126861572265625,-0.0576629638671875,103220.622115875,-2.924584494887569,1.508758537882256,-0.1076305209847838,0.00363621860742569,0.02791875228285789,-0.04094139859080315,-0.001576840877532959,0.006014794111251831,0.006516158580780029,2,-0.6755789008695826,-0.1130200375557899,0.7273517730290748,-0.0421770222405119,0.9923007488250732,0.107422836124897,-0.06163923814892769,42.31149291992188,37.27460098266602,-2.16339111328125,2,103220.085549875,2,0,1582550332.244046,0,0,0,0,0,0,0,0,0,103217.330551,0,-2.885422,99.13136
1582550332.796734,52,0,1582550332.262191,41.20729459376808,29.07241239401643,161.2788,-1,-1,14.80326175689697,65,-9999,103220.637221875,0.982574462890625,0.11370849609375,-0.05841064453125,103220.632155875,-2.924588080523999,1.508970804257345,-0.1081035947834898,-0.002473457949236035,0.02147691138088703,-0.04599867761135101,-0.005048632621765137,0.004842549562454224,0.004593491554260254,2,-0.675628974226081,-0.1131934472503154,0.7272884968297425,-0.04200191623750987,0.9922630190849304,0.1078931614756584,-0.06142546609044075,42.32293701171875,37.50165176391602,-1.848358154296875,2,103220.085549875,2,0,1582550332.244046,0,0,0,0,0,0,0,0,0,103217.330551,0,-2.885422,99.13136
1582550332.807314,53,0,1582550332.262191,41.20729459376808,29.07241239401643,161.2788,-1,-1,14.80326175689697,65,-9999,103220.647261875,0.9764251708984375,0.117767333984375,-0.056793212890625,103220.642195875,-2.924562426474723,1.509083392468644,-0.1085861856852729,-0.005980574525892735,0.009361660107970238,-0.04656699672341347,-0.009046971797943115,0.004866242408752441,0.002250730991363525,2,-0.6756405589978352,-0.113378014048015,0.7272582432994414,-0.04183975315588984,0.9922177195549011,0.1083729192614555,-0.06131052225828171,42.32293701171875,37.50165176391602,-1.848358154296875,2,103220.085549875,2,0,1582550332.244046,0,0,0,0,0,0,0,0,0,103217.330551,0,-2.885422,99.13136
1582550332.816881,54,0,1582550332.262191,41.20729459376808,29.07241239401643,161.2788,-1,-1,14.80326175689697,65,-9999,103220.657301875,0.967681884765625,0.1222076416015625,-0.0580291748046875,103220.652235875,-2.924542858858608,1.509104091924188,-0.1090162662862751,-0.004266101866960526,-0.002405585721135139,-0.04173574596643448,-0.01420485973358154,0.007734566926956177,0.004485607147216797,2,-0.6756220711724507,-0.1135397095729143,0.7272582821730107,-0.04169855525418736,0.9921723604202271,0.1088004633784294,-0.06128710135817528,42.41213989257812,37.20145034790039,-2.00799560546875,2,103220.085549875,2,0,1582550332.244046,0,0,0,0,0,0,0,0,0,103217.330551,0,-2.885422,99.13136
1582550332.827932,55,0,1582550332.262191,41.20729459376808,29.07241239401643,161.2788,-1,-1,14.80326175689697,65,-9999,103220.667342875,0.9574127197265625,0.1249542236328125,-0.0665130615234375,103220.662276875,-2.924522311561993,1.509273676272524,-0.109341982128845,-0.004459180869162083,0.01933246850967407,-0.03162505477666855,-0.02266371250152588,0.01223254203796387,0.00408625602722168,2,-0.6756636818332918,-0.1136673032378305,0.7272062399572679,-0.04158497019730112,0.9921473860740662,0.1091242358088493,-0.06111666560173035,42.41213989257812,37.20145034790039,-2.00799560546875,2,103220.085549875,2,0,1582550332.244046,0,0,0,0,0,0,0,0,0,103217.330551,0,-2.885422,99.13136
1582550332.837003,56,0,1582550332.262191,41.20729459376808,29.07241239401643,161.2788,-1,-1,14.80326175689697,65,-9999,103220.677382875,0.957733154296875,0.125823974609375,-0.0641021728515625,103220.672316875,-2.924513925626055,1.509599875253555,-0.1095130269754512,-0.001070118974894285,0.03271974995732307,-0.0152899120002985,-0.03328514099121094,0.01546522974967957,-0.004646122455596924,2,-0.6757718793818785,-0.1137384070053542,0.7270988104218965,-0.04151094810619704,0.9921486377716064,0.1092942580580711,-0.06079188361763954,42.2335205078125,37.49907302856445,-1.767120361328125,2,103220.085549875,2,0,1582550332.244046,0,0,0,0,0,0,0,0,0,103217.330551,0,-2.885422,99.13136
1582550332.847002,57,0,1582550332.262191,41.20729459376808,29.07241239401643,161.2788,-1,-1,14.80326175689697,65,-9999,103220.687422875,0.960113525390625,0.1274871826171875,-0.060455322265625,103220.682387875,-2.924538381751088,1.510057078975117,-0.1095415914432965,0.003304655663669109,0.0486808754503727,-0.0021232427097857,-0.03507959842681885,0.01652029156684875,-0.004535198211669922,2,-0.675937806287034,-0.1137499049234289,0.7269454132629756,-0.04146630904977411,0.9921733736991882,0.109322652220726,-0.06033808365464211,42.2335205078125,37.49907302856445,-1.767120361328125,2,103220.085549875,2,0,1582550332.244046,0,0,0,0,0,0,0,0,0,103218.272511,0,-2.901276,99.13154
1582550332.857045,58,0,1582550332.262191,41.20729459376808,29.07241239401643,161.2788,-1,-1,14.80326175689697,65,-9999,103220.697462875,0.9601593017578125,0.127685546875,-0.0607147216796875,103220.692427875,-2.924576987891665,1.510585193679342,-0.1094021959290865,0.004126809537410736,0.05261437967419624,0.01391981542110443,-0.03302085399627686,0.01801693439483643,-0.00167083740234375,2,-0.6761400191329706,-0.1136977119489148,0.7267653024099262,-0.04146997084455367,0.9922202825546265,0.109184093773365,-0.05981500819325447,42.11393737792969,37.3254280090332,-1.806976318359375,2,103220.085549875,2,0,1582550332.244046,0,0,0,0,0,0,0,0,0,103218.272511,0,-2.901276,99.13154
1582550332.867082,59,0,1582550332.262191,41.20729459376808,29.07241239401643,161.2788,-1,-1,14.80326175689697,65,-9999,103220.707503875,0.9553680419921875,0.1278533935546875,-0.0632171630859375,103220.702467875,-2.924642093270217,1.511240099225231,-0.1090962449696039,0.008134867064654827,0.06509022414684296,0.03029159642755985,-0.03161311149597168,0.01867187023162842,-0.0009000301361083984,2,-0.6763993998817501,-0.1135793546444839,0.7265398153852977,-0.04151384774722716,0.9922924041748047,0.1088799610733986,-0.05916716530919075,42.11393737792969,37.3254280090332,-1.806976318359375,2,103220.085549875,2,0,1582550332.244046,0,0,0,0,0,0,0,0,0,103218.272511,0,-2.901276,99.13154
1582550332.877147,60,0,1582550332.262191,41.20729459376808,29.07241239401643,161.2788,-1,-1,14.80326175689697,65,-9999,103220.717543875,0.9591064453125,0.12347412109375,-0.06396484375,103220.712508875,-2.92469344654629,1.512084763225415,-0.1086589549200986,0.006565655581653118,0.08632399141788483,0.04332564398646355,-0.03633368015289307,0.01971697807312012,-0.004817724227905273,2,-0.6767344016669028,-0.11342248112627,0.7262475829164614,-0.04159707472004204,0.9923895597457886,0.1084452643990517,-0.05833178013563156,42.36564636230469,37.28690719604492,-1.803009033203125,2,103220.085549875,2,0,1582550332.244046,0,0,0,0,0,0,0,0,0,103218.272511,0,-2.901276,99.13154
1582550332.887103,61,0,1582550332.262191,41.20729459376808,29.07241239401643,161.2788,-1,-1,14.80326175689697,65,-9999,103220.727583875,0.9694671630859375,0.118896484375,-0.05859375,103220.722548875,-2.924730805374259,1.513019148613863,-0.1081289784521618,0.006617054343223572,0.09294754266738892,0.05281288921833038,-0.03530025482177734,0.01652076840400696,-0.006977558135986328,2,-0.67710636713705,-0.1132390169888675,0.7259227529432738,-0.04171217710695058,0.9925007224082947,0.1079183965921402,-0.05740778520703316,42.36564636230469,37.28690719604492,-1.803009033203125,2,103220.085549875,2,0,1582550332.244046,0,0,0,0,0,0,0,0,0,103218.272511,0,-2.901276,99.13154
1582550332.897129,62,0,1582550332.262191,41.20729459376808,29.07241239401643,161.2788,-1,-1,14.80326175689697,65,-9999,103220.737624875,0.9743499755859375,0.117889404296875,-0.0549468994140625,103220.732588875,-2.924752410076895,1.514005324090154,-0.1075566680592956,0.005286783911287785,0.1017046421766281,0.05786705017089844,-0.02472114562988281,0.01237493753433228,-0.002993404865264893,2,-0.6774984506318722,-0.1130469272062195,0.7255792724590018,-0.04184482152570412,0.9926185011863708,0.1073494106531143,-0.05643248185515404,42.37763977050781,37.45711898803711,-1.810302734375,2,103220.728560875,4,2,1582550332.887058,0,0,0,0,0,0,0,0,0,103218.272511,0,-2.901276,99.13154
1582550332.907275,63,0,1582550332.262191,41.20729459376808,29.07241239401643,161.2788,-1,-1,14.80326175689697,65,-9999,103220.747694875,0.9786376953125,0.1157379150390625,-0.0524444580078125,103220.742628875,-2.924731773295394,1.514877120409605,-0.106962250072331,0.001788721885532141,0.08297224342823029,0.0613054558634758,-0.01953840255737305,0.01118075847625732,-0.0004066228866577148,2,-0.6778477173570211,-0.1128589578766391,0.7252728680852435,-0.04200698016283161,0.9927308559417725,0.1067584082484245,-0.05557065457105637,42.37763977050781,37.45711898803711,-1.810302734375,2,103220.728560875,4,2,1582550332.887058,0,0,0,0,0,0,0,0,0,103218.272511,0,-2.901276,99.13154
1582550332.917314,64,0,1582550332.262191,41.20729459376808,29.07241239401643,161.2788,-1,-1,14.80326175689697,65,-9999,103220.757735875,0.978515625,0.1145172119140625,-0.05548095703125,103220.752669875,-2.924658435444894,1.515751000191367,-0.1063741510994811,-0.004678883589804173,0.08781399577856064,0.06102580577135086,-0.01459813117980957,0.01011762022972107,0.002788186073303223,2,-0.6781942171417894,-0.1126913137328888,0.7249644379661627,-0.04218609942967905,0.9928414225578308,0.106173649430275,-0.05470654368400574,42.47309875488281,37.30156326293945,-1.784027099609375,2,103220.728560875,4,2,1582550332.887058,0,0,0,0,0,0,0,0,0,103218.272511,0,-2.901276,99.13154
1582550332.927482,65,0,1582550332.262191,41.20729459376808,29.07241239401643,161.2788,-1,-1,14.80326175689697,65,-9999,103220.767775875,0.9808197021484375,0.113037109375,-0.05157470703125,103220.762709875,-2.924573155296045,1.516549520678634,-0.1058064627099099,-0.005477565340697765,0.07686680555343628,0.05875572562217712,-0.01493048667907715,0.008912205696105957,-0.001892387866973877,2,-0.6785113760869184,-0.1125336318886961,0.7246816589111692,-0.0423669847553888,0.9929448962211609,0.105609156191349,-0.05391698703169823,42.47309875488281,37.30156326293945,-1.784027099609375,2,103220.728560875,4,2,1582550332.887058,0,0,0,0,0,0,0,0,0,103218.272511,0,-2.901276,99.13154
1582550332.937439,66,0,1582550332.262191,41.20729459376808,29.07241239401643,161.2788,-1,-1,14.80326175689697,65,-9999,103220.777815875,0.983673095703125,0.113800048828125,-0.0496368408203125,103220.772749875,-2.924474734840102,1.517273648250028,-0.1052709544415956,-0.007146556861698627,0.07426485419273376,0.05440541729331017,-0.012462317943573,0.007979899644851685,0.001358568668365479,2,-0.6787988605761898,-0.1123904944146971,0.7244240395119014,-0.04254583215484653,0.9930399060249329,0.1050766259431839,-0.05320096760988235,42.45051574707031,37.1355094909668,-1.727081298828125,2,103220.728560875,4,2,1582550332.887058,0,0,0,0,0,0,0,0,0,103218.272511,0,-2.901276,99.13154
1582550332.948071,67,0,1582550332.262191,41.20729459376808,29.07241239401643,161.2788,-1,-1,14.80326175689697,65,-9999,103220.787855875,0.98211669921875,0.112060546875,-0.0511474609375,103220.782790875,-2.924339890475053,1.517904008720792,-0.1047560594518707,-0.0117367822676897,0.06321273744106293,0.05381153151392937,-0.010215163230896,0.009285449981689453,0.002077937126159668,2,-0.6790490376821241,-0.1122652502323339,0.7241977433635434,-0.04273617211716563,0.9931271076202393,0.1045645698904991,-0.05257783457636833,42.45051574707031,37.1355094909668,-1.727081298828125,2,103220.728560875,4,2,1582550332.887058,0,0,0,0,0,0,0,0,0,103218.272511,0,-2.901276,99.13154
1582550332.957477,68,0,1582550332.262191,41.20729459376808,29.07241239401643,161.2788,-1,-1,14.80326175689697,65,-9999,103220.797896875,0.9840545654296875,0.112640380859375,-0.045501708984375,103220.792860875,-2.924201519123776,1.518419341402626,-0.1042809963224618,-0.01079739257693291,0.04940370842814445,0.04802263155579567,-0.01096296310424805,0.008216828107833862,0.00121772289276123,2,-0.67925500430098,-0.1121531253245557,0.7240110048617282,-0.04292062301368627,0.9932035803794861,0.1040920987725258,-0.05206863209605217,42.47453308105469,37.28201675415039,-1.7196044921875,2,103220.728560875,4,2,1582550332.887058,0,0,0,0,0,0,0,0,0,103218.272511,0,-2.901276,99.13154
1582550332.967515,69,0,1582550332.262191,41.20729459376808,29.07241239401643,161.2788,-1,-1,14.80326175689697,65,-9999,103220.807936875,0.973419189453125,0.1164398193359375,-0.049102783203125,103220.802901875,-2.924084699016236,1.518837607797683,-0.1037983675319669,-0.009724937379360199,0.03844134137034416,0.0488591305911541,-0.009264707565307617,0.008742690086364746,0.004863739013671875,2,-0.6794274069302852,-0.1120289857206867,0.7238575212957056,-0.04310539164256971,0.9932754039764404,0.1036120802164078,-0.05165581032633781,42.47453308105469,37.28201675415039,-1.7196044921875,2,103220.728560875,4,2,1582550332.887058,0,0,0,0,0,0,0,0,0,103218.272511,0,-2.901276,99.13154
1582550332.977665,70,0,1582550332.262191,41.20729459376808,29.07241239401643,161.2788,-1,-1,14.80326175689697,65,-9999,103220.817976875,0.9670867919921875,0.118194580078125,-0.0518035888671875,103220.812941875,-2.923999419286879,1.519350529689883,-0.1032638873344967,-0.006855442188680172,0.05149523913860321,0.05464732646942139,-0.0169299840927124,0.01250919699668884,0.003533065319061279,2,-0.6796387220856241,-0.1118776964744422,0.7236715057418313,-0.04329133965414222,0.9933570027351379,0.1030804589390755,-0.05114917829632759,42.66096496582031,37.26433944702148,-1.64215087890625,2,103220.728560875,4,2,1582550332.887058,0,0,0,0,0,0,0,0,0,103218.272511,0,-2.901276,99.13154
1582550332.987592,71,0,1582550332.262191,41.20729459376808,29.07241239401643,161.2788,-1,-1,14.80326175689697,65,-9999,103220.828017875,0.9682769775390625,0.1199798583984375,-0.0468292236328125,103220.822981875,-2.923956542889422,1.519910973822759,-0.1026707514077511,-0.001003412064164877,0.05505561828613281,0.06045594438910484,-0.02657145261764526,0.01534232497215271,-0.002101778984069824,2,-0.679872852342444,-0.1116921223223598,0.7234689410540036,-0.0434795245214683,0.993446409702301,0.1024904698133469,-0.05059554800391197,42.66096496582031,37.26433944702148,-1.64215087890625,2,103220.728560875,4,2,1582550332.887058,0,0,0,0,0,0,0,0,0,103218.272511,0,-2.901276,99.13154
1582550332.997689,72,0,1582550332.262191,41.20729459376808,29.07241239401643,161.2788,-1,-1,14.80326175689697,65,-9999,103220.838057875,0.973480224609375,0.1177825927734375,-0.0476226806640625,103220.833021875,-2.923966306866913,1.520511662431249,-0.1020275791816967,0.004811507184058428,0.05989400297403336,0.06443285942077637,-0.02556872367858887,0.01814889907836914,0.002523243427276611,2,-0.680127198188325,-0.1114717328421118,0.7232527873676378,-0.04366376124596311,0.9935423135757446,0.1018506586551666,-0.0500020943582058,42.64480590820312,37.09022903442383,-1.387359619140625,2,103220.728560875,4,2,1582550332.887058,0,0,0,0,0,0,0,0,0,103218.272511,0,-2.901276,99.13154
1582550333.007732,73,0,1582550332.262191,41.20729459376808,29.07241239401643,161.2788,-1,-1,14.80326175689697,65,-9999,103220.848097875,0.98236083984375,0.1131134033203125,-0.044830322265625,103220.843062875,-2.924029354834266,1.521104053939331,-0.1013752893446495,0.009336750954389572,0.06171427667140961,0.06568402051925659,-0.02203285694122314,0.01701265573501587,0.001739263534545898,2,-0.6803818891704008,-0.1112298680057617,0.7230401522621822,-0.04383242846333479,0.9936378002166748,0.1012017428874969,-0.04941680282354355,42.64480590820312,37.09022903442383,-1.387359619140625,2,103220.728560875,4,2,1582550332.887058,0,0,0,0,0,0,0,0,0,103218.272511,0,-2.901276,99.13154
1582550333.017714,74,0,1582550332.262191,41.20729459376808,29.07241239401643,161.2788,-1,-1,14.80326175689697,65,-9999,103220.858137875,0.98736572265625,0.10906982421875,-0.0399017333984375,103220.853102875,-2.924133546897297,1.521541761269796,-0.1007542885551426,0.01279929000884295,0.04363188892602921,0.06260713934898376,-0.01306837797164917,0.01360219717025757,0.00295555591583252,2,-0.6805810273421422,-0.1109819021913559,0.7228816771287284,-0.04398422549198733,0.9937220215797424,0.1005839109420776,-0.04898496344685555,42.61705017089844,37.13142776489258,-1.475677490234375,2,103220.728560875,4,2,1582550332.887058,0,0,0,0,0,0,0,0,0,103218.272511,0,-2.901276,99.13154
1582550333.027801,75,0,1582550332.262191,41.20729459376808,29.07241239401643,161.2788,-1,-1,14.80326175689697,65,-9999,103220.868208875,0.9865570068359375,0.1107330322265625,-0.04425048828125,103220.863142875,-2.92428386649557,1.521871363280467,-0.1001556229221929,0.01876556873321533,0.03449031710624695,0.05885660275816917,-0.006888389587402344,0.009315133094787598,0.008291661739349365,2,-0.6807422761492135,-0.1107238715554794,0.7227611160878837,-0.04411769268445093,0.9937978386878967,0.09998825937509537,-0.04866035655140877,42.61705017089844,37.13142776489258,-1.475677490234375,2,103220.728560875,4,2,1582550332.887058,0,0,0,0,0,0,0,0,0,103218.272511,0,-2.901276,99.13154
1582550333.03832,76,0,1582550332.262191,41.20729459376808,29.07241239401643,161.2788,-1,-1,14.80326175689697,65,-9999,103220.878249875,0.9833831787109375,0.110992431640625,-0.0420379638671875,103220.873183875,-2.924438952914652,1.522102691589213,-0.09954480613129449,0.01929853484034538,0.02519859746098518,0.06006510928273201,-0.007235169410705566,0.01085373759269714,0.004845142364501953,2,-0.680868835480978,-0.1104577512921393,0.7226740229121984,-0.04425919157350761,0.993869960308075,0.0993804857134819,-0.04843342676758766,42.77352905273438,37.2518424987793,-1.535888671875,2,103220.728560875,4,2,1582550332.887058,0,0,0,0,0,0,0,0,0,103218.272511,0,-2.901276,99.13154
1582550333.04791,77,0,1582550332.262191,41.20729459376808,29.07241239401643,161.2788,-1,-1,14.80326175689697,65,-9999,103220.888289875,0.9752349853515625,0.1104736328125,-0.0440826416015625,103220.883223875,-2.924566556171342,1.522244045834061,-0.09889317679263532,0.01581884920597076,0.01617660745978355,0.06533763557672501,-0.009473323822021484,0.01260080933570862,0.005623221397399902,2,-0.6809635520415054,-0.1101844092656559,0.7226160564257179,-0.04442967939002729,0.9939413070678711,0.09873206168413162,-0.04829607531428337,42.77352905273438,37.2518424987793,-1.535888671875,2,103220.728560875,4,2,1582550332.887058,0,0,0,0,0,0,0,0,0,103218.272511,0,-2.901276,99.13154
1582550333.058961,78,0,1582550332.262191,41.20729459376808,29.07241239401643,161.2788,-1,-1,14.80326175689697,65,-9999,103220.898329875,0.9755401611328125,0.1075897216796875,-0.0467376708984375,103220.893263875,-2.924652309264079,1.52230926391066,-0.09823348186961123,0.0121662300080061,0.006580373272299767,0.06575481593608856,-0.01759791374206543,0.01258596777915955,0.004737615585327148,2,-0.681028803141789,-0.1099207444396215,0.7225828746590275,-0.04462228750783237,0.9940093159675598,0.09807556867599487,-0.04823439940810204,42.68183898925781,37.21462631225586,-1.535736083984375,2,103220.728560875,4,2,1582550332.887058,0,0,0,0,0,0,0,0,0,103218.272511,0,-2.901276,99.13154
1582550333.068692,79,0,1582550332.262191,41.20729459376808,29.07241239401643,161.2788,-1,-1,14.80326175689697,65,-9999,103220.908369875,0.97662353515625,0.1070709228515625,-0.048004150390625,103220.903303875,-2.924660616475836,1.522336225090922,-0.09757926461279773,0.003410555422306061,0.002221310511231422,0.06668825447559357,-0.01938736438751221,0.01064306497573853,0.001921534538269043,2,-0.6810755827625037,-0.1096845529709715,0.7225610380263858,-0.04484310240310241,0.9940745234489441,0.09742448478937149,-0.04821069911122322,42.68183898925781,37.21462631225586,-1.535736083984375,2,103220.728560875,4,2,1582550332.887058,0,0,0,0,0,0,0,0,0,103218.272511,0,-2.901276,99.13154
1582550333.078068,80,0,1582550332.262191,41.20729459376808,29.07241239401643,161.2788,-1,-1,14.80326175689697,65,-9999,103220.918410875,0.9766998291015625,0.10125732421875,-0.0471649169921875,103220.913374875,-2.92460102673299,1.522341640479473,-0.09699586771800396,-0.002498905407264829,0.001486077904701233,0.06022516265511513,-0.01735389232635498,0.01026263833045959,0.000392913818359375,2,-0.6811068415850099,-0.1094963119467584,0.7225462417791579,-0.0450652137835138,0.994131326675415,0.09684384614229202,-0.04820805788040161,42.93408203125,37.22777938842773,-1.536773681640625,2,103220.728560875,4,2,1582550332.887058,0,0,0,0,0,0,0,0,0,103218.272511,0,-2.901276,99.13154
1582550333.088103,81,0,1582550332.262191,41.20729459376808,29.07241239401643,161.2788,-1,-1,14.80326175689697,65,-9999,103220.928450875,0.9804534912109375,0.0961456298828125,-0.050933837890625,103220.923415875,-2.924437333001554,1.522263157162232,-0.09654641197822164,-0.01431748084723949,-0.01382736396044493,0.04674717411398888,-0.01827847957611084,0.006788551807403564,0.0005800724029541016,2,-0.681094583366191,-0.1093895429140541,0.7225604354361997,-0.04528344475585749,0.9941710829734802,0.09639649093151093,-0.04828819260001183,42.93408203125,37.22777938842773,-1.536773681640625,2,103220.728560875,4,2,1582550332.887058,0,0,0,0,0,0,0,0,0,103218.272511,0,-2.901276,99.13154
1582550333.098065,82,0,1582550332.262191,41.20729459376808,29.07241239401643,161.2788,-1,-1,14.80326175689697,65,-9999,103220.938490875,0.9787750244140625,0.1037139892578125,-0.04766845703125,103220.933455875,-2.924203383011359,1.522221329580117,-0.09615982509816674,-0.02351639978587627,-0.005206778645515442,0.0407344177365303,-0.01394951343536377,-0.0004407763481140137,-0.001329660415649414,2,-0.6810882205599338,-0.1093299862545222,0.722561593351025,-0.04550335504981184,0.9942061305046082,0.0960116982460022,-0.04833158105611801,42.91905212402344,37.04867172241211,-1.412200927734375,2,103220.728560875,4,2,1582550332.887058,0,0,0,0,0,0,0,0,0,103218.272511,0,-2.901276,99.13154
1582550333.10811,83,0,1582550332.262191,41.20729459376808,29.07241239401643,161.2788,-1,-1,14.80326175689697,65,-9999,103220.948531875,0.9760589599609375,0.1049346923828125,-0.04302978515625,103220.943495875,-2.923980762079739,1.522032773991506,-0.09577326204723623,-0.01981939934194088,-0.02353411912918091,0.03963666409254074,-0.0155186653137207,0.007252961397171021,-0.00143057107925415,2,-0.6810294623559289,-0.1092632132703933,0.7226128813323538,-0.04572716647972175,0.9942339062690735,0.09562691301107407,-0.04852084442973137,42.86868286132812,36.72445297241211,-1.563201904296875,2,103220.728560875,4,2,1582550332.887058,0,0,0,0,0,0,0,0,0,103218.272511,0,-2.901276,99.13154
1582550333.118767,84,0,1582550332.262191,41.20729459376808,29.07241239401643,161.2788,-1,-1,14.80326175689697,65,-9999,103220.958571875,0.97064208984375,0.1112518310546875,-0.048492431640625,103220.953535875,-2.923738551271887,1.521813917337522,-0.09534506004734335,-0.02249138057231903,-0.02398394420742989,0.04413723573088646,-0.01702892780303955,0.009052515029907227,0.006448924541473389,2,-0.6809609938292087,-0.109187481999917,0.7226731872656031,-0.04597404602098476,0.9942640662193298,0.09520066529512405,-0.0487404391169548,42.86868286132812,36.72445297241211,-1.563201904296875,2,103220.728560875,4,2,1582550332.887058,0,0,0,0,0,0,0,0,0,103218.272511,0,-2.901276,99.13154
1582550333.128936,85,0,1582550332.262191,41.20729459376808,29.07241239401643,161.2788,-1,-1,14.80326175689697,65,-9999,103220.968611875,0.9703826904296875,0.110382080078125,-0.0483551025390625,103220.963576875,-2.923513363161982,1.521639132834626,-0.09487658858809901,-0.0194199550896883,-0.01967814564704895,0.0491679459810257,-0.02329039573669434,0.01531726121902466,0.0009638667106628418,2,-0.6809116111415794,-0.1090925105848004,0.7227179630117844,-0.04622620620166157,0.9942999482154846,0.0947343111038208,-0.04891640320420265,42.87104797363281,36.80887222290039,-1.411865234375,2,103220.728560875,4,2,1582550332.887058,0,0,0,0,0,0,0,0,0,103218.272511,0,-2.901276,99.13154
1582550333.13838,86,0,1582550332.262191,41.20729459376808,29.07241239401643,161.2788,-1,-1,14.80326175689697,65,-9999,103220.978682875,0.971710205078125,0.1043548583984375,-0.0497283935546875,103220.973616875,-2.92330913429696,1.521556941824837,-0.09443021466856069,-0.01759817264974117,-0.01003007125109434,0.04715410992503166,-0.02418315410614014,0.01733338832855225,0.0004678964614868164,2,-0.6808955899433642,-0.1090004240951665,0.7227321322903123,-0.04645813662849896,0.9943381547927856,0.09428993612527847,-0.04900020733475685,42.87104797363281,36.80887222290039,-1.411865234375,2,103220.728560875,4,2,1582550332.887058,0,0,0,0,0,0,0,0,0,103218.272511,0,-2.901276,99.13154
1582550333.148945,87,0,1582550332.262191,41.20729459376808,29.07241239401643,161.2788,-1,-1,14.80326175689697,65,-9999,103220.988722875,0.97357177734375,0.1052703857421875,-0.0479888916015625,103220.983656875,-2.923134312614364,1.521548034193067,-0.09400291045498814,-0.01416908670216799,-0.001681860536336899,0.04431651160120964,-0.02300214767456055,0.01110595464706421,-0.0004521012306213379,2,-0.6809065876423939,-0.1089068328043177,0.7227222880422465,-0.04666885579033148,0.9943778514862061,0.09386453032493591,-0.04901104047894478,42.96101379394531,36.55756759643555,-1.4696044921875,2,103220.728560875,4,2,1582550332.887058,0,0,0,0,0,0,0,0,0,103218.272511,0,-2.901276,99.13154
1582550333.162749,88,0,1582550332.262191,41.20729459376808,29.07241239401643,161.2788,-1,-1,14.80326175689697,65,-9999,103220.998762875,0.9716644287109375,0.107574462890625,-0.047149658203125,103220.993697875,-2.922981906600585,1.521589977334521,-0.09355393437933977,-0.01233967579901218,0.001064417883753777,0.04616283625364304,-0.02109301090240479,0.01111051440238953,-3.457069396972656e-06,2,-0.680938371722464,-0.1087990463372803,0.7226951733814864,-0.046876170562276,0.9944218993186951,0.09341752529144287,-0.04897140339016914,42.96101379394531,36.55756759643555,-1.4696044921875,2,103220.728560875,4,2,1582550332.887058,0,0,0,0,0,0,0,0,0,103218.272511,0,-2.901276,99.13154
1582550333.168562,89,0,1582550332.262191,41.20729459376808,29.07241239401643,161.2788,-1,-1,14.80326175689697,65,-9999,103221.008803875,0.9722900390625,0.1051788330078125,-0.049041748046875,103221.003737875,-2.922870269920713,1.521718783498536,-0.09309008936696374,-0.007730543147772551,0.01118123345077038,0.04801613092422485,-0.02247017621994019,0.01453259587287903,0.00228118896484375,2,-0.681004569542431,-0.1086741018235821,0.7226389998621301,-0.04706913377039512,0.9944713115692139,0.09295570105314255,-0.04884543269872665,43.07357788085938,36.59618759155273,-1.33123779296875,2,103220.728560875,4,2,1582550332.887058,0,0,0,0,0,0,0,0,0,103218.272511,0,-2.901276,99.13154
1582550333.179177,90,0,1582550332.262191,41.20729459376808,29.07241239401643,161.2788,-1,-1,14.80326175689697,65,-9999,103221.018843875,0.979888916015625,0.10382080078125,-0.0450592041015625,103221.013777875,-2.922771328751376,1.521874647165692,-0.09264520992687347,-0.008539452217519283,0.01551561988890171,0.04473665729165077,-0.02303791046142578,0.01344969868659973,-0.0007556676864624023,2,-0.681080151688252,-0.1085522953356729,0.7225743819595973,-0.04724956345422171,0.9945202469825745,0.09251273423433304,-0.04869245365262032,43.07357788085938,36.59618759155273,-1.33123779296875,2,103220.728560875,4,2,1582550332.887058,0,0,0,0,0,0,0,0,0,103218.272511,0,-2.901276,99.13154
1582550333.193013,91,0,1582550332.262191,41.20729459376808,29.07241239401643,161.2788,-1,-1,14.80326175689697,65,-9999,103221.028883875,0.986602783203125,0.1016998291015625,-0.0425872802734375,103221.023848875,-2.922688058722761,1.521947655456375,-0.09218100053739826,-0.006540216971188784,0.006700024008750916,0.04755188152194023,-0.01652288436889648,0.01194357872009277,0.002530753612518311,2,-0.681127698948615,-0.1084162847216679,0.7225377754579914,-0.04743546277426064,0.9945665597915649,0.09205050766468048,-0.04862193390727043,43.07221984863281,36.7701530456543,-1.444244384765625,2,103220.728560875,4,2,1582550332.887058,0,0,0,0,0,0,0,0,0,103218.272511,0,-2.901276,99.13154
1582550333.19861,92,0,1582550332.262191,41.20729459376808,29.07241239401643,161.2788,-1,-1,14.80326175689697,65,-9999,103221.038924875,0.98468017578125,0.1009979248046875,-0.046051025390625,103221.033888875,-2.922619153761669,1.52195835265702,-0.09168930737430904,-0.003436437342315912,0.0006179716438055038,0.05244867876172066,-0.008588135242462158,0.01044958829879761,0.00561976432800293,2,-0.6811550087369147,-0.1082640666395822,0.7225220254170803,-0.04762899350082106,0.9946120381355286,0.09156089276075363,-0.04861349239945412,43.07221984863281,36.7701530456543,-1.444244384765625,2,103220.728560875,4,2,1582550332.887058,0,0,0,0,0,0,0,0,0,103218.272511,0,-2.901276,99.13154
1582550333.208791,93,0,1582550332.262191,41.20729459376808,29.07241239401643,161.2788,-1,-1,14.80326175689697,65,-9999,103221.048964875,0.9829864501953125,0.096649169921875,-0.04791259765625,103221.043928875,-2.922527816932153,1.521914017563723,-0.09124618655124596,-0.00584446731954813,-0.005557898432016373,0.0458642803132534,-0.009343624114990234,0.01050940155982971,0.003407597541809082,2,-0.6811585097977948,-0.1081355644154721,0.7225255957643426,-0.04781692020264666,0.9946503639221191,0.09111962467432022,-0.04865956678986549,43.18653869628906,36.80765914916992,-1.34716796875,2,103220.728560875,4,2,1582550332.887058,0,0,0,0,0,0,0,0,0,103218.272511,0,-2.901276,99.13154
1582550333.21883,94,0,1582550332.262191,41.20729459376808,29.07241239401643,161.2788,-1,-1,14.80326175689697,65,-9999,103221.059004875,0.97271728515625,0.1000823974609375,-0.0507965087890625,103221.053969875,-2.922374565658748,1.521871739128199,-0.09081543695902793,-0.01359036192297935,-0.005156364291906357,0.04405026137828827,-0.01113545894622803,0.006528675556182861,0.001162707805633545,2,-0.6811587098679119,-0.1080326084752249,0.7225271416720096,-0.04802282256398904,0.9946873784065247,0.09069065749645233,-0.04870353639125824,43.18653869628906,36.80765914916992,-1.34716796875,2,103220.728560875,4,2,1582550332.887058,0,0,0,0,0,0,0,0,0,103218.272511,0,-2.901276,99.13154
1582550333.228839,95,0,1582550332.262191,41.20729459376808,29.07241239401643,161.2788,-1,-1,14.80326175689697,65,-9999,103221.069044875,0.9688720703125,0.1032867431640625,-0.0486297607421875,103221.064009875,-2.92219705085093,1.521874594757302,-0.09034269740247357,-0.01452433131635189,-0.001788530498743057,0.04836778342723846,-0.01975369453430176,0.008693277835845947,-0.001950681209564209,2,-0.6811762071578367,-0.1079239671088613,0.7225117597746227,-0.04824949534089407,0.9947301745414734,0.09021985530853271,-0.04870278388261795,43.24789428710938,36.70033645629883,-1.41455078125,2,103220.728560875,4,2,1582550332.887058,0,0,0,0,0,0,0,0,0,103218.272511,0,-2.901276,99.13154
1582550333.239693,96,0,1582550332.262191,41.20729459376808,29.07241239401643,161.2788,-1,-1,14.80326175689697,65,-9999,103221.079085875,0.9694671630859375,0.10321044921875,-0.0471649169921875,103221.074049875,-2.92203068282052,1.521892426842701,-0.08986438069459128,-0.01299984939396381,-0.002093657851219177,0.04880867153406143,-0.02619099617004395,0.01339644193649292,-0.0004709959030151367,2,-0.6812000064142856,-0.1078099012187571,0.7224914144906862,-0.04847326591267986,0.9947741031646729,0.0897434800863266,-0.0486871525645256,43.24789428710938,36.70033645629883,-1.41455078125,2,103220.728560875,4,2,1582550332.887058,0,0,0,0,0,0,0,0,0,103218.272511,0,-2.901276,99.13154
1582550333.254756,97,0,1582550332.262191,41.20729459376808,29.07241239401643,161.2788,-1,-1,14.80326175689697,65,-9999,103221.089156875,0.9647979736328125,0.0991973876953125,-0.050567626953125,103221.084090875,-2.921873965989669,1.522014118105685,-0.08943255019153974,-0.01412743143737316,0.01290686428546906,0.0459473729133606,-0.02486217021942139,0.01420798897743225,0.001652836799621582,2,-0.6812592734296534,-0.1077117064455917,0.7224368023649201,-0.04867193928931407,0.9948186278343201,0.08931338042020798,-0.04856798052787781,43.25273132324219,36.79140090942383,-1.32952880859375,2,103220.728560875,4,2,1582550332.887058,0,0,0,0,0,0,0,0,0,103218.272511,0,-2.901276,99.13154
1582550333.258926,98,0,1582550332.262191,41.20729459376808,29.07241239401643,161.2788,-1,-1,14.80326175689697,65,-9999,103221.099188875,0.9716644287109375,0.0940399169921875,-0.0491943359375,103221.094122875,-2.921724746565243,1.522160707311778,-0.0891214670935533,-0.01328247971832752,0.01183210872113705,0.03252488374710083,-0.03000879287719727,0.01128304004669189,-0.002367377281188965,2,-0.6813212851388737,-0.1076547989171012,0.7223764999211809,-0.04882502408025474,0.9948534965515137,0.0890035405755043,-0.04842350259423256,43.25273132324219,36.79140090942383,-1.32952880859375,2,103220.728560875,4,2,1582550332.887058,0,0,0,0,0,0,0,0,0,103218.272511,0,-2.901276,99.13154
1582550333.268805,99,0,1582550332.262191,41.20729459376808,29.07241239401643,161.2788,-1,-1,14.80326175689697,65,-9999,103221.109228875,0.977783203125,0.094207763671875,-0.0473785400390625,103221.104162875,-2.921567870614811,1.522333436521223,-0.08892474754000884,-0.01504256390035152,0.01872649975121021,0.02055663801729679,-0.02501440048217773,0.005818009376525879,-0.0008599162101745605,2,-0.6813860365174398,-0.1076420749788848,0.7223095053687367,-0.04894009230786189,0.9948792457580566,0.0888075977563858,-0.04825250431895256,43.20964050292969,36.67679977416992,-1.444488525390625,2,103220.728560875,4,2,1582550332.887058,0,0,0,0,0,0,0,0,0,103218.272511,0,-2.901276,99.13154
1582550333.278849,100,0,1582550332.262191,41.20729459376808,29.07241239401643,161.2788,-1,-1,14.80326175689697,65,-9999,103221.119268875,0.98052978515625,0.094482421875,-0.04254150390625,103221.114202875,-2.92140685049923,1.522389563864044,-0.08879399704759061,-0.01678033731877804,0.005786027759313583,0.01378060318529606,-0.01794862747192383,0.00532260537147522,-0.0003198385238647461,2,-0.6814048180276204,-0.1076515448586751,0.7222837369406432,-0.04904027404610833,0.9948937296867371,0.08867736160755157,-0.04819723591208458,43.20964050292969,36.67679977416992,-1.444488525390625,2,103220.728560875,4,2,1582550332.887058,0,0,0,0,0,0,0,0,0,103218.272511,0,-2.901276,99.13154
1582550333.2889,101,0,1582550332.262191,41.20729459376808,29.07241239401643,161.2788,-1,-1,14.80326175689697,65,-9999,103221.129309875,0.9779510498046875,0.0999755859375,-0.0479736328125,103221.124243875,-2.921226871674985,1.522383006517239,-0.08865619869122256,-0.01803654991090298,-0.003251142799854279,0.01520432904362679,-0.01490867137908936,0.005597233772277832,0.004966795444488525,2,-0.681400335636932,-0.107663398486867,0.722278502348207,-0.04915305075959236,0.9949055910110474,0.08854010701179504,-0.04820435121655464,43.16697692871094,36.81418991088867,-1.36102294921875,2,103220.728560875,4,2,1582550332.887058,0,0,0,0,0,0,0,0,0,103218.272511,0,-2.901276,99.13154
1582550333.305877,102,0,1582550332.262191,41.20729459376808,29.07241239401643,161.2788,-1,-1,14.80326175689697,65,-9999,103221.139349875,0.977874755859375,0.0994110107421875,-0.04766845703125,103221.134314875,-2.921032974591026,1.52241367831894,-0.08850628862269279,-0.01875220611691475,0.002097111195325851,0.01682790741324425,-0.01582372188568115,0.01020210981369019,0.002007246017456055,2,-0.6814092131170895,-0.1076765807205284,0.7222599906064389,-0.04927302677414508,0.9949203133583069,0.0883907824754715,-0.04817447811365128,43.16697692871094,36.81418991088867,-1.36102294921875,2,103220.728560875,4,2,1582550332.887058,0,0,0,0,0,0,0,0,0,103218.272511,0,-2.901276,99.13154
1582550333.309196,103,0,1582550332.262191,41.20729459376808,29.07241239401643,161.2788,-1,-1,14.80326175689697,65,-9999,103221.149389875,0.980560302734375,0.09771728515625,-0.039215087890625,103221.144354875,-2.920833860970621,1.522293761646677,-0.08837149243925002,-0.01998738013207912,-0.01302671432495117,0.01477940380573273,-0.01792013645172119,0.01195383071899414,-0.00109255313873291,2,-0.68136259908896,-0.1076932241916614,0.7222928910852826,-0.04939777030242526,0.9949263334274292,0.08825651556253433,-0.04829435423016548,43.45228576660156,36.81234359741211,-1.393157958984375,2,103220.728560875,4,2,1582550332.887058,0,0,0,0,0,0,0,0,0,103218.272511,0,-2.901276,99.13154
1582550333.319471,104,0,1582550332.262191,41.20729459376808,29.07241239401643,161.2788,-1,-1,14.80326175689697,65,-9999,103221.159430875,0.973846435546875,0.101531982421875,-0.0431976318359375,103221.154394875,-2.92066081739858,1.521991289057736,-0.08820857744320168,-0.01623881049454212,-0.0341004952788353,0.01917942240834236,-0.01413559913635254,0.009247541427612305,0.007998228073120117,2,-0.6812529984183933,-0.1076863894601754,0.7223879734654767,-0.04953260515443481,0.9949259161949158,0.08809423446655273,-0.04859598726034164,43.45228576660156,36.81234359741211,-1.393157958984375,2,103220.728560875,4,2,1582550332.887058,0,0,0,0,0,0,0,0,0,103218.272511,0,-2.901276,99.13154
1582550333.329064,105,0,1582550332.262191,41.20729459376808,29.07241239401643,161.2788,-1,-1,14.80326175689697,65,-9999,103221.169470875,0.9718017578125,0.096923828125,-0.0503997802734375,103221.164434875,-2.920528503323292,1.521756718248156,-0.08808820899358923,-0.01217216346412897,-0.02291921153664589,0.01357799582183361,-0.01974999904632568,0.01328888535499573,0.00737762451171875,2,-0.6811677623756496,-0.1076825684815355,0.7224619532673537,-0.04963445763392188,0.9949251413345337,0.08797433227300644,-0.04882988706231117,43.24659729003906,36.86919784545898,-1.455596923828125,2,103220.728560875,4,2,1582550332.887058,0,0,0,0,0,0,0,0,0,103218.272511,0,-2.901276,99.13154
1582550333.339117,106,0,1582550332.262191,41.20729459376808,29.07241239401643,161.2788,-1,-1,14.80326175689697,65,-9999,103221.179510875,0.971649169921875,0.0988311767578125,-0.0480499267578125,103221.174475875,-2.920422490524201,1.52155876466886,-0.08798277318537841,-0.009901817888021469,-0.0217085387557745,0.01178249157965183,-0.02345764636993408,0.01015907526016235,-0.001290500164031982,2,-0.6810963464900481,-0.107676011891604,0.7225243158030452,-0.04971966804357031,0.9949245452880859,0.0878693014383316,-0.04902728646993637,43.24659729003906,36.86919784545898,-1.455596923828125,2,103220.728560875,4,2,1582550332.887058,0,0,0,0,0,0,0,0,0,103218.272511,0,-2.901276,99.13154
1582550333.349135,107,0,1582550332.262191,41.20729459376808,29.07241239401643,161.2788,-1,-1,14.80326175689697,65,-9999,103221.189550875,0.9687652587890625,0.104278564453125,-0.0486907958984375,103221.184515875,-2.920328300593929,1.521404624219769,-0.0878250818106356,-0.008602728135883808,-0.01720060594379902,0.01772986352443695,-0.02277719974517822,0.009614259004592896,0.0007101297378540039,2,-0.6810442548754132,-0.1076478242763733,0.7225711105341268,-0.04981628783004827,0.9949310421943665,0.08771222084760666,-0.04918133839964867,43.23828125,36.66237258911133,-1.336395263671875,2,103220.728560875,4,2,1582550332.887058,0,0,0,0,0,0,0,0,0,103218.272511,0,-2.901276,99.13154
1582550333.366042,108,0,1582550332.262191,41.20729459376808,29.07241239401643,161.2788,-1,-1,14.80326175689697,65,-9999,103221.199621875,0.971221923828125,0.1031494140625,-0.049346923828125,103221.194555875,-2.920238521133832,1.52130426060641,-0.08760008332806252,-0.006733988411724567,-0.01212701853364706,0.02453450672328472,-0.02634727954864502,0.01665908098220825,0.0005363225936889648,2,-0.6810155319982096,-0.1075953561013248,0.7225980661150371,-0.04993153621041402,0.9949458241462708,0.08748809248209,-0.04928217083215714,43.23828125,36.66237258911133,-1.336395263671875,2,103220.728560875,4,2,1582550332.887058,0,0,0,0,0,0,0,0,0,103218.272511,0,-2.901276,99.13154
1582550333.369272,109,0,1582550332.262191,41.20729459376808,29.07241239401643,161.2788,-1,-1,14.80326175689697,65,-9999,103221.209661875,0.966644287109375,0.10333251953125,-0.0509033203125,103221.204596875,-2.920170642770007,1.521339694175351,-0.08732233213853492,-0.00437256321310997,0.004488177597522736,0.02937373518943787,-0.02408444881439209,0.01568460464477539,0.000486910343170166,2,-0.6810399462259997,-0.107519928865534,0.7225780959980109,-0.05004970104236367,0.994971752166748,0.08721140027046204,-0.0492481142282486,43.31939697265625,36.79284286499023,-1.3228759765625,2,103220.728560875,4,2,1582550332.887058,0,0,0,0,0,0,0,0,0,103218.272511,0,-2.901276,99.13154
1582550333.379284,110,0,1582550332.262191,41.20729459376808,29.07241239401643,161.2788,-1,-1,14.80326175689697,65,-9999,103221.219702875,0.9648284912109375,0.0973968505859375,-0.0511016845703125,103221.214636875,-2.920110478936822,1.521422402927124,-0.08706985138949742,-0.004575904924422503,0.00441635400056839,0.02640701457858086,-0.02717757225036621,0.01695844531059265,-0.002417385578155518,2,-0.6810804619772883,-0.107452102402689,0.7225427003487543,-0.05015382928389456,0.9949976801872253,0.08695987612009048,-0.04916689917445183,43.31939697265625,36.79284286499023,-1.3228759765625,2,103220.728560875,4,2,1582550332.887058,0,0,0,0,0,0,0,0,0,103218.272511,0,-2.901276,99.13154
1582550333.389341,111,0,1582550332.262191,41.20729459376808,29.07241239401643,161.2788,-1,-1,14.80326175689697,65,-9999,103221.229742875,0.962005615234375,0.0938568115234375,-0.0607452392578125,103221.224676875,-2.920086958079864,1.521811724523919,-0.08694175921651891,-0.0005113884108141065,0.03997701033949852,0.01443131174892187,-0.03021383285522461,0.01144039630889893,-0.001202106475830078,2,-0.6812268616482843,-0.1074240444665943,0.7224067654094435,-0.05018551561894635,0.9950280785560608,0.08683227002620697,-0.04878007620573044,43.26495361328125,37.01755142211914,-1.310333251953125,2,103220.728560875,4,2,1582550332.887058,0,0,0,0,0,0,0,0,0,103218.272511,0,-2.901276,99.13154
1582550333.399364,112,0,1582550332.262191,41.20729459376808,29.07241239401643,161.2788,-1,-1,14.80326175689697,65,-9999,103221.239782875,0.9749298095703125,0.0839385986328125,-0.0530548095703125,103221.234716875,-2.920066601609685,1.522428088019996,-0.08703705026954311,-0.003314288100227714,0.06102291867136955,-0.009176472201943398,-0.0332874059677124,0.008369952440261841,-0.0114290714263916,2,-0.6814431429669823,-0.1074805240001948,0.7221983111095458,-0.05012692945562913,0.9950495362281799,0.08692719787359238,-0.04816636070609093,43.26495361328125,37.01755142211914,-1.310333251953125,2,103220.728560875,4,2,1582550332.887058,0,0,0,0,0,0,0,0,0,103218.272511,0,-2.901276,99.13154
1582550333.409488,113,0,1582550332.262191,41.20729459376808,29.07241239401643,161.2788,-1,-1,14.80326175689697,65,-9999,103221.249823875,0.9722442626953125,0.0934600830078125,-0.053985595703125,103221.244787875,-2.920033717545918,1.523213590857547,-0.08732025247778719,-0.00485173100605607,0.07691533863544464,-0.02796427346765995,-0.02318370342254639,-0.002578139305114746,-0.008198976516723633,2,-0.6817094156965311,-0.1076126990656034,0.7219361670404231,-0.04999906822032768,0.9950624108314514,0.08720932900905609,-0.04738355800509453,43.296875,36.88769149780273,-1.319061279296875,2,103220.728560875,4,2,1582550332.887058,0,0,0,0,0,0,0,0,0,103218.272511,0,-2.901276,99.13154
1582550333.427321,114,0,1582550332.262191,41.20729459376808,29.07241239401643,161.2788,-1,-1,14.80326175689697,65,-9999,103221.259863875,0.974365234375,0.0995330810546875,-0.048919677734375,103221.254827875,-2.920010549066655,1.524238334447479,-0.08769220618585326,-0.004702307749539614,0.1056555360555649,-0.03550876304507256,-0.02075755596160889,0.003047972917556763,-0.00639718770980835,2,-0.6820575370534432,-0.107779160905361,0.7215945344609906,-0.04982413128263219,0.9950779676437378,0.08757986128330231,-0.04636233672499657,43.296875,36.88769149780273,-1.319061279296875,2,103220.728560875,4,2,1582550332.887058,0,0,0,0,0,0,0,0,0,103218.272511,0,-2.901276,99.13154
1582550333.429531,115,0,1582550332.262191,41.20729459376808,29.07241239401643,161.2788,-1,-1,14.80326175689697,65,-9999,103221.269903875,0.9810791015625,0.097900390625,-0.03887939453125,103221.264868875,-2.92001283111466,1.525153912285656,-0.08812637342703884,-0.002840491943061352,0.08949653804302216,-0.04287666082382202,-0.02329462766647339,0.01143506169319153,-0.006501317024230957,2,-0.6823640366264955,-0.1079563113653348,0.7212920711050967,-0.0496243281931788,0.9950820803642273,0.08801235258579254,-0.04544951394200325,43.45793151855469,36.80434036254883,-1.23919677734375,2,103220.728560875,4,2,1582550332.887058,0,0,0,0,0,0,0,0,0,103218.272511,0,-2.901276,99.13154
1582550333.439552,116,0,1582550332.262191,41.20729459376808,29.07241239401643,161.2788,-1,-1,14.80326175689697,65,-9999,103221.279943875,0.972991943359375,0.1029510498046875,-0.046356201171875,103221.274908875,-2.920036729047047,1.526066196580375,-0.08853427399384688,-0.0004187775775790215,0.08986702561378479,-0.03952642530202866,-0.0137937068939209,0.009151846170425415,0.00537562370300293,2,-0.6826718058418569,-0.1081164391668563,0.7209903513737042,-0.04942577018507432,0.9950870275497437,0.08841866254806519,-0.04454008117318153,43.45793151855469,36.80434036254883,-1.23919677734375,2,103220.728560875,4,2,1582550332.887058,0,0,0,0,0,0,0,0,0,103218.272511,0,-2.901276,99.13154
1582550333.449663,117,0,1582550332.262191,41.20729459376808,29.07241239401643,161.2788,-1,-1,14.80326175689697,65,-9999,103221.289984875,0.97509765625,0.0995635986328125,-0.04779052734375,103221.284948875,-2.920065998564503,1.527202971128506,-0.08893999173767959,-0.0002190405502915382,0.1167146265506744,-0.03932002931833267,-0.02073502540588379,0.0129590630531311,-0.001219570636749268,2,-0.6830607111159603,-0.1082793326857451,0.7206120495022015,-0.04921378277318822,0.9951012134552002,0.08882278203964233,-0.04340730234980583,43.37356567382812,36.83015823364258,-1.0372314453125,2,103220.728560875,4,2,1582550332.887058,0,0,0,0,0,0,0,0,0,103218.272511,0,-2.901276,99.13154
1582550333.459681,118,0,1582550332.262191,41.20729459376808,29.07241239401643,161.2788,-1,-1,14.80326175689697,65,-9999,103221.300024875,0.988128662109375,0.090850830078125,-0.031585693359375,103221.294989875,-2.92009856747039,1.528194787478797,-0.08944733963729684,0.001247011590749025,0.09932847321033478,-0.05023190379142761,-0.02234983444213867,0.01246896386146545,-0.007045626640319824,2,-0.6833917526779987,-0.1084735723549475,0.720285193882226,-0.04897315780140116,0.9950985312461853,0.0893281102180481,-0.04241839423775673,43.37356567382812,36.83015823364258,-1.0372314453125,2,103220.728560875,4,2,1582550332.887058,0,0,0,0,0,0,0,0,0,103218.272511,0,-2.901276,99.13154
1582550333.469677,119,0,1582550332.262191,41.20729459376808,29.07241239401643,161.2788,-1,-1,14.80326175689697,65,-9999,103221.310095875,0.9871063232421875,0.0960235595703125,-0.02984619140625,103221.305029875,-2.920129191947495,1.528812727007012,-0.08998570594740844,0.001703477464616299,0.0616878867149353,-0.05385593324899673,-0.008655786514282227,0.00138893723487854,0.007107913494110107,2,-0.6835861741271229,-0.1086702208377722,0.7200866967827697,-0.04874268253044944,0.9950763583183289,0.08986431360244751,-0.04180145263671875,43.28741455078125,36.63022994995117,-1.174072265625,2,103220.728560875,4,2,1582550332.887058,0,0,0,0,0,0,0,0,0,103218.272511,0,-2.901276,99.13154
1582550333.486871,120,0,1582550332.262191,41.20729459376808,29.07241239401643,161.2788,-1,-1,14.80326175689697,65,-9999,103221.320135875,0.98126220703125,0.1039276123046875,-0.035369873046875,103221.315069875,-2.920163097497162,1.529212077166133,-0.09049809490911587,0.004137761890888214,0.04387383535504341,-0.05760278925299644,-0.007024168968200684,0.004189670085906982,0.01243054866790771,2,-0.6837034275918921,-0.1088510448458381,0.7199623326488587,-0.04853177900286848,0.9950469136238098,0.09037461876869202,-0.04140214622020721,43.28741455078125,36.63022994995117,-1.174072265625,2,103220.728560875,4,2,1582550332.887058,0,0,0,0,0,0,0,0,0,103218.272511,0,-2.901276,99.13154
1582550333.489823,121,0,1582550332.262191,41.20729459376808,29.07241239401643,161.2788,-1,-1,14.80326175689697,65,-9999,103221.330175875,0.9759368896484375,0.1034698486328125,-0.0350494384765625,103221.325109875,-2.920160201068861,1.529399282684624,-0.09083997697682183,-0.00120693608187139,0.02225988730788231,-0.0355193242430687,-0.01099890470504761,0.01182949542999268,0.006780087947845459,2,-0.6837517144611667,-0.1089784461673756,0.7199057051724388,-0.0484044969215548,0.9950236082077026,0.09071509540081024,-0.04121458157896996,43.34083557128906,36.70933151245117,-0.995635986328125,2,103220.728560875,4,2,1582550332.887058,0,0,0,0,0,0,0,0,0,103218.272511,0,-2.901276,99.13154
1582550333.499804,122,0,1582550332.262191,41.20729459376808,29.07241239401643,161.2788,-1,-1,14.80326175689697,65,-9999,103221.340216875,0.9798126220703125,0.1056976318359375,-0.0364990234375,103221.335150875,-2.920111250520077,1.529336115647016,-0.09105877193067233,-0.006044412031769753,-0.007226193323731422,-0.02225549705326557,-0.02028417587280273,0.01321378350257874,0.005530118942260742,2,-0.6837141697039083,-0.1090716568402341,0.7199309828375569,-0.04834998872693957,0.9950012564659119,0.09093298763036728,-0.04127661511301994,43.34083557128906,36.70933151245117,-0.995635986328125,2,103220.728560875,4,2,1582550332.887058,0,0,0,0,0,0,0,0,0,103218.272511,0,-2.901276,99.13154
1582550333.509921,123,0,1582550332.262191,41.20729459376808,29.07241239401643,161.2788,-1,-1,14.80326175689697,65,-9999,103221.350256875,0.970458984375,0.1118316650390625,-0.0408172607421875,103221.345190875,-2.919986939855328,1.529196899135795,-0.09110401587711221,-0.01345865242183208,-0.01463990099728107,-0.002398168668150902,-0.01478111743927002,0.01300084590911865,0.005973339080810547,2,-0.6836547686796131,-0.1091268967033024,0.7199763949082325,-0.04838665694473471,0.9949911832809448,0.09097804129123688,-0.04141495376825333,43.36793518066406,36.86407089233398,-0.88946533203125,2,103220.728560875,4,2,1582550332.887058,0,0,0,0,0,0,0,0,0,103218.272511,0,-2.901276,99.13154
1582550333.519874,124,0,1582550332.262191,41.20729459376808,29.07241239401643,161.2788,-1,-1,14.80326175689697,65,-9999,103221.360296875,0.9708099365234375,0.1054229736328125,-0.04315185546875,103221.355261875,-2.919821765360076,1.529120618643204,-0.09106032876371109,-0.01823875308036804,-0.007826025597751141,0.006473345682024956,-0.02264010906219482,0.02076530456542969,0.001288890838623047,2,-0.6836207156120274,-0.1091659474595562,0.7199976333631591,-0.04846540655587384,0.9949921369552612,0.09093453735113144,-0.04149102792143822,43.36793518066406,36.86407089233398,-0.88946533203125,2,103220.728560875,4,2,1582550332.887058,0,0,0,0,0,0,0,0,0,103218.272511,0,-2.901276,99.13154
1582550333.529979,125,0,1582550332.262191,41.20729459376808,29.07241239401643,161.2788,-1,-1,14.80326175689697,65,-9999,103221.370336875,0.9793243408203125,0.1066131591796875,-0.0374908447265625,103221.365301875,-2.919682790118657,1.529054669478988,-0.09098600844370218,-0.0133513193577528,-0.006647043861448765,0.009729325771331787,-0.02598583698272705,0.01571241021156311,-0.001895308494567871,2,-0.6835935184774948,-0.1091853467904133,0.7200151063922811,-0.04854469302659159,0.9949960708618164,0.0908605232834816,-0.04155692458152771,43.41615295410156,36.94096755981445,-1.05841064453125,2,103220.728560875,4,2,1582550332.887058,0,0,0,0,0,0,0,0,0,103218.272511,0,-2.901276,99.13154
1582550333.547415,126,0,1582550332.262191,41.20729459376808,29.07241239401643,161.2788,-1,-1,14.80326175689697,65,-9999,103221.380377875,0.9802093505859375,0.1008758544921875,-0.0402069091796875,103221.375341875,-2.919552227644393,1.528945550265352,-0.09090233489536129,-0.0136891845613718,-0.01375927962362766,0.01183062326163054,-0.01666563749313354,0.01521590352058411,0.003142178058624268,2,-0.6835517568010487,-0.1091974828820088,0.7200473391755386,-0.04862654359017538,0.9949990510940552,0.0907771959900856,-0.04166581109166145,43.41615295410156,36.94096755981445,-1.05841064453125,2,103220.728560875,4,2,1582550332.887058,0,0,0,0,0,0,0,0,0,103218.272511,0,-2.901276,99.13154
1582550333.550068,127,0,1582550332.262191,41.20729459376808,29.07241239401643,161.2788,-1,-1,14.80326175689697,65,-9999,103221.390417875,0.981231689453125,0.0909271240234375,-0.0494842529296875,103221.385382875,-2.919391091075035,1.528989980781926,-0.09092569122897133,-0.01760882511734962,0.002128073945641518,-0.001537380274385214,-0.01495647430419922,0.0125071108341217,0.002579092979431152,2,-0.6835576516846327,-0.1092619700374785,0.7200288077487508,-0.04867407789644879,0.9949988722801208,0.0908004567027092,-0.04162151739001274,43.35368347167969,36.87759780883789,-1.161895751953125,2,103220.728560875,4,2,1582550332.887058,0,0,0,0,0,0,0,0,0,103218.272511,0,-2.901276,99.13154
1582550333.560129,128,0,1582550332.262191,41.20729459376808,29.07241239401643,161.2788,-1,-1,14.80326175689697,65,-9999,103221.400457875,0.9762725830078125,0.0965423583984375,-0.0518646240234375,103221.395422875,-2.919225673301459,1.529256899151115,-0.09103655267792632,-0.01574082672595978,0.02022203430533409,-0.009524578228592873,-0.01359963417053223,0.0007695257663726807,-0.006598055362701416,2,-0.6836385293622678,-0.1093645364159033,0.7199360704847476,-0.04868076339726934,0.9949999451637268,0.09091085940599442,-0.04135552048683167,43.35368347167969,36.87759780883789,-1.161895751953125,2,103220.728560875,4,2,1582550332.887058,0,0,0,0,0,0,0,0,0,103218.272511,0,-2.901276,99.13154
1582550333.570093,129,0,1582550332.262191,41.20729459376808,29.07241239401643,161.2788,-1,-1,14.80326175689697,65,-9999,103221.410498875,0.975128173828125,0.1004180908203125,-0.0500335693359375,103221.405462875,-2.919048035585631,1.52990135973763,-0.09124573286015535,-0.0183643065392971,0.06797836720943451,-0.02225155755877495,-0.0171317458152771,0.003979206085205078,-0.01070380210876465,2,-0.6838491098020543,-0.1095155069477793,0.7197161096234701,-0.04863717600091633,0.9950075149536133,0.09111917018890381,-0.04071349650621414,43.16796875,36.85737228393555,-1.0013427734375,2,103220.728560875,4,2,1582550332.887058,0,0,0,0,0,0,0,0,0,103218.272511,0,-2.901276,99.13154
1582550333.580277,130,0,1582550332.262191,41.20729459376808,29.07241239401643,161.2788,-1,-1,14.80326175689697,65,-9999,103221.420568875,0.9754486083984375,0.10150146484375,-0.0426025390625,103221.415503875,-2.918885846149972,1.530689169646886,-0.09147684010493756,-0.01539313234388828,0.0781431645154953,-0.02296487428247929,-0.02019429206848145,0.008723348379135132,-0.01193135976791382,2,-0.6841107924945524,-0.1096724459296931,0.71944772907174,-0.04857244723650961,0.9950180053710938,0.09134931117296219,-0.03992875665426254,43.33712768554688,36.7857780456543,-0.78741455078125,2,103220.728560875,4,2,1582550332.887058,0,0,0,0,0,0,0,0,0,103218.272511,0,-2.901276,99.13154
1582550333.590244,131,0,1582550332.262191,41.20729459376808,29.07241239401643,161.2788,-1,-1,14.80326175689697,65,-9999,103221.430609875,0.9774627685546875,0.0974578857421875,-0.04833984375,103221.425543875,-2.918680278528253,1.53160932489915,-0.09170822494112711,-0.01924140006303787,0.08691854774951935,-0.02127083763480186,-0.0196908712387085,0.009759396314620972,-0.0038604736328125,2,-0.6844175256564312,-0.1098475222708598,0.7191331331100477,-0.04851589467354805,0.995033323764801,0.09157972782850266,-0.03901234641671181,43.33712768554688,36.7857780456543,-0.78741455078125,2,103220.728560875,4,2,1582550332.887058,0,0,0,0,0,0,0,0,0,103218.272511,0,-2.901276,99.13154
1582550333.613017,132,0,1582550332.262191,41.20729459376808,29.07241239401643,161.2788,-1,-1,14.80326175689697,65,-9999,103221.440649875,0.9820404052734375,0.1000823974609375,-0.0333251953125,103221.435583875,-2.918458761897092,1.53254943493136,-0.09195890281010156,-0.01934732310473919,0.0924629420042038,-0.02365121245384216,-0.01772046089172363,0.006015479564666748,-0.009618699550628662,2,-0.6847293013898056,-0.1100353605194065,0.7188114885654024,-0.0484571146091024,0.9950465559959412,0.09182935208082199,-0.0380760058760643,43.28005981445312,36.85431289672852,-0.724761962890625,2,103220.728560875,4,2,1582550332.887058,0,0,0,0,0,0,0,0,0,103218.272511,0,-2.901276,99.13154
1582550333.613921,133,0,1582550332.262191,41.20729459376808,29.07241239401643,161.2788,-1,-1,14.80326175689697,65,-9999,103221.450689875,0.985931396484375,0.099151611328125,-0.0261688232421875,103221.445623875,-2.918201401065983,1.533210542671361,-0.09216249149431766,-0.0288124643266201,0.06796319782733917,-0.01803993247449398,-0.0145987868309021,0.008254110813140869,0.0009529590606689453,2,-0.684941313048858,-0.1102119272491261,0.7185832979861181,-0.04844270770007075,0.995052695274353,0.09203207492828369,-0.0374174565076828,43.28005981445312,36.85431289672852,-0.724761962890625,2,103220.728560875,4,2,1582550332.887058,0,0,0,0,0,0,0,0,0,103218.272511,0,-2.901276,99.13154
1582550333.620391,134,0,1582550332.262191,41.20729459376808,29.07241239401643,161.2788,-1,-1,14.80326175689697,65,-9999,103221.460730875,0.9796142578125,0.1031036376953125,-0.0274658203125,103221.455664875,-2.91795546927379,1.533534070666259,-0.0923090349033848,-0.02550744637846947,0.02571022510528564,-0.01205357909202576,-0.00956195592880249,0.006368696689605713,0.009419560432434082,2,-0.685035775691156,-0.1103561204366768,0.7184697799265751,-0.04846248933734709,0.9950512647628784,0.09217799454927444,-0.03709502518177032,43.420166015625,37.08064651489258,-0.70904541015625,2,103220.728560875,4,2,1582550332.887058,0,0,0,0,0,0,0,0,0,103218.272511,0,-2.901276,99.13154
1582550333.630466,135,0,1582550332.262191,41.20729459376808,29.07241239401643,161.2788,-1,-1,14.80326175689697,65,-9999,103221.470770875,0.97918701171875,0.104461669921875,-0.02947998046875,103221.465734875,-2.917741612439472,1.533697383708173,-0.09244949617811436,-0.02107035368680954,0.01267990842461586,-0.01257955282926559,-0.01350712776184082,0.009906113147735596,0.01111805438995361,2,-0.6850747572212601,-0.1104832869663447,0.7184117938058806,-0.0484816675226632,0.9950444102287292,0.0923178568482399,-0.03693204000592232,43.420166015625,37.08064651489258,-0.70904541015625,2,103220.728560875,4,2,1582550332.887058,0,0,0,0,0,0,0,0,0,103218.272511,0,-2.901276,99.13154
1582550333.640515,136,0,1582550332.262191,41.20729459376808,29.07241239401643,161.2788,-1,-1,14.80326175689697,65,-9999,103221.480810875,0.9824981689453125,0.099456787109375,-0.03228759765625,103221.475775875,-2.917539221960695,1.533703501463125,-0.09261695233085612,-0.02113606594502926,0.0007757470011711121,-0.01579516939818859,-0.01710832118988037,0.01260799169540405,0.007555842399597168,2,-0.685056370860563,-0.1106123018476713,0.7184084171673573,-0.04849602231297701,0.9950290322303772,0.09248460084199905,-0.03692537546157837,43.42758178710938,37.07332992553711,-0.683258056640625,2,103220.728560875,4,2,1582550332.887058,0,0,0,0,0,0,0,0,0,103218.272511,0,-2.901276,99.13154
1582550333.650503,137,0,1582550332.262191,41.20729459376808,29.07241239401643,161.2788,-1,-1,14.80326175689697,65,-9999,103221.490850875,0.98431396484375,0.1027069091796875,-0.031768798828125,103221.485815875,-2.91733977981807,1.533595818280033,-0.09280579921689491,-0.0210465844720602,-0.0135051878169179,-0.01793395355343819,-0.01289081573486328,0.007125169038772583,0.004778504371643066,2,-0.6849960354134323,-0.1107451700586475,0.7184447535378489,-0.04850826445388279,0.9950077533721924,0.09267263859510422,-0.0370318777859211,43.42758178710938,37.07332992553711,-0.683258056640625,2,103220.728560875,4,2,1582550332.887058,0,0,0,0,0,0,0,0,0,103218.272511,0,-2.901276,99.13154
1582550333.6803,138,0,1582550332.262191,41.20729459376808,29.07241239401643,161.2788,-1,-1,14.80326175689697,65,-9999,103221.500891875,0.9864501953125,0.10064697265625,-0.0345001220703125,103221.495855875,-2.917136463149617,1.533463062465318,-0.09300743251150251,-0.02199132181704044,-0.0135603416711092,-0.01830650679767132,-0.0110819935798645,0.00907588005065918,0.005489706993103027,2,-0.684925733163259,-0.1108832890023576,0.7184897680459514,-0.04851885038083043,0.9949841499328613,0.09287340193986893,-0.03716327250003815,43.53762817382812,37.05330276489258,-0.55316162109375,2,103220.728560875,4,2,1582550332.887058,0,0,0,0,0,0,0,0,0,103218.272511,0,-2.901276,99.13154
1582550333.681657,139,0,1582550332.262191,41.20729459376808,29.07241239401643,161.2788,-1,-1,14.80326175689697,65,-9999,103221.510931875,0.9835205078125,0.102142333984375,-0.031890869140625,103221.505896875,-2.916941654689795,1.533218997996709,-0.09323222933646863,-0.02040727436542511,-0.0281243696808815,-0.02036726102232933,-0.00894618034362793,0.008455276489257812,0.003015756607055664,2,-0.6848145775125443,-0.1110240190780519,0.7185735399512848,-0.04852453880164642,0.9949540495872498,0.09309722483158112,-0.03740532323718071,43.53762817382812,37.05330276489258,-0.55316162109375,2,103220.728560875,4,2,1582550332.887058,0,0,0,0,0,0,0,0,0,103218.272511,0,-2.901276,99.13154
1582550333.682677,140,0,1582550332.262191,41.20729459376808,29.07241239401643,161.2788,-1,-1,14.80326175689697,65,-9999,103221.520971875,0.971527099609375,0.109710693359375,-0.03521728515625,103221.515936875,-2.916782705329521,1.532923798616894,-0.09342886625637847,-0.01722821965813637,-0.03052573651075363,-0.01882006227970123,-0.009725630283355713,0.007633894681930542,0.005704402923583984,2,-0.6846885843942576,-0.1111412247639137,0.7186751761175654,-0.04853000123530554,0.9949247241020203,0.09329300373792648,-0.03769833967089653,43.37611389160156,36.85073471069336,-0.8302001953125,2,103220.728560875,4,2,1582550332.887058,0,0,0,0,0,0,0,0,0,103218.272511,0,-2.901276,99.13154
1582550333.690716,141,0,1582550332.262191,41.20729459376808,29.07241239401643,161.2788,-1,-1,14.80326175689697,65,-9999,103221.531042875,0.9716339111328125,0.1098785400390625,-0.03350830078125,103221.525976875,-2.916692494081607,1.532622057033571,-0.0935697739104828,-0.009595599956810474,-0.03099897876381874,-0.01378136221319437,-0.02154183387756348,0.01532131433486938,0.003379702568054199,2,-0.6845671764370824,-0.111214911209097,0.7187794238946323,-0.04853043415305014,0.9949002265930176,0.09343329817056656,-0.03799805045127869,43.37611389160156,36.85073471069336,-0.8302001953125,2,103220.728560875,4,2,1582550332.887058,0,0,0,0,0,0,0,0,0,103218.272511,0,-2.901276,99.13154
1582550333.700808,142,0,1582550332.262191,41.20729459376808,29.07241239401643,161.2788,-1,-1,14.80326175689697,65,-9999,103221.541082875,0.97186279296875,0.1105804443359375,-0.03643798828125,103221.536016875,-2.916635346866872,1.532340116410418,-0.09361742066753183,-0.006769214291125536,-0.02921156026422977,-0.004189098719507456,-0.02438008785247803,0.01669293642044067,0.004239857196807861,2,-0.6844599730435053,-0.1112445777736178,0.718875576242672,-0.04855016307828652,0.9948850274085999,0.09348073601722717,-0.03827837854623795,43.47406005859375,36.92116165161133,-0.7569580078125,2,103220.728560875,4,2,1582550332.887058,0,0,0,0,0,0,0,0,0,103218.272511,0,-2.901276,99.13154
1582550333.711,143,0,1582550332.262191,41.20729459376808,29.07241239401643,161.2788,-1,-1,14.80326175689697,65,-9999,103221.551123875,0.9730377197265625,0.1115875244140625,-0.0384979248046875,103221.546057875,-2.916593301857171,1.532096663191695,-0.09352722170998445,-0.003747591748833656,-0.02476887591183186,0.009022044017910957,-0.02253282070159912,0.0165080726146698,0.002849698066711426,2,-0.6843752190544057,-0.1112209630654392,0.7189559177429645,-0.04861003757867144,0.9948841333389282,0.09339092671871185,-0.03852091357111931,43.47406005859375,36.92116165161133,-0.7569580078125,2,103220.728560875,4,2,1582550332.887058,0,0,0,0,0,0,0,0,0,103218.272511,0,-2.901276,99.13154
1582550333.73696,144,0,1582550332.262191,41.20729459376808,29.07241239401643,161.2788,-1,-1,14.80326175689697,65,-9999,103221.561163875,0.98419189453125,0.10504150390625,-0.0372314453125,103221.556097875,-2.916544321701863,1.531829500325199,-0.09330331983579951,-0.004268637858331203,-0.02682642824947834,0.02341080456972122,-0.02318429946899414,0.01854681968688965,0.0002931356430053711,2,-0.6842891075769232,-0.1111515231880222,0.7190409961972699,-0.04871990502685497,0.9948944449424744,0.09316800534725189,-0.03878751397132874,43.40237426757812,37.05740737915039,-0.723480224609375,2,103220.728560875,4,2,1582550332.887058,0,0,0,0,0,0,0,0,0,103218.272511,0,-2.901276,99.13154
1582550333.738194,145,0,1582550332.262191,41.20729459376808,29.07241239401643,161.2788,-1,-1,14.80326175689697,65,-9999,103221.571203875,0.9993896484375,0.09442138671875,-0.0335693359375,103221.566137875,-2.9164047976053,1.531406299382172,-0.09301024009894096,-0.0142349861562252,-0.03846870362758636,0.02895630337297916,-0.01342940330505371,0.01435256004333496,0.001554608345031738,2,-0.6841457410942452,-0.1110846175360974,0.7191759125543389,-0.04889496787831593,0.9949052333831787,0.09287619590759277,-0.03920962661504745,43.40237426757812,37.05740737915039,-0.723480224609375,2,103220.728560875,4,2,1582550332.887058,0,0,0,0,0,0,0,0,0,103218.272511,0,-2.901276,99.13154
1582550333.741065,146,0,1582550332.262191,41.20729459376808,29.07241239401643,161.2788,-1,-1,14.80326175689697,65,-9999,103221.581243875,1.010009765625,0.0954742431640625,-0.0220794677734375,103221.576208875,-2.916146440808653,1.530398611690705,-0.09259454349115034,-0.02410133369266987,-0.1030146777629852,0.04275444149971008,0.0008697509765625,0.003124147653579712,0.004313826560974121,2,-0.6837924279350371,-0.111000255654343,0.7195049736123607,-0.04918757712044153,0.9949037432670593,0.09246228635311127,-0.04021371901035309,43.24842834472656,37.00444412231445,-0.79266357421875,2,103220.728560875,4,2,1582550332.887058,0,0,0,0,0,0,0,0,0,103218.272511,0,-2.901276,99.13154
1582550333.75096,147,0,1582550332.262191,41.20729459376808,29.07241239401643,161.2788,-1,-1,14.80326175689697,65,-9999,103221.591284875,1.009841918945312,0.0950927734375,-0.02386474609375,103221.586248875,-2.915744068950143,1.528743140918338,-0.09209665426051282,-0.04138817638158798,-0.169022724032402,0.05562709644436836,0.01479268074035645,0.003085851669311523,0.01867341995239258,2,-0.6832024280943251,-0.110919481338778,0.7200495736013752,-0.04959623168735022,0.9948816299438477,0.09196651726961136,-0.04186262190341949,43.24842834472656,37.00444412231445,-0.79266357421875,2,103220.728560875,4,2,1582550332.887058,0,0,0,0,0,0,0,0,0,103218.272511,0,-2.901276,99.13154
1582550333.761197,148,0,1582550332.262191,41.20729459376808,29.07241239401643,161.2788,-1,-1,14.80326175689697,65,-9999,103221.601324875,1.022003173828125,0.0971221923828125,-0.0134429931640625,103221.596289875,-2.915316127396165,1.526397434958111,-0.09178790211443939,-0.03975295275449753,-0.2384300380945206,0.02681958116590977,0.01219511032104492,0.003530681133270264,0.01919305324554443,2,-0.6823511607758573,-0.1108970714027739,0.7208328335059928,-0.04998704020815237,0.994809091091156,0.0916590690612793,-0.04419746622443199,43.28538513183594,36.82463455200195,-1.000244140625,2,103220.728560875,4,2,1582550332.887058,0,0,0,0,0,0,0,0,0,103218.272511,0,-2.901276,99.13154
1582550333.77108,149,0,1582550332.262191,41.20729459376808,29.07241239401643,161.2788,-1,-1,14.80326175689697,65,-9999,103221.611364875,0.9869384765625,0.107452392578125,-0.036895751953125,103221.606329875,-2.914876328013241,1.523590736667326,-0.09154967417566329,-0.04136842489242554,-0.2887621819972992,0.02640253119170666,0.03183257579803467,0.004256188869476318,0.03381180763244629,2,-0.6813280038380339,-0.1108915150947163,0.7217732903897414,-0.05038338669193854,0.9947028756141663,0.09142184257507324,-0.04699044674634933,43.28538513183594,36.82463455200195,-1.000244140625,2,103220.728560875,4,2,1582550332.887058,0,0,0,0,0,0,0,0,0,103218.272511,0,-2.901276,99.13154
1582550333.806271,150,0,1582550332.262191,41.20729459376808,29.07241239401643,161.2788,-1,-1,14.80326175689697,65,-9999,103221.621405875,0.960601806640625,0.1094207763671875,-0.057281494140625,103221.616369875,-2.914483889141699,1.520971279320891,-0.09131523828914968,-0.03537596017122269,-0.2657628357410431,0.02469604648649693,-0.003523707389831543,0.01472842693328857,0.0180622935295105,2,-0.680373613507583,-0.1108750654943386,0.7226498368646428,-0.05075101999983067,0.9945977926254272,0.09118838608264923,-0.04959693178534508,43.21136474609375,36.79667282104492,-1.025177001953125,2,103220.728560875,4,2,1582550332.887058,0,0,0,0,0,0,0,0,0,103219.214459,0,-2.946198,99.1321
1582550333.807782,151,0,1582550332.262191,41.20729459376808,29.07241239401643,161.2788,-1,-1,14.80326175689697,65,-9999,103221.631445875,0.9547882080078125,0.1045684814453125,-0.06884765625,103221.626409875,-2.914086115591658,1.518846368520439,-0.09105232802005066,-0.03734510019421577,-0.2149846106767654,0.02646145410835743,-0.02776241302490234,0.01872852444648743,-0.002039790153503418,2,-0.6795983054033431,-0.1108620798910909,0.7233561073810402,-0.05110295035570234,0.9945139288902283,0.09092656522989273,-0.05171148478984833,43.21136474609375,36.79667282104492,-1.025177001953125,2,103220.728560875,4,2,1582550332.887058,0,0,0,0,0,0,0,0,0,103219.214459,0,-2.946198,99.1321
1582550333.808968,152,0,1582550332.262191,41.20729459376808,29.07241239401643,161.2788,-1,-1,14.80326175689697,65,-9999,103221.641516875,0.9449462890625,0.106536865234375,-0.070770263671875,103221.636450875,-2.913696192254326,1.51729594421889,-0.09075165449536605,-0.0371774286031723,-0.1600384563207626,0.03228626400232315,-0.04054093360900879,0.01512181758880615,-0.01459527015686035,2,-0.6790327876543267,-0.1108470638646004,0.7238659484753593,-0.05143322621794066,0.994459867477417,0.09062713384628296,-0.05325480177998543,43.17683410644531,36.98176193237305,-1.252960205078125,2,103220.728560875,4,2,1582550332.887058,0,0,0,0,0,0,0,0,0,103219.214459,0,-2.946198,99.1321
1582550333.811599,153,0,1582550332.262191,41.20729459376808,29.07241239401643,161.2788,-1,-1,14.80326175689697,65,-9999,103221.651556875,0.93695068359375,0.1125640869140625,-0.0738067626953125,103221.646490875,-2.913365907644255,1.51642053958907,-0.09035009710806161,-0.0304886307567358,-0.09270016103982925,0.04368592798709869,-0.04661822319030762,0.01503351330757141,-0.01657593250274658,2,-0.6787203627859457,-0.1107926558105034,0.7241454580770099,-0.05173910861041564,0.9944491386413574,0.09022722393274307,-0.05412731319665909,43.17683410644531,36.98176193237305,-1.252960205078125,2,103220.728560875,4,2,1582550332.887058,0,0,0,0,0,0,0,0,0,103219.214459,0,-2.946198,99.1321
1582550333.821445,154,0,1582550332.262191,41.20729459376808,29.07241239401643,161.2788,-1,-1,14.80326175689697,65,-9999,103221.661596875,0.93798828125,0.1117095947265625,-0.0740203857421875,103221.656530875,-2.913107830681926,1.516308090172022,-0.08987972683616624,-0.02338920347392559,-0.01180647220462561,0.04942326247692108,-0.05687785148620605,0.02204799652099609,-0.01894891262054443,2,-0.67869202638094,-0.1107086721615121,0.7241662030252383,-0.05200016547764907,0.9944853782653809,0.08975876122713089,-0.05424144491553307,43.0950927734375,36.68790817260742,-1.2801513671875,2,103220.728560875,4,2,1582550332.887058,0,0,0,0,0,0,0,0,0,103219.214459,0,-2.946198,99.1321
1582550333.83143,155,0,1582550332.262191,41.20729459376808,29.07241239401643,161.2788,-1,-1,14.80326175689697,65,-9999,103221.671637875,0.9526824951171875,0.1047515869140625,-0.0626678466796875,103221.666571875,-2.912892606821162,1.516664224226886,-0.08934210092004045,-0.02020113356411457,0.03372053429484367,0.05633683130145073,-0.05808955430984497,0.02351438999176025,-0.02126896381378174,2,-0.678839517126085,-0.1105982412739622,0.7240273789059363,-0.05224284553677849,0.9945527315139771,0.08922329545021057,-0.05388987809419632,43.0950927734375,36.68790817260742,-1.2801513671875,2,103220.728560875,4,2,1582550332.887058,0,0,0,0,0,0,0,0,0,103219.214459,0,-2.946198,99.1321
1582550333.866278,156,0,1582550332.262191,41.20729459376808,29.07241239401643,161.2788,-1,-1,14.80326175689697,65,-9999,103221.681677875,0.9658203125,0.1032257080078125,-0.05340576171875,103221.676611875,-2.912744054192608,1.517194577685621,-0.08880803794162137,-0.01131870411336422,0.04986363649368286,0.05357753485441208,-0.04530227184295654,0.01708835363388062,-0.0121198296546936,2,-0.6790535024340992,-0.1104711063376095,0.7238310765515426,-0.05245057395340552,0.9946286082267761,0.088691346347332,-0.05336495116353035,43.26091003417969,36.67585372924805,-1.277923583984375,2,103220.728560875,4,2,1582550332.887058,0,0,0,0,0,0,0,0,0,103219.214459,0,-2.946198,99.1321
1582550333.867569,157,0,1582550332.262191,41.20729459376808,29.07241239401643,161.2788,-1,-1,14.80326175689697,65,-9999,103221.691717875,0.975677490234375,0.0990753173828125,-0.04833984375,103221.686682875,-2.912613486911728,1.517724425046032,-0.08828354234738799,-0.009914153255522251,0.05030092597007751,0.05166139081120491,-0.03074371814727783,0.01536774635314941,-0.001887202262878418,2,-0.6792676786727448,-0.1103413863261886,0.7236354442227672,-0.05264858870836459,0.9947029948234558,0.0881689041852951,-0.05284039676189423,43.26091003417969,36.67585372924805,-1.277923583984375,2,103220.728560875,4,2,1582550332.887058,0,0,0,0,0,0,0,0,0,103219.214459,0,-2.946198,99.1321
1582550333.868546,158,0,1582550332.262191,41.20729459376808,29.07241239401643,161.2788,-1,-1,14.80326175689697,65,-9999,103221.701757875,0.987152099609375,0.094573974609375,-0.0433502197265625,103221.696722875,-2.912499959538651,1.518011407055694,-0.08779150701592719,-0.007515698205679655,0.02741630002856255,0.05140625312924385,-0.02160108089447021,0.01237893104553223,0.00309377908706665,2,-0.6793930233339291,-0.1102112083181626,0.7235234770447152,-0.05284276822333944,0.9947613477706909,0.08767877519130707,-0.05255721881985664,43.21630859375,36.79302597045898,-1.16497802734375,2,103221.692297875,2,0,1582550333.850794,0,0,0,0,0,0,0,0,0,103219.214459,0,-2.946198,99.1321
1582550333.871542,159,0,1582550332.262191,41.20729459376808,29.07241239401643,161.2788,-1,-1,14.80326175689697,65,-9999,103221.711798875,0.991455078125,0.09063720703125,-0.041015625,103221.706762875,-2.912413435689549,1.517956004870421,-0.08743450478368271,-0.005807546898722649,-0.00644073449075222,0.03725101798772812,-0.009636044502258301,0.008416414260864258,0.008292794227600098,2,-0.6793883498141488,-0.1101112144898753,0.7235316206532096,-0.05299969208669225,0.9947896003723145,0.0873231440782547,-0.05261398106813431,43.21630859375,36.79302597045898,-1.16497802734375,2,103221.692297875,2,0,1582550333.850794,0,0,0,0,0,0,0,0,0,103219.214459,0,-2.946198,99.1321
1582550333.8817,160,0,1582550332.262191,41.20729459376808,29.07241239401643,161.2788,-1,-1,14.80326175689697,65,-9999,103221.721838875,0.987823486328125,0.0920867919921875,-0.0449371337890625,103221.716803875,-2.912317477690862,1.517593236308956,-0.08721350858367774,-0.007984654046595097,-0.03642836585640907,0.0232594795525074,-0.003441214561462402,0.003738462924957275,0.01173675060272217,2,-0.6792642791579109,-0.1100549838477209,0.7236470576398626,-0.05313023412185613,0.9947896599769592,0.0871029868721962,-0.05297587811946869,43.13316345214844,36.42714309692383,-1.231170654296875,2,103221.692297875,2,0,1582550333.850794,0,0,0,0,0,0,0,0,0,103219.214459,0,-2.946198,99.1321
1582550333.891691,161,0,1582550332.262191,41.20729459376808,29.07241239401643,161.2788,-1,-1,14.80326175689697,65,-9999,103221.731878875,0.9860076904296875,0.091339111328125,-0.049560546875,103221.726843875,-2.91221952476295,1.517053302705007,-0.08713581839118215,-0.008185455575585365,-0.05425450205802917,0.008864827454090118,-0.006181001663208008,0.004655122756958008,0.009390354156494141,2,-0.679067885348816,-0.1100460399477495,0.7238259332619716,-0.05322204285984722,0.9947676658630371,0.08702559769153595,-0.05351335182785988,43.13316345214844,36.42714309692383,-1.231170654296875,2,103221.692297875,2,0,1582550333.850794,0,0,0,0,0,0,0,0,0,103219.214459,0,-2.946198,99.1321
1582550333.923399,162,0,1582550332.262191,41.20729459376808,29.07241239401643,161.2788,-1,-1,14.80326175689697,65,-9999,103221.741919875,0.991790771484375,0.0877685546875,-0.051116943359375,103221.736883875,-2.912103662200049,1.51640330428119,-0.08722159783790882,-0.01096342690289021,-0.0629010796546936,-0.007006989326328039,-0.00923621654510498,0.00487479567527771,0.005367398262023926,2,-0.6788213899043903,-0.1100988289014567,0.7240455921756459,-0.05327034179614853,0.9947252869606018,0.08711104840040207,-0.05415953695774078,43.3199462890625,36.80008316040039,-1.291656494140625,2,103221.692297875,2,0,1582550333.850794,0,0,0,0,0,0,0,0,0,103219.214459,0,-2.946198,99.1321
1582550333.924959,163,0,1582550332.262191,41.20729459376808,29.07241239401643,161.2788,-1,-1,14.80326175689697,65,-9999,103221.751989875,0.9895477294921875,0.091094970703125,-0.050933837890625,103221.746923875,-2.911923699710104,1.515558583459538,-0.08742661524109593,-0.02059927582740784,-0.08526018261909485,-0.01781862415373325,-0.004030108451843262,0.0008863508701324463,0.003749847412109375,2,-0.6784940377397403,-0.1102109121939226,0.7243322132315058,-0.05331170138420827,0.9946612119674683,0.08731528371572495,-0.05499879270792007,43.3199462890625,36.80008316040039,-1.291656494140625,2,103221.692297875,2,0,1582550333.850794,0,0,0,0,0,0,0,0,0,103219.214459,0,-2.946198,99.1321
1582550333.926503,164,0,1582550332.262191,41.20729459376808,29.07241239401643,161.2788,-1,-1,14.80326175689697,65,-9999,103221.762030875,0.9832916259765625,0.09716796875,-0.0539703369140625,103221.756964875,-2.911743505752348,1.514638295577994,-0.08768692815261524,-0.01938711479306221,-0.09247876703739166,-0.0229516476392746,-0.00372767448425293,0.002213925123214722,0.004877448081970215,2,-0.6781360178899961,-0.1103408837377642,0.724645615845158,-0.0533384695724719,0.9945874214172363,0.08757460117340088,-0.05591285973787308,43.20916748046875,36.65243911743164,-1.30157470703125,2,103221.692297875,2,0,1582550333.850794,0,0,0,0,0,0,0,0,0,103219.214459,0,-2.946198,99.1321
1582550333.931711,165,0,1582550332.262191,41.20729459376808,29.07241239401643,161.2788,-1,-1,14.80326175689697,65,-9999,103221.772070875,0.98419189453125,0.0941925048828125,-0.0579681396484375,103221.767004875,-2.9115396056351,1.513748110780736,-0.08802710799442452,-0.02281061001121998,-0.08891333639621735,-0.03134619444608688,-0.01069730520248413,0.008741408586502075,0.003701210021972656,2,-0.6777828921910123,-0.1105083648940299,0.7249499410891482,-0.05334495581264415,0.9945074915885925,0.08791346848011017,-0.05679650604724884,43.20916748046875,36.65243911743164,-1.30157470703125,2,103221.692297875,2,0,1582550333.850794,0,0,0,0,0,0,0,0,0,103219.214459,0,-2.946198,99.1321
1582550333.94213,166,0,1582550332.262191,41.20729459376808,29.07241239401643,161.2788,-1,-1,14.80326175689697,65,-9999,103221.782110875,0.9806365966796875,0.0977783203125,-0.0592041015625,103221.777044875,-2.911345431376508,1.512878904293708,-0.08844131151195274,-0.02087618596851826,-0.0891745314002037,-0.04172075539827347,-0.01068747043609619,0.006391018629074097,1.311302185058594e-06,2,-0.6774335178027338,-0.1106997084620104,0.7252490197570198,-0.05332157888099354,0.9944213628768921,0.08832605928182602,-0.05765880644321442,43.06533813476562,36.79269790649414,-1.451416015625,2,103221.692297875,2,0,1582550333.850794,0,0,0,0,0,0,0,0,0,103219.214459,0,-2.946198,99.1321
1582550333.951988,167,0,1582550332.262191,41.20729459376808,29.07241239401643,161.2788,-1,-1,14.80326175689697,65,-9999,103221.792150875,0.9628143310546875,0.104644775390625,-0.0632781982421875,103221.787085875,-2.911155511429291,1.512142098362609,-0.08877888679957363,-0.02098164707422256,-0.07584567368030548,-0.03276347741484642,-0.01191198825836182,0.007702618837356567,-0.0004883408546447754,2,-0.677136572099398,-0.1108656455545597,0.7255014540323803,-0.05331573098986353,0.9943488836288452,0.08866231143474579,-0.05838974192738533,43.06533813476562,36.79269790649414,-1.451416015625,2,103221.692297875,2,0,1582550333.850794,0,0,0,0,0,0,0,0,0,103219.214459,0,-2.946198,99.1321
1582550333.986725,168,0,1582550332.262191,41.20729459376808,29.07241239401643,161.2788,-1,-1,14.80326175689697,65,-9999,103221.802191875,0.956695556640625,0.106597900390625,-0.064605712890625,103221.797155875,-2.910977884830097,1.51164590301163,-0.08897715115845124,-0.01917577162384987,-0.04937461763620377,-0.01772764697670937,-0.02823799848556519,0.01463094353675842,-0.0035819411277771,2,-0.6769354205942973,-0.1109837686972348,0.7256692241924387,-0.05333981292739814,0.9943020939826965,0.08885979652404785,-0.05888208001852036,43.2349853515625,36.70498275756836,-1.359039306640625,2,103221.692297875,2,0,1582550333.850794,0,0,0,0,0,0,0,0,0,103219.214459,0,-2.946198,99.1321
1582550333.988098,169,0,1582550332.262191,41.20729459376808,29.07241239401643,161.2788,-1,-1,14.80326175689697,65,-9999,103221.812231875,0.9613189697265625,0.1051788330078125,-0.0604705810546875,103221.807196875,-2.910807154083701,1.511253690651779,-0.08902418653324998,-0.01755896583199501,-0.041725754737854,-0.002587043214589357,-0.03802222013473511,0.01771217584609985,-0.00589299201965332,2,-0.6767809367005215,-0.1110479966453706,0.7257986157258004,-0.05340747507582116,0.994274914264679,0.08890664577484131,-0.05927181243896484,43.2349853515625,36.70498275756836,-1.359039306640625,2,103221.692297875,2,0,1582550333.850794,0,0,0,0,0,0,0,0,0,103219.214459,0,-2.946198,99.1321
1582550333.989098,170,0,1582550332.262191,41.20729459376808,29.07241239401643,161.2788,-1,-1,14.80326175689697,65,-9999,103221.822271875,0.9609222412109375,0.1046142578125,-0.0605621337890625,103221.817236875,-2.910644070403735,1.510929560149867,-0.08895028842368898,-0.01519658975303173,-0.0338377058506012,0.008206626400351524,-0.03367602825164795,0.01653453707695007,-0.001328408718109131,2,-0.6766584603447485,-0.1110679525539566,0.7259021897258793,-0.0535099370067002,0.9942622184753418,0.0888330340385437,-0.05959447473287582,43.32046508789062,36.83344650268555,-1.345367431640625,2,103221.692297875,2,0,1582550333.850794,0,0,0,0,0,0,0,0,0,103219.214459,0,-2.946198,99.1321
1582550333.992274,171,0,1582550332.262191,41.20729459376808,29.07241239401643,161.2788,-1,-1,14.80326175689697,65,-9999,103221.832312875,0.960540771484375,0.104827880859375,-0.05633544921875,103221.827276875,-2.910527969892387,1.510635877818711,-0.08878725748145852,-0.01051395386457443,-0.03171702846884727,0.01594177819788456,-0.03332185745239258,0.01610192656517029,-0.0009744763374328613,2,-0.6765547171551354,-0.1110407501599626,0.7259945259575131,-0.05362412125340299,0.9942589402198792,0.08867064863443375,-0.05988733470439911,43.32046508789062,36.83344650268555,-1.345367431640625,2,103221.692297875,2,0,1582550333.850794,0,0,0,0,0,0,0,0,0,103219.214459,0,-2.946198,99.1321
1582550334.00216,172,0,1582550332.262191,41.20729459376808,29.07241239401643,161.2788,-1,-1,14.80326175689697,65,-9999,103221.842352875,0.9592132568359375,0.104339599609375,-0.059326171875,103221.837316875,-2.910491020421547,1.510388997387521,-0.08853626566667271,-0.001306341961026192,-0.02574474364519119,0.02534068375825882,-0.03357338905334473,0.01616886258125305,0.002949714660644531,2,-0.6764773577440625,-0.110956381563721,0.7260711065939449,-0.05373705522681405,0.9942662715911865,0.08842064440250397,-0.06013413146138191,43.11186218261719,37.00355911254883,-1.2408447265625,2,103221.692297875,2,0,1582550333.850794,0,0,0,0,0,0,0,0,0,103219.214459,0,-2.946198,99.1321
1582550334.012265,173,0,1582550332.262191,41.20729459376808,29.07241239401643,161.2788,-1,-1,14.80326175689697,65,-9999,103221.852392875,0.958526611328125,0.1033172607421875,-0.064453125,103221.847357875,-2.910480531310804,1.510267670544989,-0.08819713130483892,0.0009602743666619062,-0.01274878345429897,0.03432752192020416,-0.0347861647605896,0.01653718948364258,0.002293944358825684,2,-0.6764520477350728,-0.1108347346137526,0.7261039463485435,-0.05386356988366636,0.9942889213562012,0.08808283507823944,-0.06025657802820206,43.11186218261719,37.00355911254883,-1.2408447265625,2,103221.692297875,2,0,1582550333.850794,0,0,0,0,0,0,0,0,0,103219.214459,0,-2.946198,99.1321
1582550334.046618,174,0,1582550332.262191,41.20729459376808,29.07241239401643,161.2788,-1,-1,14.80326175689697,65,-9999,103221.862463875,0.9610748291015625,0.1052398681640625,-0.064849853515625,103221.857397875,-2.910503701850979,1.510312065320744,-0.08772285665326411,0.005696620792150497,0.005957517772912979,0.04667440429329872,-0.03583765029907227,0.01557528972625732,-0.003912448883056641,2,-0.6764964391860648,-0.1106575510398607,0.7260782996481074,-0.05401484603617224,0.9943330883979797,0.0876103937625885,-0.06021494790911674,43.25502014160156,36.71677017211914,-1.147857666015625,2,103221.692297875,2,0,1582550333.850794,0,0,0,0,0,0,0,0,0,103219.214459,0,-2.946198,99.1321
1582550334.047934,175,0,1582550332.262191,41.20729459376808,29.07241239401643,161.2788,-1,-1,14.80326175689697,65,-9999,103221.872503875,0.97119140625,0.1031494140625,-0.0607452392578125,103221.867437875,-2.910537782590309,1.510447954439873,-0.08711626917237794,0.007363493554294109,0.01520427875220776,0.06106266006827354,-0.03466278314590454,0.01819375157356262,-0.005127787590026855,2,-0.6765821094168097,-0.110431591111448,0.7260189340563552,-0.05420238818005157,0.9943941831588745,0.08700612187385559,-0.06008302420377731,43.18743896484375,36.78517532348633,-1.3631591796875,2,103221.692297875,2,0,1582550333.850794,0,0,0,0,0,0,0,0,0,103219.214459,0,-2.946198,99.1321
