loggingTime,loggingSample,identifierForVendor,locationTimestamp_since1970,locationLatitude,locationLongitude,locationAltitude,locationSpeed,locationCourse,locationVerticalAccuracy,locationHorizontalAccuracy,locationFloor,accelerometerTimestamp_sinceReboot,accelerometerAccelerationX,accelerometerAccelerationY,accelerometerAccelerationZ,motionTimestamp_sinceReboot,motionYaw,motionRoll,motionPitch,motionRotationRateX,motionRotationRateY,motionRotationRateZ,motionUserAccelerationX,motionUserAccelerationY,motionUserAccelerationZ,motionAttitudeReferenceFrame,motionQuaternionX,motionQuaternionY,motionQuaternionZ,motionQuaternionW,motionGravityX,motionGravityY,motionGravityZ,motionMagneticFieldX,motionMagneticFieldY,motionMagneticFieldZ,motionMagneticFieldCalibrationAccuracy,activityTimestamp_sinceReboot,activity,activityActivityConfidence,activityActivityStartDate,pedometerStartDate,pedometerNumberofSteps,pedometerAverageActivePace,pedometerCurrentPace,pedometerCurrentCadence,pedometerDistance,pedometerFloorAscended,pedometerFloorDescended,pedometerEndDate,altimeterTimestamp_sinceReboot,altimeterReset,altimeterRelativeAltitude,altimeterPressure
1580907037.777629,1,0,1580907036.99773,41.20954520397699,29.07645423593923,200.9565,-1,-1,35.96479034423828,48.00724964208526,-9999,10753.528585125,0.9761962890625,0.092559814453125,-0.14263916015625,10753.523550125,1.344826499394048,1.420143082125508,-0.09863962664913632,-0.006617209408432245,0.009323844686150551,-0.006664497312158346,-0.01789224147796631,-0.00652727484703064,0.001825094223022461,2,0.4347984203632321,-0.4860793230309072,-0.4466196051042733,-0.6125423106356875,0.9838672876358032,0.0984797477722168,-0.1493544578552246,46.63481903076172,-10.7896900177002,0.76336669921875,2,10751.5481905,2,0,1580907035.789357,1580903939.50652,2106,0.4568741,0,0,2639.329,9,7,1580906940.646764,10750.555099,0,22.06866,96.94701
1580907037.778623,2,0,1580907036.99773,41.20954520397699,29.07645423593923,200.9565,-1,-1,35.96479034423828,48.00724964208526,-9999,10753.538656125,0.9659423828125,0.093475341796875,-0.1494140625,10753.533590125,1.344917207941097,1.420235180177887,-0.09873239542105615,-0.009078769013285637,0.008399195969104767,-0.008585168980062008,-0.01145792007446289,-0.005887359380722046,0.004662394523620605,2,0.4348675927261043,-0.4860647539517918,-0.4466026505454032,-0.6125171072244906,0.9838719964027405,0.09857206791639328,-0.1492624580860138,46.80797576904297,-10.74937629699707,0.46649169921875,2,10751.5481905,2,0,1580907035.789357,1580903939.50652,2106,0.4568741,0,0,2639.329,9,7,1580906940.646764,10750.555099,0,22.06866,96.94701
1580907037.77932,3,0,1580907036.99773,41.20954520397699,29.07645423593923,200.9565,-1,-1,35.96479034423828,48.00724964208526,-9999,10753.548696125,0.9662322998046875,0.091949462890625,-0.1476593017578125,10753.543630125,1.345030703612228,1.420365953682204,-0.0988243970747731,-0.01319818571209908,0.0117187537252903,-0.007720023859292269,-0.01702260971069336,-0.005811333656311035,-0.0002744793891906738,2,0.4349507116761228,-0.4860572602886923,-0.4465844640735471,-0.6124772830684071,0.9838825464248657,0.09866362065076828,-0.1491324305534363,46.80797576904297,-10.74937629699707,0.46649169921875,2,10751.5481905,2,0,1580907035.789357,1580903939.50652,2106,0.4568741,0,0,2639.329,9,7,1580906940.646764,10750.555099,0,22.06866,96.94701
1580907037.779962,4,0,1580907036.99773,41.20954520397699,29.07645423593923,200.9565,-1,-1,35.96479034423828,48.00724964208526,-9999,10753.558736125,0.9691009521484375,0.0920562744140625,-0.1464080810546875,10753.553671125,1.345130899818202,1.420493734339635,-0.09890089853279584,-0.01089907810091972,0.01394062861800194,-0.005497882142663002,-0.02123063802719116,-0.006253868341445923,-0.002034544944763184,2,0.4350254991209277,-0.4860555798209767,-0.4465669697329245,-0.6124382155875062,0.9838940501213074,0.09873974323272705,-0.1490055769681931,46.74250030517578,-10.95424842834473,0.58734130859375,2,10751.5481905,2,0,1580907035.789357,1580903939.50652,2106,0.4568741,0,0,2639.329,9,7,1580906940.646764,10750.555099,0,22.06866,96.94701
1580907037.780578,5,0,1580907036.99773,41.20954520397699,29.07645423593923,200.9565,-1,-1,35.96479034423828,48.00724964208526,-9999,10753.568777125,0.9694976806640625,0.0934295654296875,-0.1444244384765625,10753.563741125,1.345196327174711,1.420555427512721,-0.09898330195046072,-0.008249766193330288,0.004845134913921356,-0.007894461043179035,-0.01781380176544189,-0.007480531930923462,0.0001311302185058594,2,0.4350787588151719,-0.4860397574564312,-0.446551629892273,-0.6124241041435871,0.9838951826095581,0.09882174432277679,-0.1489436626434326,46.74250030517578,-10.95424842834473,0.58734130859375,2,10751.5481905,2,0,1580907035.789357,1580903939.50652,2106,0.4568741,0,0,2639.329,9,7,1580906940.646764,10750.555099,0,22.06866,96.94701
1580907037.789067,6,0,1580907036.99773,41.20954520397699,29.07645423593923,200.9565,-1,-1,35.96479034423828,48.00724964208526,-9999,10753.578817125,0.9648590087890625,0.0925445556640625,-0.147186279296875,10753.573782125,1.345261537937258,1.420613353713338,-0.09903349499997995,-0.007358994334936142,0.005000598728656769,-0.002323510590940714,-0.01626110076904297,-0.005760520696640015,0.001675665378570557,2,0.4351218419330828,-0.4860308725552668,-0.4465456606491073,-0.6124050742447558,0.9838990569114685,0.09887169301509857,-0.1488859504461288,46.84743499755859,-10.87673759460449,0.63397216796875,2,10751.5481905,2,0,1580907035.789357,1580903939.50652,2106,0.4568741,0,0,2639.329,9,7,1580906940.646764,10750.555099,0,22.06866,96.94701
1580907037.804705,7,0,1580907036.99773,41.20954520397699,29.07645423593923,200.9565,-1,-1,35.96479034423828,48.00724964208526,-9999,10753.588857125,0.9633636474609375,0.093109130859375,-0.1475372314453125,10753.583822125,1.345336239785529,1.420710942339672,-0.09906875890571279,-0.008277696557343006,0.008873812854290009,-0.002189947757869959,-0.02027016878128052,-0.006573885679244995,0.0007395148277282715,2,0.4351718750829046,-0.4860357351431009,-0.4465379054315096,-0.6123713106397171,0.9839101433753967,0.09890678524971008,-0.1487894058227539,46.84743499755859,-10.87673759460449,0.63397216796875,2,10751.5481905,2,0,1580907035.789357,1580903939.50652,2106,0.4568741,0,0,2639.329,9,7,1580906940.646764,10750.555099,0,22.06866,96.94701
1580907037.809144,8,0,1580907036.99773,41.20954520397699,29.07645423593923,200.9565,-1,-1,35.96479034423828,48.00724964208526,-9999,10753.598898125,0.9615325927734375,0.0930938720703125,-0.148651123046875,10753.593862125,1.34542830753368,1.420900530312581,-0.09906168963193476,-0.009075580164790154,0.01930674538016319,0.002299875020980835,-0.02248120307922363,-0.006276965141296387,-0.001492023468017578,2,0.4352345460053823,-0.4860755106747856,-0.4465267288612561,-0.6123033781733142,0.9839390516281128,0.09889975190162659,-0.1486029773950577,46.68126678466797,-10.77469062805176,0.47967529296875,2,10751.5481905,2,0,1580907035.789357,1580903939.50652,2106,0.4568741,0,0,2639.329,9,7,1580906940.646764,10750.555099,0,22.06866,96.94701
1580907037.819184,9,0,1580907036.99773,41.20954520397699,29.07645423593923,200.9565,-1,-1,35.96479034423828,48.00724964208526,-9999,10753.608938125,0.965850830078125,0.094482421875,-0.14703369140625,10753.603902125,1.345515214489402,1.421124602618755,-0.09903500935490075,-0.008472672663629055,0.02210188657045364,0.004072452895343304,-0.02482116222381592,-0.006235063076019287,-0.002002596855163574,2,0.4352980794762167,-0.4861318129938259,-0.4465116675374404,-0.6122244487832661,0.9839749336242676,0.09887319803237915,-0.1483828872442245,46.68126678466797,-10.77469062805176,0.47967529296875,2,10751.5481905,2,0,1580907035.789357,1580903939.50652,2106,0.4568741,0,0,2639.329,9,7,1580906940.646764,10750.555099,0,22.06866,96.94701
1580907037.829088,10,0,1580907036.99773,41.20954520397699,29.07645423593923,200.9565,-1,-1,35.96479034423828,48.00724964208526,-9999,10753.619009125,0.967559814453125,0.0948944091796875,-0.143524169921875,10753.613943125,1.34560048006052,1.421327447092417,-0.09897185155512257,-0.007330176420509815,0.01959531754255295,0.008052547462284565,-0.02204978466033936,-0.004829347133636475,-0.001881241798400879,2,0.4353460544306832,-0.4861910219644575,-0.4465104290382362,-0.6121441440376227,0.9840110540390015,0.0988103523850441,-0.148184210062027,46.84291839599609,-10.80496406555176,0.585784912109375,2,10751.5481905,2,0,1580907035.789357,1580903939.50652,2106,0.4568741,0,0,2639.329,9,7,1580906940.646764,10750.555099,0,22.06866,96.94701
1580907037.83923,11,0,1580907036.99773,41.20954520397699,29.07645423593923,200.9565,-1,-1,35.96479034423828,48.00724964208526,-9999,10753.629049125,0.9691314697265625,0.0970916748046875,-0.141143798828125,10753.623983125,1.345641373453209,1.421464171786196,-0.09886111425921708,-0.002230945508927107,0.01499194838106632,0.0131281791254878,-0.01895284652709961,-0.004352539777755737,0.001571476459503174,2,0.4353548264499307,-0.4862515006194433,-0.4465227077313983,-0.6120809935965428,0.984042227268219,0.09870015829801559,-0.1480513066053391,46.84291839599609,-10.80496406555176,0.585784912109375,2,10751.5481905,2,0,1580907035.789357,1580903939.50652,2106,0.4568741,0,0,2639.329,9,7,1580906940.646764,10750.555099,0,22.06866,96.94701
1580907037.850371,12,0,1580907036.99773,41.20954520397699,29.07645423593923,200.9565,-1,-1,35.96479034423828,48.00724964208526,-9999,10753.639089125,0.97003173828125,0.096649169921875,-0.141845703125,10753.634023125,1.345647166414149,1.421461843219732,-0.09874786478274261,0.001521182246506214,-0.0004844814538955688,0.01127408724278212,-0.01820075511932373,-0.00225597620010376,0.004123449325561523,2,0.4353233526910513,-0.4862776510044701,-0.4465551497701457,-0.6120588686643839,0.9840528964996338,0.09858746081590652,-0.1480552554130554,46.71698760986328,-11.13613319396973,0.5712890625,2,10751.5481905,2,0,1580907035.789357,1580903939.50652,2106,0.4568741,0,0,2639.329,9,7,1580906940.646764,10750.555099,0,22.06866,96.94701
1580907037.862661,13,0,1580907036.99773,41.20954520397699,29.07645423593923,200.9565,-1,-1,35.96479034423828,48.00724964208526,-9999,10753.649130125,0.966064453125,0.09356689453125,-0.1444549560546875,10753.644094125,1.345664665549285,1.421429126693685,-0.09862286736388721,-0.0003646230325102806,-0.003478607162833214,0.01281325705349445,-0.01575148105621338,-0.001429438591003418,0.004722177982330322,2,0.4352845263772714,-0.4862949059688653,-0.4466009484528718,-0.6120394476293781,0.9840602874755859,0.09846307337284088,-0.1480892896652222,46.71698760986328,-11.13613319396973,0.5712890625,2,10751.5481905,2,0,1580907035.789357,1580903939.50652,2106,0.4568741,0,0,2639.329,9,7,1580906940.646764,10750.555099,0,22.06866,96.94701
1580907037.869955,14,0,1580907036.99773,41.20954520397699,29.07645423593923,200.9565,-1,-1,35.96479034423828,48.00724964208526,-9999,10753.659170125,0.966461181640625,0.0935516357421875,-0.146453857421875,10753.654134125,1.345681436139486,1.421414662230707,-0.09849455863320454,0.001378149725496769,-0.001917729154229164,0.0128814335912466,-0.0198206901550293,-0.004444718360900879,0.002327442169189453,2,0.435248684671327,-0.4863187038573876,-0.4466434092989645,-0.6120150275111478,0.9840705990791321,0.0983353853225708,-0.1481053978204727,46.78878021240234,-10.96757316589355,0.45684814453125,2,10751.5481905,2,0,1580907035.789357,1580903939.50652,2106,0.4568741,0,0,2639.329,9,7,1580906940.646764,10750.555099,0,22.06866,96.94701
1580907037.879388,15,0,1580907036.99773,41.20954520397699,29.07645423593923,200.9565,-1,-1,35.96479034423828,48.00724964208526,-9999,10753.669210125,0.9671173095703125,0.0928802490234375,-0.14691162109375,10753.664175125,1.345683680747719,1.421430026524019,-0.09838927371802149,0.002137702889740467,0.002173798158764839,0.009246546775102615,-0.02006208896636963,-0.004858523607254028,0.0003149509429931641,2,0.4352225551987707,-0.4863490697413435,-0.4466687982597201,-0.6119909356067458,0.9840831160545349,0.09823060780763626,-0.1480918228626251,46.78878021240234,-10.96757316589355,0.45684814453125,2,10751.5481905,2,0,1580907035.789357,1580903939.50652,2106,0.4568741,0,0,2639.329,9,7,1580906940.646764,10750.555099,0,22.06866,96.94701
1580907037.889484,16,0,1580907036.99773,41.20954520397699,29.07645423593923,200.9565,-1,-1,35.96479034423828,48.00724964208526,-9999,10753.679250125,0.9657745361328125,0.092864990234375,-0.1468048095703125,10753.674215125,1.345702502944268,1.421481335609361,-0.09825933348272904,0.0006412724032998085,0.004934696480631828,0.01245139539241791,-0.01968574523925781,-0.004957795143127441,-0.001488745212554932,2,0.4352014544747759,-0.4863929356787208,-0.4466979920489506,-0.6119496911086773,0.984103262424469,0.09810129553079605,-0.1480432152748108,46.84722137451172,-11.0927562713623,0.47161865234375,2,10751.5481905,2,0,1580907035.789357,1580903939.50652,2106,0.4568741,0,0,2639.329,9,7,1580906940.646764,10750.555099,0,22.06866,96.94701
1580907037.900236,17,0,1580907036.99773,41.20954520397699,29.07645423593923,200.9565,-1,-1,35.96479034423828,48.00724964208526,-9999,10753.689291125,0.96429443359375,0.0943450927734375,-0.1452789306640625,10753.684255125,1.34572757453035,1.42154533935707,-0.09807573115257301,0.0005738958716392517,0.005216015502810478,0.0180361196398735,-0.02047610282897949,-0.005568087100982666,-0.0006337165832519531,2,0.4351693380565723,-0.4864526668141799,-0.446740643709353,-0.6118939064845474,0.9841305017471313,0.09791857749223709,-0.1479828953742981,46.84722137451172,-11.0927562713623,0.47161865234375,2,10751.5481905,2,0,1580907035.789357,1580903939.50652,2106,0.4568741,0,0,2639.329,9,7,1580906940.646764,10750.555099,0,22.06866,96.94701
1580907037.909563,18,0,1580907036.99773,41.20954520397699,29.07645423593923,200.9565,-1,-1,35.96479034423828,48.00724964208526,-9999,10753.699361125,0.9608917236328125,0.095611572265625,-0.14593505859375,10753.694296125,1.345769052203104,1.421648723233974,-0.09781317204350891,-0.0004389043897390366,0.009897585958242416,0.02679125964641571,-0.02138662338256836,-0.003963381052017212,-0.0004572868347167969,2,0.4351274172255331,-0.4865404847552885,-0.4468007813243741,-0.6118100045353757,0.9841712117195129,0.09765727818012238,-0.1478849798440933,46.92157745361328,-10.94990348815918,0.48895263671875,2,10751.5481905,2,0,1580907035.789357,1580903939.50652,2106,0.4568741,0,0,2639.329,9,7,1580906940.646764,10750.555099,0,22.06866,96.94701
1580907037.929825,19,0,1580907036.99773,41.20954520397699,29.07645423593923,200.9565,-1,-1,35.96479034423828,48.00724964208526,-9999,10753.709402125,0.9650726318359375,0.096710205078125,-0.1447906494140625,10753.704336125,1.345806238622627,1.421755585661651,-0.09745153267117122,0.002500388771295547,0.01051347889006138,0.03706194460391998,-0.02517598867416382,-0.002183496952056885,0.0005410909652709961,2,0.4350568969403462,-0.4866548851994449,-0.4468852302866954,-0.6117074849513199,0.984221875667572,0.09729736298322678,-0.1477850377559662,46.92076873779297,-10.95069694519043,0.4271240234375,2,10751.5481905,2,0,1580907035.789357,1580903939.50652,2106,0.4568741,0,0,2639.329,9,7,1580906940.646764,10750.555099,0,22.06866,96.94701
1580907037.930744,20,0,1580907036.99773,41.20954520397699,29.07645423593923,200.9565,-1,-1,35.96479034423828,48.00724964208526,-9999,10753.719442125,0.964996337890625,0.0961761474609375,-0.1444549560546875,10753.714376125,1.345817728446458,1.421826301602862,-0.09702480797157079,0.005197638645768166,0.005826583132147789,0.04246389865875244,-0.02290821075439453,-0.0007964968681335449,-7.200241088867188e-05,2,0.4349534450514591,-0.4867799420566687,-0.4469869932112616,-0.6116071295292277,0.9842732548713684,0.09687265008687973,-0.1477215737104416,46.92076873779297,-10.95069694519043,0.4271240234375,2,10751.5481905,2,0,1580907035.789357,1580903939.50652,2106,0.4568741,0,0,2639.329,9,7,1580906940.646764,10750.555099,0,22.06866,96.94701
1580907037.939712,21,0,1580907036.99773,41.20954520397699,29.07645423593923,200.9565,-1,-1,35.96479034423828,48.00724964208526,-9999,10753.729482125,0.9683074951171875,0.094482421875,-0.1453704833984375,10753.724416125,1.345790647541373,1.421927029316971,-0.09655308529805616,0.008707418106496334,0.01186609826982021,0.04642508924007416,-0.02112209796905518,-2.065300941467285e-05,0.001742959022521973,2,0.4348343827694553,-0.4869337294619716,-0.447082431919119,-0.6114996753444817,0.9843332767486572,0.09640313684940338,-0.1476292014122009,46.86025238037109,-10.94101905822754,0.504547119140625,2,10751.5481905,2,0,1580907035.789357,1580903939.50652,2106,0.4568741,0,0,2639.329,9,7,1580906940.646764,10750.555099,0,22.06866,96.94701
1580907037.949937,22,0,1580907036.99773,41.20954520397699,29.07645423593923,200.9565,-1,-1,35.96479034423828,48.00724964208526,-9999,10753.739523125,0.978302001953125,0.08990478515625,-0.1419219970703125,10753.734487125,1.345751824130732,1.421953664954915,-0.09610471959183881,0.007104215212166309,0.001662295311689377,0.04183816164731979,-0.02064990997314453,-0.001770466566085815,-0.0007489919662475586,2,0.4347025975859898,-0.4870615603437945,-0.4471841357562134,-0.611417159246643,0.9843798279762268,0.09595684707164764,-0.1476093828678131,46.86025238037109,-10.94101905822754,0.504547119140625,2,10751.5481905,2,0,1580907035.789357,1580903939.50652,2106,0.4568741,0,0,2639.329,9,7,1580906940.646764,10750.555099,0,22.06866,96.94701
1580907037.95978,23,0,1580907036.99773,41.20954520397699,29.07645423593923,200.9565,-1,-1,35.96479034423828,48.00724964208526,-9999,10753.749563125,0.9756317138671875,0.08837890625,-0.142547607421875,10753.744527125,1.345714160996941,1.42192245587233,-0.0956906001741798,0.008772702887654305,-0.00152302160859108,0.03899474069476128,-0.01003408432006836,-0.003386706113815308,0.004094302654266357,2,0.434567879699823,-0.4871629684556972,-0.4472896670130246,-0.6113550734514414,0.9844145774841309,0.09554462879896164,-0.1476459950208664,46.82549285888672,-11.08083915710449,0.448944091796875,2,10751.5481905,2,0,1580907035.789357,1580903939.50652,2106,0.4568741,0,0,2639.329,9,7,1580906940.646764,10750.555099,0,22.06866,96.94701
1580907037.969833,24,0,1580907036.99773,41.20954520397699,29.07645423593923,200.9565,-1,-1,35.96479034423828,48.00724964208526,-9999,10753.759603125,0.972625732421875,0.08935546875,-0.1445465087890625,10753.754568125,1.345672757372898,1.421820636125249,-0.09531820097949856,0.00742594338953495,-0.008337517268955708,0.03619708865880966,-0.01080191135406494,-0.007394313812255859,0.002490997314453125,2,0.4344284503559205,-0.4872331860141724,-0.4473982224158916,-0.6113186788509345,0.9844345450401306,0.09517393261194229,-0.1477514952421188,46.82549285888672,-11.08083915710449,0.448944091796875,2,10751.5481905,2,0,1580907035.789357,1580903939.50652,2106,0.4568741,0,0,2639.329,9,7,1580906940.646764,10750.555099,0,22.06866,96.94701
1580907037.987506,25,0,1580907036.99773,41.20954520397699,29.07645423593923,200.9565,-1,-1,35.96479034423828,48.00724964208526,-9999,10753.769643125,0.9710693359375,0.0890655517578125,-0.1446990966796875,10753.764608125,1.345608940674165,1.421696319488698,-0.09498224018388128,0.01169206015765667,-0.0126420771703124,0.03106909617781639,-0.01304280757904053,-0.006021499633789062,0.002404928207397461,2,0.4342888846860957,-0.4872923725632339,-0.4474951202108755,-0.611299788324342,0.9844477772712708,0.09483949095010757,-0.1478786170482635,46.79351043701172,-11.00591087341309,0.584564208984375,2,10751.5481905,2,0,1580907035.789357,1580903939.50652,2106,0.4568741,0,0,2639.329,9,7,1580906940.646764,10750.555099,0,22.06866,96.94701
1580907037.989994,26,0,1580907036.99773,41.20954520397699,29.07645423593923,200.9565,-1,-1,35.96479034423828,48.00724964208526,-9999,10753.779714125,0.968414306640625,0.08856201171875,-0.14593505859375,10753.774648125,1.345584086614984,1.421589831594723,-0.09464016918735962,0.008562579751014709,-0.01096881367266178,0.03254741802811623,-0.01542437076568604,-0.005634397268295288,0.00100398063659668,2,0.4341610798014952,-0.4873500134239893,-0.447601623451974,-0.6112665244463177,0.9844639301300049,0.09449895471334457,-0.1479882448911667,46.79351043701172,-11.00591087341309,0.584564208984375,2,10751.5481905,2,0,1580907035.789357,1580903939.50652,2106,0.4568741,0,0,2639.329,9,7,1580906940.646764,10750.555099,0,22.06866,96.94701
1580907038.000617,27,0,1580907036.99773,41.20954520397699,29.07645423593923,200.9565,-1,-1,35.96479034423828,48.00724964208526,-9999,10753.789755125,0.9677276611328125,0.088226318359375,-0.14703369140625,10753.784689125,1.345592623959046,1.421504928506043,-0.0942836832982918,0.005605937913060188,-0.006272595375776291,0.03463693335652351,-0.01747465133666992,-0.005370169878005981,0.0006197094917297363,2,0.4340420099058696,-0.4874106181996412,-0.4477175062073018,-0.6112180139893283,0.9844847321510315,0.0941440612077713,-0.1480768471956253,46.69522857666016,-10.96759605407715,0.603485107421875,2,10751.5481905,2,0,1580907035.789357,1580903939.50652,2106,0.4568741,0,0,2639.329,9,7,1580906940.646764,10750.555099,0,22.06866,96.94701
1580907038.010001,28,0,1580907036.99773,41.20954520397699,29.07645423593923,200.9565,-1,-1,35.96479034423828,48.00724964208526,-9999,10753.799795125,0.97198486328125,0.090423583984375,-0.14569091796875,10753.794729125,1.34564960818123,1.421406921618723,-0.09386164527446292,-0.0006029549986124039,-0.009661734104156494,0.04288341104984283,-0.01980358362197876,-0.005971312522888184,-0.001230955123901367,2,0.4339130861625513,-0.4874728977556751,-0.4478683969037328,-0.611149229043913,0.984509289264679,0.09372388571500778,-0.148179218173027,46.69522857666016,-10.96759605407715,0.603485107421875,2,10751.5481905,2,0,1580907035.789357,1580903939.50652,2106,0.4568741,0,0,2639.329,9,7,1580906940.646764,10750.555099,0,22.06866,96.94701
1580907038.020221,29,0,1580907036.99773,41.20954520397699,29.07645423593923,200.9565,-1,-1,35.96479034423828,48.00724964208526,-9999,10753.809835125,0.9762115478515625,0.0894012451171875,-0.1410369873046875,10753.804769125,1.345747794011978,1.421221951790791,-0.09334911618248778,-0.0003391234204173088,-0.01657062768936157,0.05283057689666748,-0.01571905612945557,-0.003781318664550781,0.0006219148635864258,2,0.4337487168087266,-0.4875221220850827,-0.4480747842084342,-0.6110753981170458,0.9845292568206787,0.09321360290050507,-0.1483684629201889,46.76172637939453,-11.13446998596191,0.6322021484375,2,10751.5481905,2,0,1580907035.789357,1580903939.50652,2106,0.4568741,0,0,2639.329,9,7,1580906940.646764,10750.555099,0,22.06866,96.94701
1580907038.03012,30,0,1580907036.99773,41.20954520397699,29.07645423593923,200.9565,-1,-1,35.96479034423828,48.00724964208526,-9999,10753.819875125,0.974212646484375,0.0855712890625,-0.1399078369140625,10753.814840125,1.34593602760013,1.42083052511415,-0.09276525365340828,-0.01002264302223921,-0.04226480424404144,0.06225470453500748,-0.01208305358886719,-0.002496689558029175,0.003106594085693359,2,0.4335395507013216,-0.4875064085466713,-0.4483723038374918,-0.6110180792066298,0.9845247268676758,0.09263226389884949,-0.1487619131803513,46.76172637939453,-11.13446998596191,0.6322021484375,2,10751.5481905,2,0,1580907035.789357,1580903939.50652,2106,0.4568741,0,0,2639.329,9,7,1580906940.646764,10750.555099,0,22.06866,96.94701
1580907038.051932,31,0,1580907036.99773,41.20954520397699,29.07645423593923,200.9565,-1,-1,35.96479034423828,48.00724964208526,-9999,10753.829916125,0.9667205810546875,0.0811920166015625,-0.147705078125,10753.824880125,1.346208732023186,1.420389924676421,-0.09219180773048473,-0.01791492104530334,-0.04797728732228279,0.06121767312288284,-0.0106813907623291,-0.005616903305053711,0.008584737777709961,2,0.4333427611384773,-0.4874548513384966,-0.4487034212255063,-0.6109558471064143,0.9845115542411804,0.09206126630306244,-0.1492036432027817,46.88732147216797,-11.34755897521973,0.46307373046875,2,10751.5481905,2,0,1580907035.789357,1580903939.50652,2106,0.4568741,0,0,2639.329,9,7,1580906940.646764,10750.555099,0,22.06866,96.94701
1580907038.053081,32,0,1580907036.99773,41.20954520397699,29.07645423593923,200.9565,-1,-1,35.96479034423828,48.00724964208526,-9999,10753.839956125,0.96014404296875,0.0820159912109375,-0.1500091552734375,10753.834921125,1.346504435310893,1.420017832468682,-0.09169305516002955,-0.02090591751039028,-0.04018887132406235,0.05404791235923767,-0.01833111047744751,-0.009376287460327148,0.001817584037780762,2,0.433188291769512,-0.487400745967365,-0.4490067405023923,-0.6108856969093587,0.9845012426376343,0.09156462550163269,-0.1495768278837204,46.88732147216797,-11.34755897521973,0.46307373046875,2,10751.5481905,2,0,1580907035.789357,1580903939.50652,2106,0.4568741,0,0,2639.329,9,7,1580906940.646764,10750.555099,0,22.06866,96.94701
1580907038.060211,33,0,1580907036.99773,41.20954520397699,29.07645423593923,200.9565,-1,-1,35.96479034423828,48.00724964208526,-9999,10753.849996125,0.9529571533203125,0.0802459716796875,-0.1574554443359375,10753.844961125,1.346794507916961,1.419872019503874,-0.09132966469639409,-0.02185684442520142,-0.01920543797314167,0.03855337575078011,-0.02450668811798096,-0.01020365953445435,-0.002061903476715088,2,0.4331220401758045,-0.4873834394995402,-0.4492233114727471,-0.6107871555397171,0.9845121502876282,0.0912027508020401,-0.1497253626585007,46.79662322998047,-11.22917747497559,0.340789794921875,2,10751.5481905,2,0,1580907035.789357,1580903939.50652,2106,0.4568741,0,0,2639.329,9,7,1580906940.646764,10750.555099,0,22.06866,96.94701
1580907038.070273,34,0,1580907036.99773,41.20954520397699,29.07645423593923,200.9565,-1,-1,35.96479034423828,48.00724964208526,-9999,10753.860067125,0.9535064697265625,0.085205078125,-0.158782958984375,10753.855001125,1.347036204407006,1.420124773618599,-0.09104595434954499,-0.01848448440432549,0.02796020917594433,0.03041236102581024,-0.03163498640060425,-0.01024094223976135,-0.006915628910064697,2,0.4331563592240043,-0.4874785871778526,-0.449317629214763,-0.6106174546897127,0.9845754504203796,0.09092021733522415,-0.1494803875684738,46.79662322998047,-11.22917747497559,0.340789794921875,2,10751.5481905,2,0,1580907035.789357,1580903939.50652,2106,0.4568741,0,0,2639.329,9,7,1580906940.646764,10750.555099,0,22.06866,96.94701
1580907038.080137,35,0,1580907036.99773,41.20954520397699,29.07645423593923,200.9565,-1,-1,35.96479034423828,48.00724964208526,-9999,10753.870107125,0.9696807861328125,0.0904083251953125,-0.1454620361328125,10753.865041125,1.347197788001725,1.420443523532629,-0.09079665372596347,-0.01227879151701927,0.02978727594017982,0.02610045671463013,-0.03587067127227783,-0.007993102073669434,-0.01404720544815063,2,0.433195811989695,-0.4876027127509039,-0.4493640817008855,-0.6104563178020919,0.9846456050872803,0.09067194908857346,-0.1491699665784836,46.81977081298828,-11.26460456848145,0.608612060546875,2,10751.5481905,2,0,1580907035.789357,1580903939.50652,2106,0.4568741,0,0,2639.329,9,7,1580906940.646764,10750.555099,0,22.06866,96.94701
1580907038.090239,36,0,1580907036.99773,41.20954520397699,29.07645423593923,200.9565,-1,-1,35.96479034423828,48.00724964208526,-9999,10753.880148125,0.9751129150390625,0.088623046875,-0.1414642333984375,10753.875082125,1.347275612793688,1.420653045194876,-0.09057676369601367,-0.003677580505609512,0.01992426067590714,0.02215738035738468,-0.02177685499191284,-0.00105971097946167,-0.001891374588012695,2,0.4331987898745812,-0.4877043013112504,-0.4494007926395748,-0.6103460756611122,0.9846965670585632,0.09045296162366867,-0.1489666402339935,46.81977081298828,-11.26460456848145,0.608612060546875,2,10751.5481905,2,0,1580907035.789357,1580903939.50652,2106,0.4568741,0,0,2639.329,9,7,1580906940.646764,10750.555099,0,22.06866,96.94701
1580907038.107822,37,0,1580907036.99773,41.20954520397699,29.07645423593923,200.9565,-1,-1,35.96479034423828,48.00724964208526,-9999,10753.890188125,0.9733734130859375,0.0860595703125,-0.14300537109375,10753.885122125,1.347329892357042,1.420701726986334,-0.09038092200027824,-0.002682889811694622,0.002006245777010918,0.01963776350021362,-0.01299750804901123,-0.001062572002410889,0.004624307155609131,2,0.4331668294154348,-0.4877559080135842,-0.4494587463937876,-0.6102847736664407,0.9847212433815002,0.0902579203248024,-0.1489213407039642,46.62744903564453,-11.31865119934082,0.4044189453125,2,10751.5481905,2,0,1580907035.789357,1580903939.50652,2106,0.4568741,0,0,2639.329,9,7,1580906940.646764,10750.555099,0,22.06866,96.94701
1580907038.110427,38,0,1580907036.99773,41.20954520397699,29.07645423593923,200.9565,-1,-1,35.96479034423828,48.00724964208526,-9999,10753.900228125,0.965606689453125,0.08477783203125,-0.1486968994140625,10753.895193125,1.347347151888733,1.420759264423115,-0.0902162364492068,-9.775999933481216e-05,0.005517357960343361,0.01642679050564766,-0.01212054491043091,-0.003705829381942749,0.005027472972869873,2,0.433136735564093,-0.4878105306629141,-0.4494952370727037,-0.6102356198706327,0.9847445487976074,0.09009391069412231,-0.1488669067621231,46.62744903564453,-11.31865119934082,0.4044189453125,2,10751.5481905,2,0,1580907035.789357,1580903939.50652,2106,0.4568741,0,0,2639.329,9,7,1580906940.646764,10750.555099,0,22.06866,96.94701
1580907038.120344,39,0,1580907036.99773,41.20954520397699,29.07645423593923,200.9565,-1,-1,35.96479034423828,48.00724964208526,-9999,10753.910268125,0.959716796875,0.08355712890625,-0.15216064453125,10753.905233125,1.347323173343256,1.420952629178654,-0.09007966615248773,0.004687397740781307,0.01872226037085056,0.01248551718890667,-0.01922625303268433,-0.005064845085144043,-0.0005784034729003906,2,0.4331352244640744,-0.4879085205393284,-0.4494822414253947,-0.6101677878244031,0.9847853183746338,0.08995789289474487,-0.1486783027648926,46.59909820556641,-11.02898216247559,0.459259033203125,2,10751.5481905,2,0,1580907035.789357,1580903939.50652,2106,0.4568741,0,0,2639.329,9,7,1580906940.646764,10751.500961,0,22.05017,96.94725
1580907038.130501,40,0,1580907036.99773,41.20954520397699,29.07645423593923,200.9565,-1,-1,35.96479034423828,48.00724964208526,-9999,10753.920309125,0.9647979736328125,0.0842437744140625,-0.1487274169921875,10753.915273125,1.347295680765907,1.42128965567081,-0.08992933133591796,0.005117231979966164,0.03466340899467468,0.01340324245393276,-0.02673614025115967,-0.006394833326339722,-0.005395174026489258,2,0.4331611476712046,-0.488054519924626,-0.4494407419543639,-0.6100631834874198,0.9848487377166748,0.08980816602706909,-0.148348405957222,46.59909820556641,-11.02898216247559,0.459259033203125,2,10751.5481905,2,0,1580907035.789357,1580903939.50652,2106,0.4568741,0,0,2639.329,9,7,1580906940.646764,10751.500961,0,22.05017,96.94725
1580907038.140562,41,0,1580907036.99773,41.20954520397699,29.07645423593923,200.9565,-1,-1,35.96479034423828,48.00724964208526,-9999,10753.930349125,0.967437744140625,0.085205078125,-0.144500732421875,10753.925314125,1.347323953004361,1.42164354123539,-0.08970822831353924,0.0006745569407939911,0.03497884422540665,0.02144471742212772,-0.02465689182281494,-0.005655229091644287,-0.004505813121795654,2,0.4331841777980042,-0.4882110769611586,-0.4494313742822061,-0.6099284463376455,0.9849207401275635,0.08958795666694641,-0.1480028182268143,46.71302032470703,-11.40078163146973,0.49041748046875,2,10751.5481905,2,0,1580907035.789357,1580903939.50652,2106,0.4568741,0,0,2639.329,9,7,1580906940.646764,10751.500961,0,22.05017,96.94725
1580907038.150724,42,0,1580907036.99773,41.20954520397699,29.07645423593923,200.9565,-1,-1,35.96479034423828,48.00724964208526,-9999,10753.94043575,0.966705322265625,0.0879364013671875,-0.143890380859375,10753.935354125,1.347413683875557,1.421950707599251,-0.08935804652581951,-0.003094348590821028,0.02799284085631371,0.03576426953077316,-0.02026259899139404,-0.004725784063339233,0.0002310276031494141,2,0.4331747138015236,-0.4883719931215537,-0.4494851111406418,-0.609766726665014,0.9849971532821655,0.08923917263746262,-0.1477049291133881,46.71302032470703,-11.40078163146973,0.49041748046875,2,10751.5481905,2,0,1580907035.789357,1580903939.50652,2106,0.4568741,0,0,2639.329,9,7,1580906940.646764,10751.500961,0,22.05017,96.94725
1580907038.168025,43,0,1580907037.997724,41.20954277865099,29.07643835631573,202.6857,-1,-1,30.15196228027344,48.00724964208526,-9999,10753.95047575,0.9614715576171875,0.08624267578125,-0.146331787109375,10753.94540975,1.347541678676835,1.422281035033091,-0.08888180657589435,-0.004137502517551184,0.0325767993927002,0.0487852431833744,-0.02027726173400879,-0.001488447189331055,0.001742124557495117,2,0.4331436612980039,-0.4885628448057259,-0.4495789428147025,-0.6095667640539527,0.9850878715515137,0.08876482397317886,-0.147385835647583,46.64194488525391,-11.30113792419434,0.50897216796875,2,10751.5481905,2,0,1580907035.789357,1580903939.50652,2106,0.4568741,0,0,2639.329,9,7,1580906940.646764,10751.500961,0,22.05017,96.94725
1580907038.170708,44,0,1580907037.997724,41.20954277865099,29.07643835631573,202.6857,-1,-1,30.15196228027344,48.00724964208526,-9999,10753.96051575,0.9610748291015625,0.086090087890625,-0.144775390625,10753.95544975,1.347711872297873,1.422661503699964,-0.08827666592736673,-0.009276604279875755,0.03521199524402618,0.06169677898287773,-0.0246741771697998,-0.001357197761535645,-0.0009601712226867676,2,0.4330973041640591,-0.488791636279977,-0.4497089298751472,-0.6093203300922192,0.9851968288421631,0.08816205710172653,-0.1470189243555069,46.64194488525391,-11.30113792419434,0.50897216796875,2,10751.5481905,2,0,1580907035.789357,1580903939.50652,2106,0.4568741,0,0,2639.329,9,7,1580906940.646764,10751.500961,0,22.05017,96.94725
1580907038.180695,45,0,1580907037.997724,41.20954277865099,29.07643835631573,202.6857,-1,-1,30.15196228027344,48.00724964208526,-9999,10753.97055675,0.9593963623046875,0.0919952392578125,-0.1453094482421875,10753.96549075,1.347857159038537,1.423125591283842,-0.08753676192025932,-0.004711180925369263,0.04606615751981735,0.07539524883031845,-0.02662265300750732,-0.002052724361419678,-0.0004171133041381836,2,0.4330250911615668,-0.4890845034860515,-0.4498489310781016,-0.6090331753014482,0.9853291511535645,0.08742500841617584,-0.1465712338685989,46.60717010498047,-11.21882057189941,0.601043701171875,2,10751.5481905,2,0,1580907035.789357,1580903939.50652,2106,0.4568741,0,0,2639.329,9,7,1580906940.646764,10751.500961,0,22.05017,96.94725
1580907038.190792,46,0,1580907037.997724,41.20954277865099,29.07643835631573,202.6857,-1,-1,30.15196228027344,48.00724964208526,-9999,10753.98059675,0.95477294921875,0.1004486083984375,-0.142181396484375,10753.97556175,1.347873819323216,1.423620284858936,-0.08659984545019561,0.01197139266878366,0.04730719327926636,0.09054224193096161,-0.02816462516784668,0.003079086542129517,-0.001809358596801758,2,0.4328718261008025,-0.4894630873329667,-0.4499953953493836,-0.6087297465112693,0.9854821562767029,0.08649164438247681,-0.1460957378149033,46.60717010498047,-11.21882057189941,0.601043701171875,2,10751.5481905,2,0,1580907035.789357,1580903939.50652,2106,0.4568741,0,0,2639.329,9,7,1580906940.646764,10751.500961,0,22.05017,96.94725
1580907038.200826,47,0,1580907037.997724,41.20954277865099,29.07643835631573,202.6857,-1,-1,30.15196228027344,48.00724964208526,-9999,10753.99063675,0.95220947265625,0.111297607421875,-0.1427459716796875,10753.98560175,1.347746764768635,1.424236422549497,-0.08519095151428965,0.03371986746788025,0.06414254009723663,0.1362632364034653,-0.0313040018081665,0.01257345080375671,0.00101780891418457,2,0.4325753425685167,-0.4900260055611548,-0.4501970142544113,-0.6083384566800298,0.9856916069984436,0.08508794009685516,-0.1455061733722687,46.91397857666016,-11.34848594665527,0.664154052734375,2,10751.5481905,2,0,1580907035.789357,1580903939.50652,2106,0.4568741,0,0,2639.329,9,7,1580906940.646764,10751.500961,0,22.05017,96.94725
1580907038.210833,48,0,1580907037.997724,41.20954277865099,29.07643835631573,202.6857,-1,-1,30.15196228027344,48.00724964208526,-9999,10754.00067775,0.956573486328125,0.10723876953125,-0.1334381103515625,10753.99564175,1.347458950002412,1.424807681587789,-0.08327799595799122,0.05632850527763367,0.06084288656711578,0.1855045557022095,-0.03630763292312622,0.02495178580284119,-0.000484466552734375,2,0.4320845681626451,-0.4907338178890647,-0.4504931101535499,-0.6078974085103696,0.9859338998794556,0.08318176865577698,-0.1449664980173111,46.91397857666016,-11.34848594665527,0.664154052734375,2,10751.5481905,2,0,1580907035.789357,1580903939.50652,2106,0.4568741,0,0,2639.329,9,7,1580906940.646764,10751.500961,0,22.05017,96.94725
1580907038.224986,49,0,1580907037.997724,41.20954277865099,29.07643835631573,202.6857,-1,-1,30.15196228027344,48.00724964208526,-9999,10754.01071775,0.962432861328125,0.084564208984375,-0.1290740966796875,10754.00568175,1.347020003683965,1.425121332973599,-0.08117074969984639,0.07505554705858231,0.03667239099740982,0.2043707966804504,-0.03335124254226685,0.02981889247894287,0.006249547004699707,2,0.431442474193303,-0.4914429811209965,-0.4508503403983911,-0.6075156553177553,0.9861505627632141,0.08108164370059967,-0.144682377576828,46.82926177978516,-11.6446590423584,0.746917724609375,2,10751.5481905,2,0,1580907035.789357,1580903939.50652,2106,0.4568741,0,0,2639.329,9,7,1580906940.646764,10751.500961,0,22.05017,96.94725
1580907038.231009,50,0,1580907037.997724,41.20954277865099,29.07643835631573,202.6857,-1,-1,30.15196228027344,48.00724964208526,-9999,10754.02078875,0.974945068359375,0.061370849609375,-0.1286163330078125,10754.01572275,1.346459931780913,1.425060586745642,-0.07926476795049972,0.08255927264690399,5.925260484218597e-05,0.1821919977664948,-0.02917581796646118,0.01246678829193115,0.01274025440216064,2,0.4307434206837536,-0.4920141099636643,-0.4511979945620915,-0.6072911693780283,0.9862927794456482,0.07918179035186768,-0.1447644382715225,46.82926177978516,-11.6446590423584,0.746917724609375,2,10751.5481905,2,0,1580907035.789357,1580903939.50652,2106,0.4568741,0,0,2639.329,9,7,1580906940.646764,10751.500961,0,22.05017,96.94725
1580907038.240991,51,0,1580907037.997724,41.20954277865099,29.07643835631573,202.6857,-1,-1,30.15196228027344,48.00724964208526,-9999,10754.03082875,0.9799957275390625,0.0522003173828125,-0.1221160888671875,10754.02576275,1.345838260517273,1.42451155840994,-0.07768427936530693,0.08546588569879532,-0.04790002107620239,0.1442621648311615,-0.01684415340423584,-0.009559005498886108,0.01465898752212524,2,0.4300119168370913,-0.4923695425464517,-0.4515455600011073,-0.6072630881410229,0.9863356351852417,0.07760616391897202,-0.1453239768743515,46.62691497802734,-11.6213436126709,0.82879638671875,2,10751.5481905,2,0,1580907035.789357,1580903939.50652,2106,0.4568741,0,0,2639.329,9,7,1580906940.646764,10751.500961,0,22.05017,96.94725
1580907038.25106,52,0,1580907037.997724,41.20954277865099,29.07643835631573,202.6857,-1,-1,30.15196228027344,48.00724964208526,-9999,10754.04086875,0.9937896728515625,0.0739288330078125,-0.116668701171875,10754.03580275,1.345273688141963,1.423311386255497,-0.07599718343892163,0.07778666168451309,-0.1147000938653946,0.1570573151111603,-0.01109021902084351,-0.02441337704658508,0.01948094367980957,2,0.4291158569477406,-0.4925406027574863,-0.4520778856002296,-0.6073621728524881,0.9862886667251587,0.07592404633760452,-0.1465266644954681,46.62691497802734,-11.6213436126709,0.82879638671875,2,10751.5481905,2,0,1580907035.789357,1580903939.50652,2106,0.4568741,0,0,2639.329,9,7,1580906940.646764,10751.500961,0,22.05017,96.94725
1580907038.261017,53,0,1580907037.997724,41.20954277865099,29.07643835631573,202.6857,-1,-1,30.15196228027344,48.00724964208526,-9999,10754.05090875,1.005813598632812,0.0868072509765625,-0.1149444580078125,10754.04584375,1.344663128245343,1.42132071815954,-0.07385500968965492,0.09130539745092392,-0.1919139176607132,0.2044495940208435,0.001053929328918457,-0.008432209491729736,0.02898013591766357,2,0.4278970892333483,-0.4925923925952587,-0.4528843884820646,-0.607579145707463,0.9861535429954529,0.07378789037466049,-0.1485136300325394,46.37886810302734,-11.93766975402832,0.716583251953125,2,10751.5481905,2,0,1580907035.789357,1580903939.50652,2106,0.4568741,0,0,2639.329,9,7,1580906940.646764,10751.500961,0,22.05017,96.94725
1580907038.270974,54,0,1580907037.997724,41.20954277865099,29.07643835631573,202.6857,-1,-1,30.15196228027344,48.00724964208526,-9999,10754.06094975,1.00018310546875,0.0787200927734375,-0.11834716796875,10754.05591375,1.343903740891904,1.418445062104327,-0.07139405557925591,0.1096447259187698,-0.2793045043945312,0.2324564605951309,0.01568305492401123,0.014200359582901,0.03387916088104248,2,0.4263465315661903,-0.4924841644267278,-0.4539160095062279,-0.6079870192448802,0.9858989715576172,0.07133342325687408,-0.1513759642839432,46.37886810302734,-11.93766975402832,0.716583251953125,2,10751.5481905,2,0,1580907035.789357,1580903939.50652,2106,0.4568741,0,0,2639.329,9,7,1580906940.646764,10751.500961,0,22.05017,96.94725
1580907038.286026,55,0,1580907037.997724,41.20954277865099,29.07643835631573,202.6857,-1,-1,30.15196228027344,48.00724964208526,-9999,10754.07098975,1.005950927734375,0.052337646484375,-0.120941162109375,10754.06595475,1.342904320981898,1.414672345706643,-0.06905802058015534,0.1341926753520966,-0.3685680627822876,0.2212331146001816,0.01439130306243896,0.01333200931549072,0.03641152381896973,2,0.4245658644220484,-0.492121817086125,-0.4550283625526068,-0.6086946177912917,0.9854828119277954,0.0690031424164772,-0.1551198810338974,46.42937469482422,-12.29062461853027,0.534942626953125,2,10751.5481905,2,0,1580907035.789357,1580903939.50652,2106,0.4568741,0,0,2639.329,9,7,1580906940.646764,10751.500961,0,22.05017,96.94725
1580907038.291095,56,0,1580907037.997724,41.20954277865099,29.07643835631573,202.6857,-1,-1,30.15196228027344,48.00724964208526,-9999,10754.08102975,1.0047607421875,0.0140533447265625,-0.11785888671875,10754.07599475,1.341729989840345,1.409849804122818,-0.06760147798649471,0.1431249231100082,-0.4737339019775391,0.1287452578544617,0.01513063907623291,-0.005200296640396118,0.03688681125640869,2,0.4227550595572797,-0.4912584787747589,-0.4560737992732484,-0.6098688004238993,0.9848214387893677,0.06755000352859497,-0.1598865389823914,46.32540130615234,-12.18388557434082,0.06536865234375,2,10751.5481905,2,0,1580907035.789357,1580903939.50652,2106,0.4568741,0,0,2639.329,9,7,1580906940.646764,10751.500961,0,22.05017,96.94725
1580907038.301188,57,0,1580907037.997724,41.20954277865099,29.07643835631573,202.6857,-1,-1,30.15196228027344,48.00724964208526,-9999,10754.09107075,0.976287841796875,-0.0025177001953125,-0.1407012939453125,10754.08603475,1.340655558279999,1.404207819386669,-0.06747601228346004,0.1073237806558609,-0.5649311542510986,-0.01115087047219276,0.02292400598526001,-0.04197052121162415,0.04511070251464844,2,0.4211671151906409,-0.4897932339158338,-0.4569688517634208,-0.6114738135818253,0.9839119911193848,0.06742481887340546,-0.1654416918754578,46.32540130615234,-12.18388557434082,0.06536865234375,2,10751.5481905,2,0,1580907035.789357,1580903939.50652,2106,0.4568741,0,0,2639.329,9,7,1580906940.646764,10751.500961,0,22.05017,96.94725
1580907038.311619,58,0,1580907037.997724,41.20954277865099,29.07643835631573,202.6857,-1,-1,30.15196228027344,48.00724964208526,-9999,10754.10114075,0.95916748046875,0.0395660400390625,-0.189453125,10754.09607475,1.339749384969113,1.398816109939388,-0.06808386820125684,0.08018190413713455,-0.5372020602226257,-0.08040211349725723,-0.001090049743652344,-0.07210424542427063,0.0402112603187561,2,0.4198904994300576,-0.4881837381177434,-0.4576667439465688,-0.6131148541797994,0.9829652309417725,0.06803128123283386,-0.1707372069358826,46.30283355712891,-12.42355918884277,-0.359771728515625,2,10751.5481905,2,0,1580907035.789357,1580903939.50652,2106,0.4568741,0,0,2639.329,9,7,1580906940.646764,10751.500961,0,22.05017,96.94725
1580907038.321278,59,0,1580907037.997724,41.20954277865099,29.07643835631573,202.6857,-1,-1,30.15196228027344,48.00724964208526,-9999,10754.11118175,0.9462432861328125,0.07159423828125,-0.2156219482421875,10754.10611575,1.339061845515783,1.39448971365739,-0.06864511045517713,0.05532475933432579,-0.42633256316185,-0.0665278434753418,-0.02157348394393921,-0.04426896572113037,-0.003233253955841064,2,0.4188969132873321,-0.4868619939880153,-0.4582170240156688,-0.6144329353919151,0.9821794629096985,0.06859121471643448,-0.1749815493822098,46.30283355712891,-12.42355918884277,-0.359771728515625,2,10751.5481905,2,0,1580907035.789357,1580903939.50652,2106,0.4568741,0,0,2639.329,9,7,1580906940.646764,10751.500961,0,22.05017,96.94725
1580907038.333242,60,0,1580907037.997724,41.20954277865099,29.07643835631573,202.6857,-1,-1,30.15196228027344,48.00724964208526,-9999,10754.12122175,0.9271087646484375,0.076263427734375,-0.216796875,10754.11615575,1.338433425428072,1.39132885969007,-0.06907032259808148,0.05386294797062874,-0.3110682964324951,-0.05029933899641037,-0.03281086683273315,-0.004182100296020508,-0.03502404689788818,2,0.4181445282810131,-0.4859168289707848,-0.4585748757909164,-0.6154258644958616,0.9815927147865295,0.06901541352272034,-0.1780799776315689,46.42351531982422,-12.29369926452637,-0.699676513671875,2,10754.11575875,2,2,1580907038.356925,1580903939.50652,2106,0.4568741,0,0,2639.329,9,7,1580906940.646764,10751.500961,0,22.05017,96.94725
1580907038.345628,61,0,1580907037.997724,41.20954277865099,29.07643835631573,202.6857,-1,-1,30.15196228027344,48.00724964208526,-9999,10754.13126175,0.929779052734375,0.065765380859375,-0.2112884521484375,10754.12619575,1.337754409791468,1.389189071387652,-0.06961394825455818,0.05822413414716721,-0.2059497237205505,-0.06473604589700699,-0.05100530385971069,0.007588058710098267,-0.03988391160964966,2,0.4176488891032635,-0.4852657237929308,-0.4586719405205584,-0.6162033368936549,0.9811723828315735,0.06955773383378983,-0.1801731586456299,46.42351531982422,-12.29369926452637,-0.699676513671875,2,10754.11575875,2,2,1580907038.356925,1580903939.50652,2106,0.4568741,0,0,2639.329,9,7,1580906940.646764,10751.500961,0,22.05017,96.94725
1580907038.351527,62,0,1580907037.997724,41.20954277865099,29.07643835631573,202.6857,-1,-1,30.15196228027344,48.00724964208526,-9999,10754.14130275,0.95367431640625,0.0511932373046875,-0.1965789794921875,10754.13626675,1.33711251267256,1.387705849417981,-0.07041184188069301,0.04915180802345276,-0.1412394344806671,-0.09008614718914032,-0.05861568450927734,-0.0006866157054901123,-0.03384238481521606,2,0.417387995718034,-0.4847455121303538,-0.4585769024700773,-0.6168599370790262,0.9808491468429565,0.0703536719083786,-0.1816180944442749,46.21433258056641,-12.28002738952637,-0.87738037109375,2,10754.11575875,2,2,1580907038.356925,1580903939.50652,2106,0.4568741,0,0,2639.329,9,7,1580906940.646764,10751.500961,0,22.05017,96.94725
1580907038.361525,63,0,1580907037.997724,41.20954277865099,29.07643835631573,202.6857,-1,-1,30.15196228027344,48.00724964208526,-9999,10754.15134275,0.96917724609375,0.052825927734375,-0.1831512451171875,10754.14630675,1.33654663521984,1.386488702550098,-0.07148179985862449,0.03616837412118912,-0.116279162466526,-0.1163242757320404,-0.0361018180847168,-0.01700001955032349,-0.02086460590362549,2,0.4172870358379221,-0.4842236859410102,-0.458378989163124,-0.6174848773890999,0.9805528521537781,0.07142093777656555,-0.182797908782959,46.21433258056641,-12.28002738952637,-0.87738037109375,2,10754.11575875,2,2,1580907038.356925,1580903939.50652,2106,0.4568741,0,0,2639.329,9,7,1580906940.646764,10751.500961,0,22.05017,96.94725
1580907038.371597,64,0,1580907037.997724,41.20954277865099,29.07643835631573,202.6857,-1,-1,30.15196228027344,48.00724964208526,-9999,10754.16138275,0.9595947265625,0.06005859375,-0.191314697265625,10754.15634775,1.336108112182462,1.385410732543629,-0.07271370153761847,0.01919764652848244,-0.1101379096508026,-0.1296102553606033,-0.01668155193328857,-0.02212268114089966,-0.004043757915496826,2,0.4172968629051466,-0.4836776831684091,-0.4581492028577937,-0.6180764558579351,0.9802680015563965,0.07264964282512665,-0.1838384568691254,46.24390411376953,-12.08890342712402,-1.118804931640625,2,10754.11575875,2,2,1580907038.356925,1580903939.50652,2106,0.4568741,0,0,2639.329,9,7,1580906940.646764,10751.500961,0,22.05017,96.94725
1580907038.383659,65,0,1580907037.997724,41.20954277865099,29.07643835631573,202.6857,-1,-1,30.15196228027344,48.00724964208526,-9999,10754.17142275,0.945556640625,0.0700531005859375,-0.20703125,10754.16638775,1.335741347689303,1.384935538067554,-0.07393787743836444,0.01284733228385448,-0.04380326718091965,-0.1276985704898834,-0.01665794849395752,-0.01615968346595764,-0.003669619560241699,2,0.4174600885370799,-0.4833044964380113,-0.4578176568583034,-0.6185036688081955,0.9800924062728882,0.07387052476406097,-0.1842876821756363,46.24390411376953,-12.08890342712402,-1.118804931640625,2,10754.11575875,2,2,1580907038.356925,1580903939.50652,2106,0.4568741,0,0,2639.329,9,7,1580906940.646764,10751.500961,0,22.05017,96.94725
1580907038.39171,66,0,1580907037.997724,41.20954277865099,29.07643835631573,202.6857,-1,-1,30.15196228027344,48.00724964208526,-9999,10754.18149375,0.958160400390625,0.0729827880859375,-0.1956939697265625,10754.17642775,1.335472244035315,1.384989219546241,-0.07503533906068426,0.005268508568406105,0.007759528234601021,-0.112875409424305,-0.0360114574432373,-0.007872641086578369,-0.02278017997741699,2,0.4177306701067727,-0.4831056841516057,-0.4574385791481698,-0.6187567006791737,0.9800220131874084,0.07496494799852371,-0.1842199712991714,46.33968353271484,-11.7121410369873,-1.075653076171875,2,10754.11575875,2,2,1580907038.356925,1580903939.50652,2106,0.4568741,0,0,2639.329,9,7,1580906940.646764,10751.500961,0,22.05017,96.94725
1580907038.410604,67,0,1580907037.997724,41.20954277865099,29.07643835631573,202.6857,-1,-1,30.15196228027344,48.00724964208526,-9999,10754.19153375,0.9630279541015625,0.075714111328125,-0.1876678466796875,10754.18646875,1.335286308935077,1.38527790291652,-0.07598257159111912,-0.0009286999702453613,0.03093749284744263,-0.09592288732528687,-0.02844130992889404,-0.003341525793075562,-0.01833152770996094,2,0.4180307159568785,-0.4829993658132435,-0.4570749115475619,-0.618905794969175,0.9800049066543579,0.07590948045253754,-0.1839238703250885,46.33968353271484,-11.7121410369873,-1.075653076171875,2,10754.11575875,2,2,1580907038.356925,1580903939.50652,2106,0.4568741,0,0,2639.329,9,7,1580906940.646764,10751.500961,0,22.05017,96.94725
1580907038.411843,68,0,1580907037.997724,41.20954277865099,29.07643835631573,202.6857,-1,-1,30.15196228027344,48.00724964208526,-9999,10754.20157475,0.9633636474609375,0.07733154296875,-0.18145751953125,10754.19650875,1.33510968859651,1.385631851718384,-0.07683321985442848,0.00136987492442131,0.03881938382983208,-0.08639302849769592,-0.0197756290435791,-0.002421826124191284,-0.008040785789489746,2,0.4183193598290644,-0.4829351973916419,-0.4567253364655982,-0.6190188375838723,0.9800060987472534,0.07675764709711075,-0.1835650205612183,46.52454376220703,-11.69179344177246,-1.144378662109375,2,10754.11575875,2,2,1580907038.356925,1580903939.50652,2106,0.4568741,0,0,2639.329,9,7,1580906940.646764,10751.500961,0,22.05017,96.94725
1580907038.422298,69,0,1580907037.997724,41.20954277865099,29.07643835631573,202.6857,-1,-1,30.15196228027344,48.00724964208526,-9999,10754.21161475,0.9661865234375,0.0745849609375,-0.1801605224609375,10754.20654875,1.334917294628726,1.385934770135921,-0.07764423340401522,0.004580355249345303,0.0324028953909874,-0.08344069868326187,-0.01923578977584839,-0.0005620718002319336,-0.001468241214752197,2,0.418580666435214,-0.4828683986554428,-0.4563916982933705,-0.619140515582456,0.9800002574920654,0.0775662437081337,-0.183256670832634,46.52454376220703,-11.69179344177246,-1.144378662109375,2,10754.11575875,2,2,1580907038.356925,1580903939.50652,2106,0.4568741,0,0,2639.329,9,7,1580906940.646764,10751.500961,0,22.05017,96.94725
1580907038.433719,70,0,1580907037.997724,41.20954277865099,29.07643835631573,202.6857,-1,-1,30.15196228027344,48.00724964208526,-9999,10754.22165475,0.96807861328125,0.07391357421875,-0.1803131103515625,10754.21661975,1.334747912154843,1.386185729528906,-0.07842003562869115,0.00263864453881979,0.02735327742993832,-0.07915966957807541,-0.01725393533706665,-0.002451270818710327,0.0007765293121337891,2,0.4188252435739739,-0.4827893981088031,-0.4560850208305534,-0.6192627080667124,0.9799867868423462,0.07833968102931976,-0.1829996258020401,46.55904388427734,-11.72091484069824,-1.05126953125,2,10754.11575875,2,2,1580907038.356925,1580903939.50652,2106,0.4568741,0,0,2639.329,9,7,1580906940.646764,10751.500961,0,22.05017,96.94725
1580907038.441794,71,0,1580907037.997724,41.20954277865099,29.07643835631573,202.6857,-1,-1,30.15196228027344,48.00724964208526,-9999,10754.23169575,0.960052490234375,0.0772247314453125,-0.1854095458984375,10754.22665975,1.334586014848779,1.386456564130468,-0.07916204680734217,0.001090771518647671,0.0270426981151104,-0.0761864110827446,-0.01414859294891357,-0.00661081075668335,0.0004994869232177734,2,0.41906616468966,-0.4827233292513047,-0.4557851121721496,-0.6193718917444447,0.9799787402153015,0.07907938957214355,-0.1827234774827957,46.55904388427734,-11.72091484069824,-1.05126953125,2,10754.11575875,2,2,1580907038.356925,1580903939.50652,2106,0.4568741,0,0,2639.329,9,7,1580906940.646764,10751.500961,0,22.05017,96.94725
1580907038.452051,72,0,1580907037.997724,41.20954277865099,29.07643835631573,202.6857,-1,-1,30.15196228027344,48.00724964208526,-9999,10754.24173575,0.953826904296875,0.070526123046875,-0.189117431640625,10754.23669975,1.334461315879256,1.386975203458706,-0.07990286080114042,-0.0003976691514253616,0.05438217520713806,-0.07447879016399384,-0.01877838373184204,-0.003109127283096313,-0.002874195575714111,2,0.4193719829730863,-0.48272654637777,-0.4554449665406877,-0.6194126428244326,0.9800155758857727,0.07981786876916885,-0.1822044402360916,46.58889007568359,-11.65633583068848,-0.95806884765625,2,10754.11575875,2,2,1580907038.356925,1580903939.50652,2106,0.4568741,0,0,2639.329,9,7,1580906940.646764,10751.500961,0,22.05017,96.94725
1580907038.473427,73,0,1580907037.997724,41.20954277865099,29.07643835631573,202.6857,-1,-1,30.15196228027344,48.00724964208526,-9999,10754.25177575,0.968109130859375,0.0744171142578125,-0.178741455078125,10754.24674075,1.334389294120044,1.387621594335012,-0.08066515335393898,-0.00726649072021246,0.06794477999210358,-0.07756544649600983,-0.02916610240936279,-0.007456690073013306,-0.009913802146911621,2,0.4197257330068344,-0.4827529531429314,-0.4550885091030627,-0.6194144232437637,0.9800729751586914,0.08057770133018494,-0.1815597862005234,46.58889007568359,-11.65633583068848,-0.95806884765625,2,10754.11575875,2,2,1580907038.356925,1580903939.50652,2106,0.4568741,0,0,2639.329,9,7,1580906940.646764,10751.500961,0,22.05017,96.94725
1580907038.474157,74,0,1580907037.997724,41.20954277865099,29.07643835631573,202.6857,-1,-1,30.15196228027344,48.00724964208526,-9999,10754.26181575,0.9677581787109375,0.081268310546875,-0.177734375,10754.25678075,1.334337830523653,1.388192663274509,-0.08133433006872569,-0.007431606762111187,0.05388408526778221,-0.06573168933391571,-0.01923739910125732,-0.01099392771720886,-0.003679275512695312,2,0.4200396955342981,-0.4827748164390029,-0.4547782870369111,-0.6194125204639594,0.9801234006881714,0.08124468475580215,-0.1809902638196945,46.66674041748047,-11.64887809753418,-0.978546142578125,2,10754.11575875,2,2,1580907038.356925,1580903939.50652,2106,0.4568741,0,0,2639.329,9,7,1580906940.646764,10751.500961,0,22.05017,96.94725
1580907038.48311,75,0,1580907037.997724,41.20954277865099,29.07643835631573,202.6857,-1,-1,30.15196228027344,48.00724964208526,-9999,10754.27188675,0.957489013671875,0.075775146484375,-0.184326171875,10754.26682075,1.334262084024305,1.388917539366203,-0.08198406272213483,-0.002574228215962648,0.07406183332204819,-0.06627404689788818,-0.01187014579772949,-0.0006720423698425293,0.002678871154785156,2,0.4203769019928559,-0.4828542033308726,-0.4544330648352405,-0.619375233265698,0.9802021980285645,0.08189225196838379,-0.1802701503038406,46.66674041748047,-11.64887809753418,-0.978546142578125,2,10754.11575875,2,2,1580907038.356925,1580903939.50652,2106,0.4568741,0,0,2639.329,9,7,1580906940.646764,10751.500961,0,22.05017,96.94725
1580907038.492158,76,0,1580907037.997724,41.20954277865099,29.07643835631573,202.6857,-1,-1,30.15196228027344,48.00724964208526,-9999,10754.28192775,0.9522857666015625,0.078033447265625,-0.1883544921875,10754.27686175,1.334217823187944,1.389872787790823,-0.08262276469435582,-0.007297610864043236,0.09532184898853302,-0.06325108557939529,-0.02294641733169556,-0.005719929933547974,-0.006036281585693359,2,0.4207705844237173,-0.4830010150325844,-0.4540517476848711,-0.6192729740889025,0.9803221821784973,0.08252879232168198,-0.1793242692947388,46.75640106201172,-11.55158424377441,-1.10211181640625,2,10754.11575875,2,2,1580907038.356925,1580903939.50652,2106,0.4568741,0,0,2639.329,9,7,1580906940.646764,10751.500961,0,22.05017,96.94725
1580907038.502249,77,0,1580907037.997724,41.20954277865099,29.07643835631573,202.6857,-1,-1,30.15196228027344,48.00724964208526,-9999,10754.29196775,0.9566192626953125,0.07525634765625,-0.183807373046875,10754.28690175,1.334184059329755,1.391101932233157,-0.08328802960798301,-0.009677676483988762,0.1255960464477539,-0.06690852344036102,-0.02923101186752319,-0.006033539772033691,-0.01088583469390869,2,0.4212363991203258,-0.4832238008616406,-0.45360873583049,-0.6191070448286023,0.9804875254631042,0.08319176733493805,-0.1781093031167984,46.75640106201172,-11.55158424377441,-1.10211181640625,2,10754.11575875,2,2,1580907038.356925,1580903939.50652,2106,0.4568741,0,0,2639.329,9,7,1580906940.646764,10751.500961,0,22.05017,96.94725
1580907038.513566,78,0,1580907037.997724,41.20954277865099,29.07643835631573,202.6857,-1,-1,30.15196228027344,48.00724964208526,-9999,10754.30200775,0.9611968994140625,0.077972412109375,-0.1785125732421875,10754.29697275,1.334218611191939,1.392436007476351,-0.08393257915550219,-0.01572971045970917,0.1299756169319153,-0.06267276406288147,-0.02959823608398438,-0.007898122072219849,-0.0117182731628418,2,0.4217359434997764,-0.4834697566726904,-0.4531697420511343,-0.6188964984116498,0.9806714057922363,0.08383406698703766,-0.1767915785312653,46.78308868408203,-11.46427345275879,-0.796173095703125,2,10754.11575875,2,2,1580907038.356925,1580903939.50652,2106,0.4568741,0,0,2639.329,9,7,1580906940.646764,10751.500961,0,22.05017,96.94725
1580907038.528141,79,0,1580907037.997724,41.20954277865099,29.07643835631573,202.6857,-1,-1,30.15196228027344,48.00724964208526,-9999,10754.31204775,0.953033447265625,0.082000732421875,-0.1835174560546875,10754.30701275,1.334262609323757,1.394021029915873,-0.08448349616748306,-0.01336295902729034,0.1590011417865753,-0.05264836177229881,-0.02067673206329346,-0.008112728595733643,-0.004877030849456787,2,0.4222667255428061,-0.4838144158496754,-0.4527047133092423,-0.6186056509520642,0.9809049367904663,0.0843830332159996,-0.1752288490533829,46.78308868408203,-11.46427345275879,-0.796173095703125,2,10754.11575875,2,2,1580907038.356925,1580903939.50652,2106,0.4568741,0,0,2639.329,9,7,1580906940.646764,10751.500961,0,22.05017,96.94725
1580907038.533422,80,0,1580907037.997724,41.20954277865099,29.07643835631573,202.6857,-1,-1,30.15196228027344,48.00724964208526,-9999,10754.32208875,0.9694061279296875,0.082000732421875,-0.1737823486328125,10754.31705275,1.334320471080868,1.395752146998632,-0.08495700352654069,-0.01274963282048702,0.1737824827432632,-0.04469509795308113,-0.03014087677001953,-0.003977566957473755,-0.01172900199890137,2,0.4228108905061158,-0.4842201955815488,-0.4522327271754939,-0.618261369827212,0.9811671376228333,0.0848548412322998,-0.1735235005617142,46.77603912353516,-11.25853538513184,-0.6751708984375,2,10754.11575875,2,2,1580907038.356925,1580903939.50652,2106,0.4568741,0,0,2639.329,9,7,1580906940.646764,10751.500961,0,22.05017,96.94725
1580907038.542404,81,0,1580907037.997724,41.20954277865099,29.07643835631573,202.6857,-1,-1,30.15196228027344,48.00724964208526,-9999,10754.33212875,0.9718170166015625,0.080596923828125,-0.173370361328125,10754.32709375,1.334406205243393,1.397530825962462,-0.08538918194914003,-0.01517311297357082,0.1747122406959534,-0.04021069779992104,-0.02018910646438599,-0.003264784812927246,-0.007427334785461426,2,0.4233598574188089,-0.4846447864621629,-0.4517695673430804,-0.6178915821386749,0.9814380407333374,0.08528545498847961,-0.1717717200517654,46.77603912353516,-11.25853538513184,-0.6751708984375,2,10754.11575875,2,2,1580907038.356925,1580903939.50652,2106,0.4568741,0,0,2639.329,9,7,1580906940.646764,10751.500961,0,22.05017,96.94725
1580907038.552488,82,0,1580907037.997724,41.20954277865099,29.07643835631573,202.6857,-1,-1,30.15196228027344,48.00724964208526,-9999,10754.34216875,0.9727020263671875,0.0775146484375,-0.1778564453125,10754.33713375,1.334508747037762,1.399577874009381,-0.08584146342401908,-0.01704052090644836,0.2044901102781296,-0.0418514721095562,-0.01090383529663086,-0.004799962043762207,-0.003756880760192871,2,0.4239787977230992,-0.4851433916470525,-0.4512487929452468,-0.6174563689248708,0.9817495942115784,0.08573608100414276,-0.1697557419538498,46.78589630126953,-11.22880363464355,-0.774627685546875,2,10754.11575875,2,2,1580907038.356925,1580903939.50652,2106,0.4568741,0,0,2639.329,9,7,1580906940.646764,10751.500961,0,22.05017,96.94725
1580907038.56249,83,0,1580907037.997724,41.20954277865099,29.07643835631573,202.6857,-1,-1,30.15196228027344,48.00724964208526,-9999,10754.35223975,0.975860595703125,0.0749359130859375,-0.17413330078125,10754.34717375,1.334606216902345,1.401862065377229,-0.0864085197152463,-0.01982751861214638,0.2266452610492706,-0.05435426533222198,-0.01368308067321777,-0.007975578308105469,-0.01240700483322144,2,0.4246827668557495,-0.4856874078995341,-0.4506450527029743,-0.6169855814536267,0.9820866584777832,0.0863010361790657,-0.1675045788288116,46.78589630126953,-11.22880363464355,-0.774627685546875,2,10754.11575875,2,2,1580907038.356925,1580903939.50652,2106,0.4568741,0,0,2639.329,9,7,1580906940.646764,10751.500961,0,22.05017,96.94725
1580907038.572466,84,0,1580907037.997724,41.20954277865099,29.07643835631573,202.6857,-1,-1,30.15196228027344,48.00724964208526,-9999,10754.36227975,0.9800872802734375,0.0757904052734375,-0.172882080078125,10754.35721375,1.334702085601568,1.404383659984515,-0.08712860103587143,-0.02169892191886902,0.249947652220726,-0.06885571032762527,-0.008716464042663574,-0.01170060038566589,-0.0121537446975708,2,0.4254833507363879,-0.4862666648315742,-0.4499489482332204,-0.6164856425717102,0.9824444055557251,0.08701840788125992,-0.1650172919034958,46.54935455322266,-11.2205638885498,-0.49847412109375,2,10754.11575875,2,2,1580907038.356925,1580903939.50652,2106,0.4568741,0,0,2639.329,9,7,1580906940.646764,10751.500961,0,22.05017,96.94725
1580907038.590545,85,0,1580907037.997724,41.20954277865099,29.07643835631573,202.6857,-1,-1,30.15196228027344,48.00724964208526,-9999,10754.37232075,0.99029541015625,0.0756378173828125,-0.1668548583984375,10754.36725475,1.334728895977721,1.407117983176309,-0.08810675158665583,-0.01932524517178535,0.2726562321186066,-0.09626515209674835,-0.007905483245849609,-0.01307415962219238,-0.01333528757095337,2,0.4263886871546211,-0.4868618635164136,-0.4491167017507592,-0.6159971029250657,0.9828075766563416,0.08799280226230621,-0.1623164266347885,46.54935455322266,-11.2205638885498,-0.49847412109375,2,10754.36188375,1,2,1580907038.60305,1580903939.50652,2106,0.4568741,0,0,2639.329,9,7,1580906940.646764,10751.500961,0,22.05017,96.94725
1580907038.592682,86,0,1580907037.997724,41.20954277865099,29.07643835631573,202.6857,-1,-1,30.15196228027344,48.00724964208526,-9999,10754.38236075,0.987762451171875,0.081512451171875,-0.166412353515625,10754.37729475,1.334699632752751,1.410056892013744,-0.08927163889429028,-0.014621302485466,0.2950699329376221,-0.1160582974553108,0.002937912940979004,-0.01326075196266174,-0.01106023788452148,2,0.4273788057723515,-0.4874853314534093,-0.4481722767652838,-0.6155054097864123,0.9831783771514893,0.08915311098098755,-0.1594108194112778,46.57225799560547,-11.18138313293457,-0.1177978515625,2,10754.36188375,1,2,1580907038.60305,1580903939.50652,2106,0.4568741,0,0,2639.329,9,7,1580906940.646764,10751.500961,0,22.05017,96.94725
1580907038.602683,87,0,1580907037.997724,41.20954277865099,29.07643835631573,202.6857,-1,-1,30.15196228027344,48.00724964208526,-9999,10754.39240075,0.98486328125,0.086090087890625,-0.1712799072265625,10754.38736575,1.334655999954038,1.413345267260889,-0.09054377892368318,-0.01690522953867912,0.3252794742584229,-0.1238684579730034,0.003324210643768311,-0.01234886050224304,-0.01190906763076782,2,0.4284725377469257,-0.4881923652571818,-0.4471180461332958,-0.6149511351896711,0.9835845232009888,0.09042011201381683,-0.1561589986085892,46.57225799560547,-11.18138313293457,-0.1177978515625,2,10754.36188375,1,2,1580907038.60305,1580903939.50652,2106,0.4568741,0,0,2639.329,9,7,1580906940.646764,10751.500961,0,22.05017,96.94725
1580907038.612719,88,0,1580907037.997724,41.20954277865099,29.07643835631573,202.6857,-1,-1,30.15196228027344,48.00724964208526,-9999,10754.40244075,1.001907348632812,0.0807952880859375,-0.1638031005859375,10754.39740575,1.334496508976665,1.417063250413813,-0.0920715493617808,-0.006985221989452839,0.3758140206336975,-0.1521256566047668,-0.00153803825378418,-0.00554269552230835,-0.01939678192138672,2,0.429705060607919,-0.4889925702756251,-0.445865349509033,-0.6143646596595733,0.9840207099914551,0.09194152057170868,-0.1524796485900879,46.66785430908203,-11.0535945892334,0.215179443359375,2,10754.36188375,1,2,1580907038.60305,1580903939.50652,2106,0.4568741,0,0,2639.329,9,7,1580906940.646764,10751.500961,0,22.05017,96.94725
1580907038.622612,89,0,1580907037.997724,41.20954277865099,29.07643835631573,202.6857,-1,-1,30.15196228027344,48.00724964208526,-9999,10754.41248175,1.031982421875,0.0811309814453125,-0.146759033203125,10754.40744575,1.334190309153431,1.420906014517727,-0.09396455952687843,0.000449243001639843,0.3860488533973694,-0.1923081129789352,0.00675356388092041,-0.01188772916793823,-0.02147555351257324,2,0.4310312501340249,-0.4897719948811904,-0.4444398920283191,-0.61384733855175,0.98442542552948,0.09382634609937668,-0.1486709117889404,46.66785430908203,-11.0535945892334,0.215179443359375,2,10754.36188375,1,2,1580907038.60305,1580903939.50652,2106,0.4568741,0,0,2639.329,9,7,1580906940.646764,10751.500961,0,22.05017,96.94725
1580907038.633552,90,0,1580907037.997724,41.20954277865099,29.07643835631573,202.6857,-1,-1,30.15196228027344,48.00724964208526,-9999,10754.42252175,1.042068481445312,0.0919189453125,-0.1286773681640625,10754.41748675,1.333528414040104,1.424755064037574,-0.09613033495169407,0.02838766574859619,0.3877727389335632,-0.2241198420524597,0.03709179162979126,-0.01591053605079651,-0.008672833442687988,2,0.4323457461635684,-0.4905626836540605,-0.4428270263174174,-0.6134571457037232,0.9847871065139771,0.09598234295845032,-0.1448508203029633,46.74300384521484,-10.85975456237793,0.465576171875,2,10754.36188375,1,2,1580907038.60305,1580903939.50652,2106,0.4568741,0,0,2639.329,9,7,1580906940.646764,10751.500961,0,22.05017,96.94725
1580907038.647642,91,0,1580907037.997724,41.20954277865099,29.07643835631573,202.6857,-1,-1,30.15196228027344,48.00724964208526,-9999,10754.43259275,1.029556274414062,0.0866851806640625,-0.096710205078125,10754.42752675,1.331704376888731,1.428957719680141,-0.09840166846089955,0.1306677013635635,0.4223312437534332,-0.2532332241535187,0.0540279746055603,-0.01121869683265686,0.003182888031005859,2,0.4334780644597821,-0.4916878485136078,-0.4407485926085778,-0.6132540967182404,0.9851688742637634,0.09824294596910477,-0.140679657459259,46.74300384521484,-10.85975456237793,0.465576171875,2,10754.36188375,1,2,1580907038.60305,1580903939.50652,2106,0.4568741,0,0,2639.329,9,7,1580906940.646764,10751.500961,0,22.05017,96.94725
1580907038.652972,92,0,1580907037.997724,41.20954277865099,29.07643835631573,202.6857,-1,-1,30.15196228027344,48.00724964208526,-9999,10754.44263275,0.9702911376953125,0.005859375,0.0307769775390625,10754.43756675,1.326526627843294,1.435044450563203,-0.1000588379584297,0.4625159800052643,0.6390630006790161,-0.2438317090272903,0.04907846450805664,-0.005303382873535156,0.0216982364654541,2,0.4340129184534411,-0.4942707609846715,-0.4373942462859386,-0.6132010267212088,0.9858441948890686,0.09989196062088013,-0.1346583962440491,46.86185455322266,-10.54870796203613,0.8133544921875,2,10754.36188375,1,2,1580907038.60305,1580903939.50652,2106,0.4568741,0,0,2639.329,9,7,1580906940.646764,10751.500961,0,22.05017,96.94725
1580907038.662999,93,0,1580907037.997724,41.20954277865099,29.07643835631573,202.6857,-1,-1,30.15196228027344,48.00724964208526,-9999,10754.45267275,0.863037109375,-0.1722869873046875,0.2844085693359375,10754.44760675,1.314294911951301,1.445687403749384,-0.09960229300978723,1.181523084640503,1.178932428359985,-0.1187835708260536,0.002791762351989746,-0.05889463424682617,0.09893178939819336,2,0.4331526474877199,-0.5002965189748876,-0.4314608695410949,-0.6131261507246176,0.9872666001319885,0.09943769127130508,-0.1241643577814102,46.83588409423828,-10.46380424499512,1.99725341796875,2,10754.36188375,1,2,1580907038.60305,1580903939.50652,2106,0.4568741,0,0,2639.329,9,7,1580906940.646764,10751.500961,0,22.05017,96.94725
1580907038.672964,94,0,1580907037.997724,41.20954277865099,29.07643835631573,202.6857,-1,-1,30.15196228027344,48.00724964208526,-9999,10754.46271375,0.874481201171875,-0.5682525634765625,0.45416259765625,10754.45764775,1.290122207072852,1.462823072222669,-0.09471758900585407,2.516312599182129,2.060759305953979,0.2534001171588898,-0.09515750408172607,-0.1995441317558289,0.309454083442688,2,0.4292885013955753,-0.5119288129186546,-0.4216995025903986,-0.613033283107755,0.9897202849388123,0.09457603096961975,-0.107280544936657,46.83588409423828,-10.46380424499512,1.99725341796875,2,10754.36188375,1,2,1580907038.60305,1580903939.50652,2106,0.4568741,0,0,2639.329,9,7,1580906940.646764,10751.500961,0,22.05017,96.94725
1580907038.683533,95,0,1580907037.997724,41.20954277865099,29.07643835631573,202.6857,-1,-1,30.15196228027344,48.00724964208526,-9999,10754.47275375,1.428207397460938,-1.12652587890625,-0.3339080810546875,10754.46771875,1.258066192439321,1.479830787517591,-0.08553761310915921,3.264918804168701,1.937386870384216,0.5898134112358093,-0.1809655427932739,-0.5188854932785034,0.5618512630462646,2,0.4218591033891248,-0.5260996923658268,-0.4108145068798147,-0.6135841444184922,0.9922245144844055,0.08543334156274796,-0.09050802141427994,46.54523468017578,-10.4975643157959,4.208709716796875,2,10754.36188375,1,2,1580907038.60305,1580903939.50652,2106,0.4568741,0,0,2639.329,9,7,1580906940.646764,10751.500961,0,22.05017,96.94725
1580907038.694454,96,0,1580907037.997724,41.20954277865099,29.07643835631573,202.6857,-1,-1,30.15196228027344,48.00724964208526,-9999,10754.48279375,1.618255615234375,-1.50640869140625,-0.88446044921875,10754.47775875,1.224490682824875,1.494705077082376,-0.07303228894053435,3.455315113067627,1.784398913383484,0.9949697256088257,0.2632924914360046,-1.020915389060974,0.03912681341171265,2,0.4122814224774121,-0.5404779638983054,-0.4009537247767009,-0.6141201882687464,0.9944484233856201,0.07296738773584366,-0.07581520080566406,46.54523468017578,-10.4975643157959,4.208709716796875,2,10754.36188375,1,2,1580907038.60305,1580903939.50652,2106,0.4568741,0,0,2639.329,9,7,1580906940.646764,10751.500961,0,22.05017,96.94725
1580907038.713008,97,0,1580907037.997724,41.20954277865099,29.07643835631573,202.6857,-1,-1,30.15196228027344,48.00724964208526,-9999,10754.49283375,1.856185913085938,-1.629302978515625,-0.9931182861328125,10754.48779875,1.193987232186621,1.503696826143091,-0.06156525991662548,3.114036798477173,1.113775730133057,0.9266689419746399,0.5995701551437378,-1.491257905960083,-0.7456824779510498,2,0.4023593063521356,-0.5519473944467772,-0.3930367745728949,-0.6156159620914669,0.9958592653274536,0.06152637675404549,-0.06692212820053101,46.13854217529297,-10.48798561096191,6.15069580078125,2,10754.36188375,1,2,1580907038.60305,1580903939.50652,2106,0.4568741,0,0,2639.329,9,7,1580906940.646764,10751.500961,0,22.05017,96.94725
1580907038.713843,98,0,1580907037.997724,41.20954277865099,29.07643835631573,202.6857,-1,-1,30.15196228027344,48.00724964208526,-9999,10754.50287475,1.824462890625,-1.557968139648438,-1.149063110351562,10754.49783875,1.167845982632409,1.504688745614856,-0.05201316389231102,2.633358240127563,0.2261064052581787,0.7714812159538269,0.7641841173171997,-1.666191816329956,-0.8878108263015747,2,0.3924447499356558,-0.5594658746353041,-0.387537383979295,-0.618708235540238,0.996466338634491,0.05198971554636955,-0.06597010791301727,46.13854217529297,-10.48798561096191,6.15069580078125,2,10754.36188375,1,2,1580907038.60305,1580903939.50652,2106,0.4568741,0,0,2639.329,9,7,1580906940.646764,10751.500961,0,22.05017,96.94725
1580907038.723178,99,0,1580907037.997724,41.20954277865099,29.07643835631573,202.6857,-1,-1,30.15196228027344,48.00724964208526,-9999,10754.51294575,1.271011352539062,-1.39019775390625,-0.9958648681640625,10754.50787975,1.143152310357671,1.499754926972753,-0.0426905167367475,2.499838829040527,-0.3937250971794128,0.7484831809997559,0.9148228168487549,-1.637127280235291,-1.049890041351318,2,0.381741795975907,-0.5646367956972117,-0.3835336673968245,-0.6231856163406703,0.9965687394142151,0.04267755150794983,-0.07091698050498962,45.85265350341797,-10.51473808288574,6.872528076171875,2,10754.36188375,1,2,1580907038.60305,1580903939.50652,2106,0.4568741,0,0,2639.329,9,7,1580906940.646764,10751.500961,0,22.05017,96.94725
1580907038.733178,100,0,1580907037.997724,41.20954277865099,29.07643835631573,202.6857,-1,-1,30.15196228027344,48.00724964208526,-9999,10754.52298575,0.8192596435546875,-1.211715698242188,-0.708343505859375,10754.51791975,1.117732133927307,1.492030114986996,-0.03212598137571056,2.591187953948975,-0.6896576881408691,0.8649067282676697,0.4467452764511108,-1.478457689285278,-1.004484891891479,2,0.3698281360963987,-0.5691265701649637,-0.3801036168654293,-0.6283656457624021,0.9963852167129517,0.03212045505642891,-0.07864419370889664,45.85265350341797,-10.51473808288574,6.872528076171875,2,10754.36188375,1,2,1580907038.60305,1580903939.50652,2106,0.4568741,0,0,2639.329,9,7,1580906940.646764,10751.500961,0,22.05017,96.94725
1580907038.743293,101,0,1580907037.997724,41.20954277865099,29.07643835631573,202.6857,-1,-1,30.15196228027344,48.00724964208526,-9999,10754.53302575,0.5670623779296875,-1.148147583007812,-0.6158294677734375,10754.52795975,1.090049971825536,1.483746594043454,-0.02054115730186529,2.83921217918396,-0.753449022769928,0.9274334907531738,-0.0662081241607666,-1.278616189956665,-0.6916830539703369,2,0.3567499794022358,-0.5738194035791651,-0.37624155862097,-0.6339581674394162,0.9960033297538757,0.02053971216082573,-0.08692149072885513,45.98398590087891,-10.64150047302246,7.18524169921875,2,10754.36188375,1,2,1580907038.60305,1580903939.50652,2106,0.4568741,0,0,2639.329,9,7,1580906940.646764,10751.500961,0,22.05017,96.94725
1580907038.754596,102,0,1580907037.997724,41.20954277865099,29.07643835631573,202.6857,-1,-1,30.15196228027344,48.00724964208526,-9999,10754.54306575,0.5234527587890625,-1.184097290039062,-0.60333251953125,10754.53800075,1.059662967219031,1.475348481942807,-0.008565821576606718,3.129857540130615,-0.7839888334274292,0.9098635315895081,-0.3762991428375244,-1.161571383476257,-0.5369219183921814,2,0.3426398469982346,-0.5787470847771595,-0.371515633903342,-0.6400202731969676,0.9954118728637695,0.008565716445446014,-0.09529949724674225,45.98398590087891,-10.64150047302246,7.18524169921875,2,10754.36188375,1,2,1580907038.60305,1580903939.50652,2106,0.4568741,0,0,2639.329,9,7,1580906940.646764,10751.500961,0,22.05017,96.94725
1580907038.769445,103,0,1580907037.997724,41.20954277865099,29.07643835631573,202.6857,-1,-1,30.15196228027344,48.00724964208526,-9999,10754.55310675,0.6093902587890625,-1.260955810546875,-0.68792724609375,10754.54807075,1.027450144232475,1.465961879374497,0.004111948040788119,3.311511039733887,-0.9177600741386414,0.9244207739830017,-0.479787290096283,-1.162992238998413,-0.4959256649017334,2,0.3274750992071644,-0.5834717175437492,-0.36641599837854,-0.6465755845114278,0.9945013523101807,-0.004111936315894127,-0.1046416312456131,46.07266998291016,-10.74440574645996,7.028350830078125,2,10754.36188375,1,2,1580907038.60305,1580903939.50652,2106,0.4568741,0,0,2639.329,9,7,1580906940.646764,10751.500961,0,22.05017,96.94725
1580907038.773609,104,0,1580907037.997724,41.20954277865099,29.07643835631573,202.6857,-1,-1,30.15196228027344,48.00724964208526,-9999,10754.56314675,0.7283935546875,-1.297622680664062,-0.7345123291015625,10754.55811175,0.9946127840438388,1.454886592754776,0.01865848978925484,3.418026924133301,-1.142799854278564,1.073199510574341,-0.4184020161628723,-1.218677878379822,-0.5434428453445435,2,0.311089365833888,-0.5877144648308923,-0.361741644439767,-0.6534202570143848,0.9931170344352722,-0.01865740679204464,-0.1156302317976952,46.07266998291016,-10.74440574645996,7.028350830078125,2,10754.36188375,1,2,1580907038.60305,1580903939.50652,2106,0.4568741,0,0,2639.329,9,7,1580906940.646764,10751.500961,0,22.05017,96.94725
1580907038.783643,105,0,1580907037.997724,41.20954277865099,29.07643835631573,202.6857,-1,-1,30.15196228027344,48.00724964208526,-9999,10754.57318675,0.8081207275390625,-1.212722778320312,-0.697052001953125,10754.56815175,0.9623423778035363,1.442613967186692,0.03612745506776956,3.402694463729858,-1.325034618377686,1.336091041564941,-0.300141453742981,-1.260590553283691,-0.6069480180740356,2,0.2935555798172442,-0.5915665741870773,-0.358066790972455,-0.6600472273014527,0.9911487698554993,-0.03611959517002106,-0.1277482211589813,46.10846710205078,-11.02916526794434,6.940673828125,2,10754.36188375,1,2,1580907038.60305,1580903939.50652,2106,0.4568741,0,0,2639.329,9,7,1580906940.646764,10751.500961,0,22.05017,96.94725
1580907038.793317,106,0,1580907037.997724,41.20954277865099,29.07643835631573,202.6857,-1,-1,30.15196228027344,48.00724964208526,-9999,10754.58322775,0.805999755859375,-1.007476806640625,-0.574951171875,10754.57819175,0.9313655593774025,1.43102944148164,0.0565729535098227,3.331084728240967,-1.302074432373047,1.614271759986877,-0.1983621120452881,-1.196339964866638,-0.5773603916168213,2,0.275377085693383,-0.5955021166673525,-0.3553525555120614,-0.6657845470818113,0.9886640906333923,-0.0565427802503109,-0.1390893757343292,46.10846710205078,-11.02916526794434,6.940673828125,2,10754.36188375,1,2,1580907038.60305,1580903939.50652,2106,0.4568741,0,0,2639.329,9,7,1580906940.646764,10751.500961,0,22.05017,96.94725
1580907038.803618,107,0,1580907037.997724,41.20954277865099,29.07643835631573,202.6857,-1,-1,30.15196228027344,48.00724964208526,-9999,10754.59329775,0.7477874755859375,-0.769439697265625,-0.3966064453125,10754.58823175,0.902172586547292,1.421748173593384,0.07864834874525559,3.188328504562378,-1.129641890525818,1.771118402481079,-0.1749017834663391,-0.9980071783065796,-0.47650146484375,2,0.2574197176130925,-0.5997634153661706,-0.3531853470462757,-0.6702827780666243,0.9858559370040894,-0.07856729626655579,-0.1480378657579422,46.16461944580078,-11.57051277160645,6.630401611328125,2,10754.36188375,1,2,1580907038.60305,1580903939.50652,2106,0.4568741,0,0,2639.329,9,7,1580906940.646764,10751.500961,0,22.05017,96.94725
1580907038.814861,108,0,1580907037.997724,41.20954277865099,29.07643835631573,202.6857,-1,-1,30.15196228027344,48.00724964208526,-9999,10754.60333875,0.687744140625,-0.55084228515625,-0.273895263671875,10754.59827275,0.8748663142480236,1.415951075620527,0.1004178177398597,3.003705263137817,-0.8165941834449768,1.737234711647034,-0.2142874598503113,-0.7386013269424438,-0.2965760827064514,2,0.2405921843358132,-0.6044751995964661,-0.3509707655085317,-0.6734572647258142,0.9830580949783325,-0.1002491414546967,-0.1534502655267715,46.16461944580078,-11.57051277160645,6.630401611328125,2,10754.36188375,1,2,1580907038.60305,1580903939.50652,2106,0.4568741,0,0,2639.329,9,7,1580906940.646764,10751.500961,0,22.05017,96.94725
1580907038.833474,109,0,1580907037.997724,41.20954277865099,29.07643835631573,202.6857,-1,-1,30.15196228027344,48.00724964208526,-9999,10754.61337875,0.735382080078125,-0.316986083984375,-0.19793701171875,10754.60831275,0.8491552891655499,1.413278799726203,0.1207168528119382,2.829234838485718,-0.5405254364013672,1.604397058486938,-0.2865303754806519,-0.4949121475219727,-0.150557816028595,2,0.2251711061424799,-0.6094549166671607,-0.3484150095500799,-0.6756253328919015,0.9804323315620422,-0.1204238757491112,-0.155725359916687,45.92295074462891,-12.27947425842285,6.715606689453125,2,10754.36188375,1,2,1580907038.60305,1580903939.50652,2106,0.4568741,0,0,2639.329,9,7,1580906940.646764,10751.500961,0,22.05017,96.94725
1580907038.836444,110,0,1580907037.997724,41.20954277865099,29.07643835631573,202.6857,-1,-1,30.15196228027344,48.00724964208526,-9999,10754.62341875,0.791168212890625,-0.07513427734375,-0.1764068603515625,10754.61835275,0.8251020639990106,1.4126880501054,0.1390707480291053,2.627452611923218,-0.3634816706180573,1.423971652984619,-0.2674220204353333,-0.2518455982208252,-0.06217187643051147,2,0.2111877347306533,-0.6143570853058176,-0.3455922864851029,-0.6771492806173252,0.9779925942420959,-0.1386228948831558,-0.15593022108078,45.92295074462891,-12.27947425842285,6.715606689453125,2,10754.36188375,1,2,1580907038.60305,1580903939.50652,2106,0.4568741,0,0,2639.329,9,7,1580906940.646764,10751.500961,0,22.05017,96.94725
1580907038.843719,111,0,1580907037.997724,41.20954277865099,29.07643835631573,202.6857,-1,-1,30.15196228027344,48.00724964208526,-9999,10754.63345875,0.8132781982421875,0.1415252685546875,-0.1768035888671875,10754.62842375,0.8021372990058347,1.413628133989324,0.1565607719191195,2.494822263717651,-0.2470075190067291,1.353937268257141,-0.1989020109176636,0.01171176135540009,-0.02510684728622437,2,0.1980091931706802,-0.619264545084669,-0.3427208805597867,-0.6781195478833566,0.9755945801734924,-0.1559219658374786,-0.1546075642108917,45.95938873291016,-12.69951057434082,7.287506103515625,2,10754.36188375,1,2,1580907038.60305,1580903939.50652,2106,0.4568741,0,0,2639.329,9,7,1580906940.646764,10751.500961,0,22.05017,96.94725
1580907038.85369,112,0,1580907037.997724,41.20954277865099,29.07643835631573,202.6857,-1,-1,30.15196228027344,48.00724964208526,-9999,10754.64349975,0.765838623046875,0.3524169921875,-0.2291107177734375,10754.63846375,0.7801289771321662,1.416879138236941,0.174252644099529,2.409214019775391,-0.05045558139681816,1.404988288879395,-0.1646853089332581,0.2506707310676575,-0.02739202976226807,2,0.185355151637334,-0.6246192549677285,-0.3400209833703362,-0.6781445148462191,0.9732135534286499,-0.1733721494674683,-0.1509885042905807,45.95938873291016,-12.69951057434082,7.287506103515625,2,10754.36188375,1,2,1580907038.60305,1580903939.50652,2106,0.4568741,0,0,2639.329,9,7,1580906940.646764,10751.500961,0,22.05017,96.94725
1580907038.864324,113,0,1580907037.997724,41.20954277865099,29.07643835631573,202.6857,-1,-1,30.15196228027344,48.00724964208526,-9999,10754.65353975,0.742340087890625,0.52313232421875,-0.413818359375,10754.64850475,0.7588154221876929,1.423734240805872,0.1921440761741918,2.33252477645874,0.3081242144107819,1.451284170150757,-0.1851425170898438,0.4830883741378784,-0.05824369192123413,2,0.1733647697196013,-0.6308935601077958,-0.3373365120489459,-0.6768471913656769,0.9710016250610352,-0.1909639537334442,-0.1438359469175339,45.91129302978516,-13.45820808410645,7.98944091796875,2,10754.36188375,1,2,1580907038.60305,1580903939.50652,2106,0.4568741,0,0,2639.329,9,7,1580906940.646764,10751.500961,0,22.05017,96.94725
1580907038.886164,114,0,1580907037.997724,41.20954277865099,29.07643835631573,202.6857,-1,-1,30.15196228027344,48.00724964208526,-9999,10754.66357975,0.9341888427734375,0.69366455078125,-0.6467132568359375,10754.65854475,0.7386239882325931,1.432451893102276,0.2094381749862571,2.199415683746338,0.4893640577793121,1.431507468223572,-0.2406464815139771,0.6850738525390625,-0.2154811024665833,2,0.1621683091127351,-0.6373824605333782,-0.3347869061991041,-0.6748057635599486,0.9688023924827576,-0.2079103887081146,-0.134890079498291,45.91129302978516,-13.45820808410645,7.98944091796875,2,10754.36188375,1,2,1580907038.60305,1580903939.50652,2106,0.4568741,0,0,2639.329,9,7,1580906940.646764,10751.500961,0,22.05017,96.94725
1580907038.888612,115,0,1580907037.997724,41.20954277865099,29.07643835631573,202.6857,-1,-1,30.15196228027344,48.00724964208526,-9999,10754.67365075,1.198562622070312,0.9692230224609375,-0.8476715087890625,10754.66858475,0.7198973360478376,1.439675667708324,0.2252458190713333,2.012906551361084,0.3325360119342804,1.319787263870239,-0.1118980646133423,0.8582011461257935,-0.4518594145774841,2,0.1516502620987025,-0.6428692984120112,-0.3325085679509569,-0.673171013333607,0.9663719534873962,-0.2233459800481796,-0.1274425238370895,45.50882720947266,-14.10698509216309,9.00640869140625,2,10754.36188375,1,2,1580907038.60305,1580903939.50652,2106,0.4568741,0,0,2639.329,9,7,1580906940.646764,10751.500961,0,22.05017,96.94725
1580907038.893808,116,0,1580907037.997724,41.20954277865099,29.07643835631573,202.6857,-1,-1,30.15196228027344,48.00724964208526,-9999,10754.68369075,1.359222412109375,1.28680419921875,-0.9261474609375,10754.67862575,0.7027066088536539,1.442997410857954,0.2392107627679727,1.827481150627136,-0.06051140278577805,1.161019086837769,0.1604860424995422,1.113599896430969,-0.6730636358261108,2,0.1415884185182913,-0.6465613903878391,-0.3305591025513688,-0.6727865580939922,0.9636023044586182,-0.236935943365097,-0.1238221749663353,45.50882720947266,-14.10698509216309,9.00640869140625,2,10754.36188375,1,2,1580907038.60305,1580903939.50652,2106,0.4568741,0,0,2639.329,9,7,1580906940.646764,10751.500961,0,22.05017,96.94725
1580907038.903855,117,0,1580907037.997724,41.20954277865099,29.07643835631573,202.6857,-1,-1,30.15196228027344,48.00724964208526,-9999,10754.69373175,1.336273193359375,1.56121826171875,-0.805572509765625,10754.68866575,0.6866713959533283,1.44207704930697,0.2518020916863181,1.689877390861511,-0.492949366569519,1.0455561876297,0.3618090152740479,1.444187641143799,-0.8007267713546753,2,0.1316597594881394,-0.648465589787233,-0.3289063643116273,-0.6737794984698936,0.9604530930519104,-0.2491496205329895,-0.1243161708116531,45.18340301513672,-14.47389030456543,9.78399658203125,2,10754.36188375,1,2,1580907038.60305,1580903939.50652,2106,0.4568741,0,0,2639.329,9,7,1580906940.646764,10751.500961,0,22.05017,96.94725
1580907038.91398,118,0,1580907037.997724,41.20954277865099,29.07643835631573,202.6857,-1,-1,30.15196228027344,48.00724964208526,-9999,10754.70377175,1.114059448242188,1.831253051757812,-0.5966949462890625,10754.69870575,0.6713569609541301,1.438983421569239,0.2631801922555802,1.607330322265625,-0.7128008008003235,0.9427894353866577,0.4104733467102051,1.743379831314087,-0.73375403881073,2,0.1220243728954214,-0.6493512491922014,-0.3272626672576052,-0.6755383660416,0.9571914076805115,-0.2601525485515594,-0.1269060224294662,45.18340301513672,-14.47389030456543,9.78399658203125,2,10754.36188375,1,2,1580907038.60305,1580903939.50652,2106,0.4568741,0,0,2639.329,9,7,1580906940.646764,10751.500961,0,22.05017,96.94725
1580907038.924028,119,0,1580907037.997724,41.20954277865099,29.07643835631573,202.6857,-1,-1,30.15196228027344,48.00724964208526,-9999,10754.71381175,0.9351348876953125,2.064437866210938,-0.3898468017578125,10754.70877675,0.6560333009181685,1.436135425616391,0.271800743260825,1.564614534378052,-0.6926538944244385,0.6670159697532654,0.2305927276611328,2.018162965774536,-0.5332843661308289,2,0.1134195569390852,-0.649979355543601,-0.3247648323743204,-0.677636070058754,0.9545682668685913,-0.2684665024280548,-0.1293256878852844,45.17577362060547,-15.17102241516113,9.80755615234375,2,10754.36188375,1,2,1580907038.60305,1580903939.50652,2106,0.4568741,0,0,2639.329,9,7,1580906940.646764,10751.500961,0,22.05017,96.94725
1580907038.935848,120,0,1580907037.997724,41.20954277865099,29.07643835631573,202.6857,-1,-1,30.15196228027344,48.00724964208526,-9999,10754.72385275,0.8489227294921875,2.1715087890625,-0.2354736328125,10754.71881675,0.640502988804622,1.434874328968378,0.2757132664871333,1.524871468544006,-0.5488669276237488,0.1843931525945663,0.01945096254348755,2.278362989425659,-0.3212075233459473,2,0.1067262543808498,-0.6507045984055291,-0.3207074316606405,-0.679955782331527,0.9533565044403076,-0.2722333371639252,-0.1303860694169998,45.17577362060547,-15.17102241516113,9.80755615234375,2,10754.36188375,1,2,1580907038.60305,1580903939.50652,2106,0.4568741,0,0,2639.329,9,7,1580906940.646764,10751.500961,0,22.05017,96.94725
1580907038.951455,121,0,1580907037.997724,41.20954277865099,29.07643835631573,202.6857,-1,-1,30.15196228027344,48.00724964208526,-9999,10754.73389275,0.9143524169921875,2.343978881835938,-0.05841064453125,10754.72885675,0.6236578111142246,1.43865966344261,0.2727795462236864,1.539565086364746,-0.1535154432058334,-0.4274279177188873,-0.0866086483001709,2.422199487686157,-0.149046778678894,2,0.1029187631961173,-0.6526616307745243,-0.3139119876277783,-0.6818356854608599,0.9546308517456055,-0.2694092392921448,-0.1268810480833054,45.38758087158203,-14.8183422088623,10.0489501953125,2,10754.36188375,1,2,1580907038.60305,1580903939.50652,2106,0.4568741,0,0,2639.329,9,7,1580906940.646764,10751.500961,0,22.05017,96.94725
1580907038.95412,122,0,1580907037.997724,41.20954277865099,29.07643835631573,202.6857,-1,-1,30.15196228027344,48.00724964208526,-9999,10754.74393275,1.058502197265625,2.67669677734375,0.2933349609375,10754.73889775,0.6029783229176534,1.452891358524188,0.2577228952570932,1.795018672943115,0.9449700713157654,-1.779985666275024,-0.1040918231010437,2.50648045539856,-0.02042829990386963,2,0.1038690948141432,-0.6575239493054074,-0.301641306444969,-0.6825584180970005,0.9602594375610352,-0.2548793256282806,-0.1137469336390495,45.38758087158203,-14.8183422088623,10.0489501953125,2,10754.36188375,1,2,1580907038.60305,1580903939.50652,2106,0.4568741,0,0,2639.329,9,7,1580906940.646764,10751.500961,0,22.05017,96.94725
1580907038.964277,123,0,1580907037.997724,41.20954277865099,29.07643835631573,202.6857,-1,-1,30.15196228027344,48.00724964208526,-9999,10754.75400375,0.9224700927734375,1.852615356445312,0.121185302734375,10754.74893775,0.5794855332084784,1.46900798759435,0.2352429953217921,1.989850282669067,1.051329493522644,-2.504054069519043,0.09037071466445923,2.855858087539673,0.2909417152404785,2,0.1066994676332881,-0.6627278634418565,-0.2859473985681111,-0.683842783780545,0.967424213886261,-0.2330792993307114,-0.09881400316953659,45.58856964111328,-13.38958168029785,11.03353881835938,2,10754.36188375,1,2,1580907038.60305,1580903939.50652,2106,0.4568741,0,0,2639.329,9,7,1580906940.646764,10751.500961,0,22.05017,96.94725
1580907038.974383,124,0,1580907037.997724,41.20954277865099,29.07643835631573,202.6857,-1,-1,30.15196228027344,48.00724964208526,-9999,10754.76404375,1.663299560546875,-0.0531005859375,-0.1298370361328125,10754.75897775,0.5531947996867946,1.479689992949177,0.2105232514699041,2.311182975769043,0.5249804854393005,-2.800834178924561,-0.06370031833648682,2.503947734832764,0.3462455868721008,2,0.1084366097436967,-0.6661498900037555,-0.2687173683166412,-0.6872239165609382,0.9738658666610718,-0.2089716345071793,-0.08897165209054947,45.58856964111328,-13.38958168029785,11.03353881835938,2,10754.36188375,1,2,1580907038.60305,1580903939.50652,2106,0.4568741,0,0,2639.329,9,7,1580906940.646764,10751.500961,0,22.05017,96.94725
1580907038.984424,125,0,1580907037.997724,41.20954277865099,29.07643835631573,202.6857,-1,-1,30.15196228027344,48.00724964208526,-9999,10754.77408375,1.46038818359375,-0.973724365234375,0.3104400634765625,10754.76901875,0.5263323603270884,1.481885339888354,0.1872398234281062,2.427417516708374,-0.3942871689796448,-2.469097137451172,0.4358619451522827,0.6911356449127197,-0.07747012376785278,2,0.1082204579190659,-0.6668338399627124,-0.252025729691174,-0.6928953137183909,0.9786407947540283,-0.1861476749181747,-0.08724192529916763,45.77462005615234,-10.90390205383301,12.04708862304688,2,10754.36188375,1,2,1580907038.60305,1580903939.50652,2106,0.4568741,0,0,2639.329,9,7,1580906940.646764,10751.500961,0,22.05017,96.94725
1580907039.011469,126,0,1580907037.997724,41.20954277865099,29.07643835631573,202.6857,-1,-1,30.15196228027344,48.00724964208526,-9999,10754.78412475,1.040542602539062,-1.187728881835938,0.6037750244140625,10754.77905875,0.5033031831407302,1.482102728109251,0.1596246385649443,2.059540510177612,-0.3510662019252777,-2.932430982589722,0.692177951335907,-0.7189435958862305,0.2815349102020264,2,0.1105913485224885,-0.666366205071297,-0.2352461173312977,-0.6988453375569762,0.9834061861038208,-0.1589476317167282,-0.08745127171278,45.77462005615234,-10.90390205383301,12.04708862304688,2,10754.36188375,1,2,1580907038.60305,1580903939.50652,2106,0.4568741,0,0,2639.329,9,7,1580906940.646764,10751.500961,0,22.05017,96.94725
1580907039.012493,127,0,1580907037.997724,41.20954277865099,29.07643835631573,202.6857,-1,-1,30.15196228027344,48.00724964208526,-9999,10754.79416475,1.470550537109375,-1.12872314453125,0.7081146240234375,10754.78912975,0.4902350870832448,1.479316260877269,0.1260598362644781,0.977229118347168,-0.4819427728652954,-3.484227418899536,0.03767776489257812,-0.9415774345397949,0.59555584192276,2,0.1181051326592026,-0.663880533274753,-0.2200916044393878,-0.7048924524410008,0.9879166483879089,-0.1257262229919434,-0.09062763303518295,46.43067169189453,-8.036775588989258,11.83184814453125,2,10754.36188375,1,2,1580907038.60305,1580903939.50652,2106,0.4568741,0,0,2639.329,9,7,1580906940.646764,10751.500961,0,22.05017,96.94725
1580907039.01443,128,0,1580907037.997724,41.20954277865099,29.07643835631573,202.6857,-1,-1,30.15196228027344,48.00724964208526,-9999,10754.80420475,1.450363159179688,-0.2563018798828125,0.30914306640625,10754.79916975,0.4888106488189031,1.473230932106727,0.09267551736282162,-0.2136638313531876,-0.6172677874565125,-3.373248100280762,0.3818579912185669,-1.200595855712891,0.8353656530380249,2,0.1290909853049403,-0.6594233704444418,-0.2092460345445229,-0.7104312400819679,0.9909734725952148,-0.09254291653633118,-0.09699267148971558,46.92455291748047,-5.275266647338867,11.14236450195312,2,10754.36188375,1,2,1580907038.60305,1580903939.50652,2106,0.4568741,0,0,2639.329,9,7,1580906940.646764,10751.500961,0,22.05017,96.94725
1580907039.024439,129,0,1580907037.997724,41.20954277865099,29.07643835631573,202.6857,-1,-1,30.15196228027344,48.00724964208526,-9999,10754.81424575,1.539932250976562,0.140411376953125,-0.0157470703125,10754.80920975,0.4939733548821236,1.464689271568351,0.06656367651984213,-0.8119110465049744,-0.8123235702514648,-2.52229905128479,0.464791476726532,-0.4234653115272522,0.5481384992599487,2,0.1393814046863121,-0.6540153398708792,-0.2032726347512062,-0.7152041186897706,0.9921737909317017,-0.06651453673839569,-0.1056735217571259,46.92455291748047,-5.275266647338867,11.14236450195312,2,10754.36188375,1,2,1580907038.60305,1580903939.50652,2106,0.4568741,0,0,2639.329,9,7,1580906940.646764,10751.500961,0,22.05017,96.94725
1580907039.034644,130,0,1580907037.997724,41.20954277865099,29.07643835631573,202.6857,-1,-1,30.15196228027344,48.00724964208526,-9999,10754.82428575,1.283889770507812,0.216766357421875,-0.2136077880859375,10754.81925075,0.499842197620659,1.455081207319878,0.0476487249314907,-0.8094159364700317,-0.9502127170562744,-1.773751497268677,0.5307440161705017,0.1148860454559326,0.1732171773910522,2,0.1471968241763687,-0.6485908453163541,-0.2000051320764463,-0.7194866460418026,0.992185115814209,-0.04763069748878479,-0.1153260171413422,47.27382659912109,-3.687078475952148,10.24420166015625,2,10754.36188375,1,2,1580907038.60305,1580903939.50652,2106,0.4568741,0,0,2639.329,9,7,1580906940.646764,10751.500961,0,22.05017,96.94725
1580907039.044567,131,0,1580907037.997724,41.20954277865099,29.07643835631573,202.6857,-1,-1,30.15196228027344,48.00724964208526,-9999,10754.83435675,0.97283935546875,0.149169921875,-0.3426055908203125,10754.82929075,0.502853700577451,1.447786305985442,0.03162665637894408,-0.4893378019332886,-0.7195607423782349,-1.536873698234558,0.4040444493293762,0.2500216066837311,-0.03759199380874634,2,0.1532772753829847,-0.6443498620171905,-0.1965190672511578,-0.7229795902248124,0.9919474124908447,-0.03162138536572456,-0.1226386651396751,47.27382659912109,-3.687078475952148,10.24420166015625,2,10754.36188375,1,2,1580907038.60305,1580903939.50652,2106,0.4568741,0,0,2639.329,9,7,1580906940.646764,10751.500961,0,22.05017,96.94725
1580907039.068095,132,0,1580907037.997724,41.20954277865099,29.07643835631573,202.6857,-1,-1,30.15196228027344,48.00724964208526,-9999,10754.84439675,0.908050537109375,0.1065673828125,-0.3212890625,10754.83933075,0.5022267203587739,1.444057745368113,0.0163176525859931,-0.1189078018069267,-0.3673283457756042,-1.517875790596008,0.04444962739944458,0.186034619808197,-0.1941931247711182,2,0.1582879669915094,-0.641680254950336,-0.1916946554596836,-0.7255650150950055,0.9918473958969116,-0.01631692796945572,-0.1263827383518219,47.49333953857422,-2.417436599731445,9.454559326171875,2,10754.36188375,1,2,1580907038.60305,1580903939.50652,2106,0.4568741,0,0,2639.329,9,7,1580906940.646764,10751.500961,0,22.05017,96.94725
1580907039.069041,133,0,1580907037.997724,41.20954277865099,29.07643835631573,202.6857,-1,-1,30.15196228027344,48.00724964208526,-9999,10754.85443675,0.949432373046875,0.0526580810546875,-0.20428466796875,10754.84937075,0.499479171638293,1.442964256436661,0.00122290247841613,0.09487003833055496,-0.0959995910525322,-1.528393268585205,-0.08438825607299805,0.1192983984947205,-0.2163742184638977,2,0.1627983559092954,-0.6401208088222918,-0.1859595684682004,-0.7274344856116709,0.9918397068977356,-0.001222902210429311,-0.1274840980768204,47.49333953857422,-2.417436599731445,9.454559326171875,2,10754.36188375,1,2,1580907038.60305,1580903939.50652,2106,0.4568741,0,0,2639.329,9,7,1580906940.646764,10752.446746,0,22.00787,96.94772
1580907039.074813,134,0,1580907037.997724,41.20954277865099,29.07643835631573,202.6857,-1,-1,30.15196228027344,48.00724964208526,-9999,10754.86447775,1.039810180664062,0.012481689453125,-0.0912017822265625,10754.85941175,0.4966797085309719,1.442449240901094,-0.01342088652955627,0.09485006332397461,-0.03928970545530319,-1.487054824829102,-0.06384760141372681,0.05693541467189789,-0.1182780861854553,2,0.1671809206029765,-0.6387948057957425,-0.1802924057543661,-0.7290311220896866,0.9916855096817017,0.01342048402875662,-0.1279834657907486,47.48358917236328,-1.010320663452148,9.16326904296875,2,10754.36188375,1,2,1580907038.60305,1580903939.50652,2106,0.4568741,0,0,2639.329,9,7,1580906940.646764,10752.446746,0,22.00787,96.94772
1580907039.084875,135,0,1580907037.997724,41.20954277865099,29.07643835631573,202.6857,-1,-1,30.15196228027344,48.00724964208526,-9999,10754.87451775,1.070159912109375,0.0235595703125,-0.0780181884765625,10754.86948175,0.4949874876939683,1.441371506665158,-0.02701442050769921,-0.009567955508828163,-0.1090423315763474,-1.360016465187073,0.01844304800033569,-0.007423989474773407,0.00917661190032959,2,0.1714833238339181,-0.6372480825298567,-0.1754043347931953,-0.7305762487434535,0.9912744760513306,0.02701113559305668,-0.1290166974067688,47.48358917236328,-1.010320663452148,9.16326904296875,2,10754.36188375,1,2,1580907038.60305,1580903939.50652,2106,0.4568741,0,0,2639.329,9,7,1580906940.646764,10752.446746,0,22.00787,96.94772
1580907039.094759,136,0,1580907037.997724,41.20954277865099,29.07643835631573,202.6857,-1,-1,30.15196228027344,48.00724964208526,-9999,10754.88455775,1.04766845703125,0.0713653564453125,-0.1283721923828125,10754.87952275,0.4939531946675296,1.440273746159346,-0.03886010755825313,-0.05952353030443192,-0.1118176132440567,-1.191322565078735,0.08048158884048462,-0.0236256942152977,0.05715256929397583,2,0.1753585310905808,-0.635784844262924,-0.1713154905850496,-0.7319002708629099,0.990745484828949,0.0388503260910511,-0.1300540417432785,47.49265289306641,0.1147480010986328,8.831512451171875,2,10754.36188375,1,2,1580907038.60305,1580903939.50652,2106,0.4568741,0,0,2639.329,9,7,1580906940.646764,10752.446746,0,22.00787,96.94772
1580907039.104832,137,0,1580907037.997724,41.20954277865099,29.07643835631573,202.6857,-1,-1,30.15196228027344,48.00724964208526,-9999,10754.89459775,1.059112548828125,0.1095428466796875,-0.13372802734375,10754.88956275,0.4929796476279375,1.439569050344128,-0.04834484799492481,-0.02698374353349209,-0.06479014456272125,-0.9503447413444519,0.05638724565505981,0.00538858026266098,0.01507329940795898,2,0.1784295709387423,-0.6346761800348661,-0.1679708363518498,-0.7328947613331349,0.9902436137199402,0.04832601919770241,-0.1306980699300766,47.49265289306641,0.1147480010986328,8.831512451171875,2,10754.36188375,1,2,1580907038.60305,1580903939.50652,2106,0.4568741,0,0,2639.329,9,7,1580906940.646764,10752.446746,0,22.00787,96.94772
1580907039.127488,138,0,1580907037.997724,41.20954277865099,29.07643835631573,202.6857,-1,-1,30.15196228027344,48.00724964208526,-9999,10754.90463875,1.067169189453125,0.1065673828125,-0.1180419921875,10754.89960275,0.4921238293663172,1.439083272678261,-0.05545033087319773,-0.006823880597949028,-0.03880595043301582,-0.7110573649406433,0.06368374824523926,0.04814101755619049,-0.008754491806030273,2,0.1806931375693017,-0.6338648512551385,-0.1654134797623346,-0.7336236019084716,0.9898145794868469,0.05542191863059998,-0.1311306804418564,47.64897918701172,0.5168361663818359,8.71246337890625,2,10754.36188375,1,2,1580907038.60305,1580903939.50652,2106,0.4568741,0,0,2639.329,9,7,1580906940.646764,10752.446746,0,22.00787,96.94772
1580907039.128482,139,0,1580907037.997724,41.20954277865099,29.07643835631573,202.6857,-1,-1,30.15196228027344,48.00724964208526,-9999,10754.91467875,1.06683349609375,0.0970306396484375,-0.09637451171875,10754.90964375,0.4918298240897993,1.438298826156917,-0.06024892945482221,-0.03498037159442902,-0.07643751800060272,-0.472040206193924,0.07228720188140869,0.04867927730083466,0.006254196166992188,2,0.1822740513629261,-0.6331200004519519,-0.1638314162185208,-0.734230618001987,0.9894366264343262,0.06021248549222946,-0.1318704634904861,47.64897918701172,0.5168361663818359,8.71246337890625,2,10754.36188375,1,2,1580907038.60305,1580903939.50652,2106,0.4568741,0,0,2639.329,9,7,1580906940.646764,10752.446746,0,22.00787,96.94772
1580907039.13501,140,0,1580907037.997724,41.20954277865099,29.07643835631573,202.6857,-1,-1,30.15196228027344,48.00724964208526,-9999,10754.92474975,1.028915405273438,0.0833892822265625,-0.107666015625,10754.91968375,0.4919545712657094,1.437013157454724,-0.06348341824823557,-0.05967506393790245,-0.1315367221832275,-0.3104158937931061,0.07943159341812134,0.03683710843324661,0.03011608123779297,2,0.1833803852888953,-0.6323082719125531,-0.1629531747091389,-0.7348497654142732,0.9890680313110352,0.06344078481197357,-0.1331157684326172,47.61553192138672,1.220664978027344,8.720672607421875,2,10754.36188375,1,2,1580907038.60305,1580903939.50652,2106,0.4568741,0,0,2639.329,9,7,1580906940.646764,10752.446746,0,22.00787,96.94772
1580907039.145105,141,0,1580907037.997724,41.20954277865099,29.07643835631573,202.6857,-1,-1,30.15196228027344,48.00724964208526,-9999,10754.93478975,0.997314453125,0.07769775390625,-0.1311798095703125,10754.92972375,0.492121140534312,1.435609164196309,-0.06609101408764559,-0.05117611587047577,-0.1428540498018265,-0.2534608244895935,0.05137580633163452,0.0211670771241188,0.03134787082672119,2,0.1842638153666234,-0.6315109544920896,-0.1623040720349855,-0.7354577686642063,0.9887127876281738,0.06604290753602982,-0.1344815194606781,47.61553192138672,1.220664978027344,8.720672607421875,2,10754.36188375,1,2,1580907038.60305,1580903939.50652,2106,0.4568741,0,0,2639.329,9,7,1580906940.646764,10752.446746,0,22.00787,96.94772
1580907039.155066,142,0,1580907037.997724,41.20954277865099,29.07643835631573,202.6857,-1,-1,30.15196228027344,48.00724964208526,-9999,10754.944832,0.9966583251953125,0.070037841796875,-0.13800048828125,10754.93976375,0.4922232215306575,1.434479270564968,-0.06848996187231654,-0.0434926301240921,-0.112399734556675,-0.2331558167934418,0.01250439882278442,0.009353034198284149,0.008077263832092285,2,0.1850740777388919,-0.6308401264541577,-0.1616740584466784,-0.7359685332513276,0.9884003400802612,0.06843642890453339,-0.1355766355991364,47.75284576416016,1.385562896728516,8.62701416015625,2,10754.36188375,1,2,1580907038.60305,1580903939.50652,2106,0.4568741,0,0,2639.329,9,7,1580906940.646764,10752.446746,0,22.00787,96.94772
1580907039.167169,143,0,1580907038.997718,41.209540353325,29.07642247669283,204.0691,-1,-1,25.75463104248047,48.00724964208526,-9999,10754.954873,1.0072021484375,0.0495452880859375,-0.136505126953125,10754.949837,0.4923812915972307,1.433697466064884,-0.07097949179370731,-0.04891350120306015,-0.07961356639862061,-0.2417793571949005,0.003307700157165527,0.00370490550994873,-0.003393888473510742,2,0.1859632866895774,-0.630281551839578,-0.1610039237930774,-0.7363698432218398,0.988122284412384,0.07091990858316422,-0.1363256424665451,47.75284576416016,1.385562896728516,8.62701416015625,2,10754.36188375,1,2,1580907038.60305,1580903939.50652,2106,0.4568741,0,0,2639.329,9,7,1580906940.646764,10752.446746,0,22.00787,96.94772
1580907039.189562,144,0,1580907038.997718,41.209540353325,29.07642247669283,204.0691,-1,-1,25.75463104248047,48.00724964208526,-9999,10754.964913,1.003921508789062,0.0522918701171875,-0.13653564453125,10754.959878,0.4925010236081812,1.433295008860803,-0.07371386497299189,-0.05185762792825699,-0.03797876834869385,-0.2668564915657043,0.01556795835494995,-0.01965883374214172,-0.002060830593109131,2,0.1869598006512653,-0.62983959845004,-0.1602059561601396,-0.7366696889423736,0.9878716468811035,0.07364712655544281,-0.1366962194442749,47.73787689208984,1.672805786132812,8.763641357421875,2,10754.36188375,1,2,1580907038.60305,1580903939.50652,2106,0.4568741,0,0,2639.329,9,7,1580906940.646764,10752.446746,0,22.00787,96.94772
1580907039.192297,145,0,1580907038.997718,41.209540353325,29.07642247669283,204.0691,-1,-1,25.75463104248047,48.00724964208526,-9999,10754.974953,0.9890594482421875,0.0748138427734375,-0.1344146728515625,10754.969918,0.4925639706923147,1.433050412715192,-0.0767045993340799,-0.04613741859793663,-0.02603275701403618,-0.2963630259037018,0.01545840501785278,-0.02779063582420349,-0.002398967742919922,2,0.1880438794779714,-0.6294330821248312,-0.1592898689856471,-0.7369397826933082,0.9876155257225037,0.0766294077038765,-0.1369069963693619,47.73787689208984,1.672805786132812,8.763641357421875,2,10754.36188375,1,2,1580907038.60305,1580903939.50652,2106,0.4568741,0,0,2639.329,9,7,1580906940.646764,10752.446746,0,22.00787,96.94772
1580907039.195231,146,0,1580907038.997718,41.209540353325,29.07642247669283,204.0691,-1,-1,25.75463104248047,48.00724964208526,-9999,10754.984993,0.969024658203125,0.090545654296875,-0.13922119140625,10754.979958,0.4925348806312345,1.432952210438281,-0.07978116563966207,-0.04220259934663773,-0.01150254905223846,-0.3027639091014862,0.005777239799499512,-0.01308881491422653,0.000701606273651123,2,0.1891414855261156,-0.6290787227616782,-0.1582983099107528,-0.7371750148993845,0.9873638153076172,0.07969655841588974,-0.1369709223508835,47.72908782958984,2.120151519775391,8.914215087890625,2,10754.36188375,1,2,1580907038.60305,1580903939.50652,2106,0.4568741,0,0,2639.329,9,7,1580906940.646764,10752.446746,0,22.00787,96.94772
1580907039.205212,147,0,1580907038.997718,41.209540353325,29.07642247669283,204.0691,-1,-1,25.75463104248047,48.00724964208526,-9999,10754.995034,0.9738006591796875,0.088287353515625,-0.140716552734375,10754.989998,0.4924245842810043,1.433114574585336,-0.08296589769024013,-0.03229749947786331,0.01678248308598995,-0.3158701658248901,-0.0159149169921875,0.004877902567386627,-0.002744913101196289,2,0.190272834803086,-0.6288153179700741,-0.1572169274278201,-0.7373400799400448,0.9871296882629395,0.08287075161933899,-0.1367750912904739,47.72908782958984,2.120151519775391,8.914215087890625,2,10754.36188375,1,2,1580907038.60305,1580903939.50652,2106,0.4568741,0,0,2639.329,9,7,1580906940.646764,10752.446746,0,22.00787,96.94772
1580907039.216707,148,0,1580907038.997718,41.209540353325,29.07642247669283,204.0691,-1,-1,25.75463104248047,48.00724964208526,-9999,10755.005105,1.003433227539062,0.083831787109375,-0.1277008056640625,10755.000039,0.4922116371218279,1.433387092012183,-0.086277461170331,-0.02684281580150127,0.03556336462497711,-0.3284698128700256,-0.02005338668823242,0.003599539399147034,-0.006974339485168457,2,0.1914258166042952,-0.6285875370349991,-0.156045676944804,-0.737484637086339,0.986889660358429,0.08617046475410461,-0.1364677250385284,47.76084136962891,2.283699035644531,9.130218505859375,2,10754.36188375,1,2,1580907038.60305,1580903939.50652,2106,0.4568741,0,0,2639.329,9,7,1580906940.646764,10752.446746,0,22.00787,96.94772
1580907039.225325,149,0,1580907038.997718,41.209540353325,29.07642247669283,204.0691,-1,-1,25.75463104248047,48.00724964208526,-9999,10755.015145,1.030975341796875,0.086700439453125,-0.107666015625,10755.010079,0.4919874025875445,1.433121070433237,-0.08969630728387451,-0.02483534254133701,-0.02544309198856354,-0.3407177329063416,0.003749489784240723,-0.005322836339473724,0.0008158087730407715,2,0.1925716125497847,-0.6281494030899234,-0.15488674348612,-0.7378037412667903,0.9865555167198181,0.08957608044147491,-0.1366890072822571,47.76084136962891,2.283699035644531,9.130218505859375,2,10754.36188375,1,2,1580907038.60305,1580903939.50652,2106,0.4568741,0,0,2639.329,9,7,1580906940.646764,10752.446746,0,22.00787,96.94772
1580907039.244838,150,0,1580907038.997718,41.209540353325,29.07642247669283,204.0691,-1,-1,25.75463104248047,48.00724964208526,-9999,10755.025185,0.997161865234375,0.1099090576171875,-0.11749267578125,10755.020119,0.4916955258410993,1.432321045590548,-0.09304405862720851,-0.01981102302670479,-0.07911697030067444,-0.334967702627182,0.03883063793182373,-0.008741088211536407,0.02367490530014038,2,0.1936291797106399,-0.6275266507607795,-0.1537772867403584,-0.7382889253951386,0.9861434698104858,0.09290986508131027,-0.1374360918998718,47.66574859619141,2.420661926269531,9.185760498046875,2,10754.36188375,1,2,1580907038.60305,1580903939.50652,2106,0.4568741,0,0,2639.329,9,7,1580906940.646764,10752.446746,0,22.00787,96.94772
1580907039.245598,151,0,1580907038.997718,41.209540353325,29.07642247669283,204.0691,-1,-1,25.75463104248047,48.00724964208526,-9999,10755.035225,0.9610137939453125,0.1280059814453125,-0.126312255859375,10755.03019,0.4913442599399431,1.431236258592367,-0.09614968169358561,-0.00785048957914114,-0.1026323363184929,-0.3119270503520966,0.02440983057022095,0.005173161625862122,0.02424836158752441,2,0.1945593261975125,-0.6268286821412038,-0.1527519989593638,-0.7388498854606059,0.9857032299041748,0.09600160270929337,-0.138464942574501,47.66574859619141,2.420661926269531,9.185760498046875,2,10754.36188375,1,2,1580907038.60305,1580903939.50652,2106,0.4568741,0,0,2639.329,9,7,1580906940.646764,10752.446746,0,22.00787,96.94772
1580907039.25543,152,0,1580907038.997718,41.209540353325,29.07642247669283,204.0691,-1,-1,25.75463104248047,48.00724964208526,-9999,10755.045266,0.95941162109375,0.1310272216796875,-0.1243438720703125,10755.04023,0.4908881868657356,1.429755402280403,-0.09891718549808833,0.004527083598077297,-0.1435627192258835,-0.2789022326469421,-0.01974797248840332,0.02578853070735931,0.01204746961593628,2,0.1953050528788279,-0.6260292638869691,-0.1518361902531278,-0.7395193978964747,0.9852303266525269,0.09875595569610596,-0.1398865878582001,47.65532684326172,3.008010864257812,9.38037109375,2,10754.36188375,1,2,1580907038.60305,1580903939.50652,2106,0.4568741,0,0,2639.329,9,7,1580906940.646764,10752.446746,0,22.00787,96.94772
1580907039.266864,153,0,1580907038.997718,41.209540353325,29.07642247669283,204.0691,-1,-1,25.75463104248047,48.00724964208526,-9999,10755.055306,0.970062255859375,0.11810302734375,-0.13232421875,10755.050271,0.4904097058203875,1.427926776559656,-0.1015148744846245,0.01086290925741196,-0.1817175000905991,-0.2632905244827271,-0.03021842241287231,0.02997242659330368,0.0147775411605835,2,0.1959572440700384,-0.6251202012054482,-0.1510016490799831,-0.7402864125505242,0.9847157001495361,0.1013406068086624,-0.14165098965168,47.65532684326172,3.008010864257812,9.38037109375,2,10754.36188375,1,2,1580907038.60305,1580903939.50652,2106,0.4568741,0,0,2639.329,9,7,1580906940.646764,10752.446746,0,22.00787,96.94772
1580907039.275517,154,0,1580907038.997718,41.209540353325,29.07642247669283,204.0691,-1,-1,25.75463104248047,48.00724964208526,-9999,10755.065346,0.97314453125,0.1083984375,-0.1433258056640625,10755.060311,0.489936865368003,1.426118939451004,-0.1041317139657734,0.005686788819730282,-0.174527496099472,-0.2642724514007568,-0.01870739459991455,0.01877235621213913,0.01283043622970581,2,0.1966211770193841,-0.6242146986228142,-0.1501619755197577,-0.7410449231124319,0.9841923117637634,0.1039436236023903,-0.1433922499418259,47.77140045166016,3.116456985473633,9.154388427734375,2,10754.36188375,1,2,1580907038.60305,1580903939.50652,2106,0.4568741,0,0,2639.329,9,7,1580906940.646764,10752.446746,0,22.00787,96.94772
1580907039.285638,155,0,1580907038.997718,41.209540353325,29.07642247669283,204.0691,-1,-1,25.75463104248047,48.00724964208526,-9999,10755.075387,0.9876708984375,0.0976104736328125,-0.1422882080078125,10755.070351,0.4896000395300405,1.424358328036662,-0.1069639858545536,-0.006497127935290337,-0.1727187782526016,-0.2836290001869202,-0.01406741142272949,0.003101035952568054,0.001538336277008057,2,0.1974106113708472,-0.6232883993378354,-0.1492998162551762,-0.7417884472426918,0.9836429953575134,0.106760136783123,-0.1450812369585037,47.77140045166016,3.116456985473633,9.154388427734375,2,10754.36188375,1,2,1580907038.60305,1580903939.50652,2106,0.4568741,0,0,2639.329,9,7,1580906940.646764,10752.446746,0,22.00787,96.94772
1580907039.308227,156,0,1580907038.997718,41.209540353325,29.07642247669283,204.0691,-1,-1,25.75463104248047,48.00724964208526,-9999,10755.085457,0.9979705810546875,0.1046295166015625,-0.14215087890625,10755.080391,0.4893301773624857,1.422669031293939,-0.1101079851772741,-0.02251337841153145,-0.1635899990797043,-0.3124792873859406,-0.003839015960693359,-0.008439682424068451,0.001963496208190918,2,0.1983405146353331,-0.6223462136213423,-0.14835646069183,-0.7425204992019624,0.983059823513031,0.1098856329917908,-0.1466924548149109,47.78723907470703,3.224079132080078,9.162261962890625,2,10754.36188375,1,2,1580907038.60305,1580903939.50652,2106,0.4568741,0,0,2639.329,9,7,1580906940.646764,10752.446746,0,22.00787,96.94772
1580907039.309072,157,0,1580907038.997718,41.209540353325,29.07642247669283,204.0691,-1,-1,25.75463104248047,48.00724964208526,-9999,10755.095498,0.9956817626953125,0.1141357421875,-0.1391143798828125,10755.090432,0.4890422708597641,1.420871993615909,-0.1135154000428749,-0.02207390964031219,-0.17849200963974,-0.3405300676822662,0.01258140802383423,-0.01459595561027527,0.003478825092315674,2,0.199353810899682,-0.6213348990095259,-0.1473338031535824,-0.743299149128466,0.9824185371398926,0.1132717654109001,-0.1484020054340363,47.78723907470703,3.224079132080078,9.162261962890625,2,10754.36188375,1,2,1580907038.60305,1580903939.50652,2106,0.4568741,0,0,2639.329,9,7,1580906940.646764,10752.446746,0,22.00787,96.94772
1580907039.316774,158,0,1580907038.997718,41.209540353325,29.07642247669283,204.0691,-1,-1,25.75463104248047,48.00724964208526,-9999,10755.105538,0.9857025146484375,0.1185302734375,-0.1432342529296875,10755.100472,0.4887031213473187,1.41902757888003,-0.1171167853448709,-0.02265234664082527,-0.181269958615303,-0.3594052195549011,0.012581467628479,-0.003701575100421906,0.008818149566650391,2,0.2004195999979799,-0.6202873810265214,-0.1462360493171025,-0.7441038335454824,0.9817335605621338,0.1168492361903191,-0.1501511037349701,47.75786590576172,3.45939826965332,9.1031494140625,2,10754.36188375,1,2,1580907038.60305,1580903939.50652,2106,0.4568741,0,0,2639.329,9,7,1580906940.646764,10752.446746,0,22.00787,96.94772
1580907039.325744,159,0,1580907038.997718,41.209540353325,29.07642247669283,204.0691,-1,-1,25.75463104248047,48.00724964208526,-9999,10755.115578,0.980438232421875,0.1221160888671875,-0.1478729248046875,10755.110512,0.4883390154851205,1.417166765798465,-0.1209066251949499,-0.02184569276869297,-0.182010143995285,-0.3808614909648895,0.005816936492919922,-0.004177935421466827,0.008413314819335938,2,0.2015465640530233,-0.619212874254259,-0.1450717561343419,-0.7449218072204066,0.9810077548027039,0.1206122636795044,-0.1519088000059128,47.75786590576172,3.45939826965332,9.1031494140625,2,10754.36188375,1,2,1580907038.60305,1580903939.50652,2106,0.4568741,0,0,2639.329,9,7,1580906940.646764,10752.446746,0,22.00787,96.94772
1580907039.33586,160,0,1580907038.997718,41.209540353325,29.07642247669283,204.0691,-1,-1,25.75463104248047,48.00724964208526,-9999,10755.125618,0.9856719970703125,0.1257781982421875,-0.1474609375,10755.120583,0.4879387123345746,1.415289987483731,-0.1247743395541945,-0.02244117483496666,-0.182273268699646,-0.3846181631088257,-0.002016842365264893,-0.003600850701332092,0.004234075546264648,2,0.2026912337835657,-0.6181246933923692,-0.1438722444868915,-0.7457471120579018,0.9802526831626892,0.1244508326053619,-0.1536762565374374,47.54502105712891,3.743440628051758,8.984405517578125,2,10754.36188375,1,2,1580907038.60305,1580903939.50652,2106,0.4568741,0,0,2639.329,9,7,1580906940.646764,10752.446746,0,22.00787,96.94772
1580907039.345863,161,0,1580907038.997718,41.209540353325,29.07642247669283,204.0691,-1,-1,25.75463104248047,48.00724964208526,-9999,10755.135659,0.987579345703125,0.1291656494140625,-0.143280029296875,10755.130623,0.4875449978269969,1.413371386662772,-0.1286883599856194,-0.02186193689703941,-0.1871753484010696,-0.3923059105873108,0.002035558223724365,-0.003663048148155212,0.005721032619476318,2,0.2038535746225073,-0.6170122754238889,-0.1426662769147602,-0.7465828060149517,0.9794675707817078,0.1283334642648697,-0.1554791480302811,47.54502105712891,3.743440628051758,8.984405517578125,2,10754.36188375,1,2,1580907038.60305,1580903939.50652,2106,0.4568741,0,0,2639.329,9,7,1580906940.646764,10752.446746,0,22.00787,96.94772
1580907039.369125,162,0,1580907038.997718,41.209540353325,29.07642247669283,204.0691,-1,-1,25.75463104248047,48.00724964208526,-9999,10755.145699,0.9897918701171875,0.13922119140625,-0.1366119384765625,10755.140664,0.4870785931912326,1.411330361568409,-0.1325915080668357,-0.01938626356422901,-0.1972956359386444,-0.3919032216072083,0.006810903549194336,-0.004948407411575317,0.01016157865524292,2,0.2049828101384144,-0.615859920406458,-0.1414508990023838,-0.7474559053983179,0.9786462783813477,0.1322033405303955,-0.1573972105979919,47.68521881103516,4.115139007568359,8.8955078125,2,10754.36188375,1,2,1580907038.60305,1580903939.50652,2106,0.4568741,0,0,2639.329,9,7,1580906940.646764,10752.446746,0,22.00787,96.94772
1580907039.37013,163,0,1580907038.997718,41.209540353325,29.07642247669283,204.0691,-1,-1,25.75463104248047,48.00724964208526,-9999,10755.155739,1.000396728515625,0.1527862548828125,-0.1290283203125,10755.150704,0.4864596010626103,1.408975522832401,-0.1364213094464264,-0.0008208202198147774,-0.2282065898180008,-0.3868490159511566,0.007906794548034668,-0.0008336305618286133,0.01872044801712036,2,0.2060186303647225,-0.6146112955232337,-0.1402360170024806,-0.7484270515808933,0.9777659177780151,0.135998547077179,-0.1596185564994812,47.68521881103516,4.115139007568359,8.8955078125,2,10754.36188375,1,2,1580907038.60305,1580903939.50652,2106,0.4568741,0,0,2639.329,9,7,1580906940.646764,10752.446746,0,22.00787,96.94772
