loggingTime,loggingSample,identifierForVendor,locationTimestamp_since1970,locationLatitude,locationLongitude,locationAltitude,locationSpeed,locationCourse,locationVerticalAccuracy,locationHorizontalAccuracy,locationFloor,accelerometerTimestamp_sinceReboot,accelerometerAccelerationX,accelerometerAccelerationY,accelerometerAccelerationZ,motionTimestamp_sinceReboot,motionYaw,motionRoll,motionPitch,motionRotationRateX,motionRotationRateY,motionRotationRateZ,motionUserAccelerationX,motionUserAccelerationY,motionUserAccelerationZ,motionAttitudeReferenceFrame,motionQuaternionX,motionQuaternionY,motionQuaternionZ,motionQuaternionW,motionGravityX,motionGravityY,motionGravityZ,motionMagneticFieldX,motionMagneticFieldY,motionMagneticFieldZ,motionMagneticFieldCalibrationAccuracy,activityTimestamp_sinceReboot,activity,activityActivityConfidence,activityActivityStartDate,pedometerStartDate,pedometerNumberofSteps,pedometerAverageActivePace,pedometerCurrentPace,pedometerCurrentCadence,pedometerDistance,pedometerFloorAscended,pedometerFloorDescended,pedometerEndDate,altimeterTimestamp_sinceReboot,altimeterReset,altimeterRelativeAltitude,altimeterPressure
1580905915.053241,1,0,1580904337.000819,41.20701635159924,29.07533761282497,172.748,-1,-1,5.74967098236084,48.00724964208526,-9999,9630.802784416668,0.989471435546875,0.11529541015625,-0.146759033203125,9630.797749416668,0.7098532779328478,1.410380785621002,-0.1320871701913125,-0.002533024176955223,-0.001748623326420784,-0.001467463560402393,-0.02675104141235352,-0.02478028833866119,0.009459495544433594,2,0.2718875882155617,-0.5889894735692925,-0.2239459107781795,-0.7273354917993383,0.9785621166229248,0.1317034214735031,-0.1583370715379715,23.8408203125,-10.03635025024414,9.019134521484375,2,9630.755299416667,2,0,1580905914.996466,1580903939.50652,1577,0.4102195,0,0,2131.439,1,0,1580905796.492468,9627.767836000001,0,14.57504,97.0339
1580905915.076065,2,0,1580904337.000819,41.20701635159924,29.07533761282497,172.748,-1,-1,5.74967098236084,48.00724964208526,-9999,9630.812825416668,0.9660491943359375,0.1080474853515625,-0.1590576171875,9630.807789416667,0.7096812342768909,1.410162457663442,-0.1320616656900252,0.02055617049336433,-0.02041411772370338,-0.002783417701721191,0.00927579402923584,-0.01660677790641785,0.0103607177734375,2,0.2718035751349139,-0.5889373348722325,-0.2239209739422847,-0.7274168079642598,0.9785308837890625,0.1316781342029572,-0.1585512608289719,23.8408203125,-10.03635025024414,9.019134521484375,2,9630.755299416667,2,0,1580905914.996466,1580903939.50652,1577,0.4102195,0,0,2131.439,1,0,1580905796.492468,9627.767836000001,0,14.57504,97.0339
1580905915.077345,3,0,1580904337.000819,41.20701635159924,29.07533761282497,172.748,-1,-1,5.74967098236084,48.00724964208526,-9999,9630.822865416667,0.963653564453125,0.107391357421875,-0.1468963623046875,9630.817829416666,0.7095750157531987,1.409946496008802,-0.1321038287680788,0.006188149563968182,-0.02006817236542702,-0.007788562681525946,-0.01410681009292603,-0.02389658987522125,-0.001727461814880371,2,0.271762887640704,-0.588866795412935,-0.2238985223009934,-0.7274958415305178,0.9784908890724182,0.1317199319601059,-0.158761665225029,23.87192535400391,-9.926254272460938,8.94976806640625,2,9630.755299416667,2,0,1580905914.996466,1580903939.50652,1577,0.4102195,0,0,2131.439,1,0,1580905796.492468,9627.767836000001,0,14.57504,97.0339
1580905915.078306,4,0,1580904337.000819,41.20701635159924,29.07533761282497,172.748,-1,-1,5.74967098236084,48.00724964208526,-9999,9630.832905416668,0.96771240234375,0.104583740234375,-0.155670166015625,9630.827870416668,0.7094114932281742,1.40971182902181,-0.1321060292131819,0.01850296184420586,-0.01836639270186424,-0.001413744874298573,-0.0164647102355957,-0.02455492317676544,0.01066386699676514,2,0.2716892375954776,-0.5888033136612073,-0.2238702351304517,-0.7275834478258907,0.9784533381462097,0.1317221075296402,-0.1589912325143814,23.87192535400391,-9.926254272460938,8.94976806640625,2,9630.755299416667,2,0,1580905914.996466,1580903939.50652,1577,0.4102195,0,0,2131.439,1,0,1580905796.492468,9627.767836000001,0,14.57504,97.0339
1580905915.07929,5,0,1580904337.000819,41.20701635159924,29.07533761282497,172.748,-1,-1,5.74967098236084,48.00724964208526,-9999,9630.842976416667,0.96783447265625,0.111968994140625,-0.1474761962890625,9630.837910416667,0.709311468350859,1.409434342398441,-0.1321414533280904,0.008596270345151424,-0.02522403188049793,-0.006578146480023861,-0.01235693693161011,-0.02739767730236053,0.002161383628845215,2,0.2716410697266162,-0.5887105651846419,-0.2238604951416567,-0.7276795532192831,0.978404700756073,0.1317572295665741,-0.1592620015144348,23.98321533203125,-10.04433059692383,8.8485107421875,2,9630.755299416667,2,0,1580905914.996466,1580903939.50652,1577,0.4102195,0,0,2131.439,1,0,1580905796.492468,9627.767836000001,0,14.57504,97.0339
1580905915.080467,6,0,1580904337.000819,41.20701635159924,29.07533761282497,172.748,-1,-1,5.74967098236084,48.00724964208526,-9999,9630.853016416668,0.964599609375,0.1126251220703125,-0.161651611328125,9630.847950416668,0.7092307693314106,1.409125968482794,-0.1321365359665578,0.007029708474874496,-0.02908110991120338,-0.0003551472909748554,-0.01218640804290771,-0.02000756561756134,0.01065742969512939,2,0.2715811239938322,-0.5886100581192729,-0.2238745345076416,-0.7277787802474449,0.9783560037612915,0.1317523568868637,-0.1595637798309326,23.98321533203125,-10.04433059692383,8.8485107421875,2,9630.755299416667,2,0,1580905914.996466,1580903939.50652,1577,0.4102195,0,0,2131.439,1,0,1580905796.492468,9627.767836000001,0,14.57504,97.0339
1580905915.086313,7,0,1580904337.000819,41.20701635159924,29.07533761282497,172.748,-1,-1,5.74967098236084,48.00724964208526,-9999,9630.863057416667,0.96234130859375,0.112091064453125,-0.152618408203125,9630.857991416668,0.7090888285828336,1.408801782757982,-0.1321455591927425,0.01559336856007576,-0.0282006673514843,-0.005285191349685192,-0.01536810398101807,-0.01936037838459015,-0.003200232982635498,2,0.2715061760356527,-0.5885099886358917,-0.2238640912602916,-0.7278910018211818,0.9783031940460205,0.13176129758358,-0.1598807722330093,23.76689147949219,-9.776344299316406,8.950408935546875,2,9630.755299416667,2,0,1580905914.996466,1580903939.50652,1577,0.4102195,0,0,2131.439,1,0,1580905796.492468,9627.767836000001,0,14.57504,97.0339
1580905915.105523,8,0,1580904337.000819,41.20701635159924,29.07533761282497,172.748,-1,-1,5.74967098236084,48.00724964208526,-9999,9630.873097416666,0.972747802734375,0.109466552734375,-0.1518096923828125,9630.868031416667,0.7090132915593663,1.408396935681584,-0.1321281184973674,0.005678691901266575,-0.03950796276330948,0.0004562865942716599,-0.01756364107131958,-0.0198771208524704,0.006230056285858154,2,0.2714325686875605,-0.5883755333068976,-0.2238969795789593,-0.7280169438161931,0.9782406091690063,0.1317440122365952,-0.1602771878242493,23.76689147949219,-9.776344299316406,8.950408935546875,2,9630.755299416667,2,0,1580905914.996466,1580903939.50652,1577,0.4102195,0,0,2131.439,1,0,1580905796.492468,9627.767836000001,0,14.57504,97.0339
1580905915.106588,9,0,1580904337.000819,41.20701635159924,29.07533761282497,172.748,-1,-1,5.74967098236084,48.00724964208526,-9999,9630.883137416668,0.96343994140625,0.1044464111328125,-0.152099609375,9630.878071416668,0.7088871186579379,1.40798617202609,-0.1321209171569289,0.01285085082054138,-0.03743575885891914,-0.001988761592656374,-0.007092118263244629,-0.02249446511268616,0.007441461086273193,2,0.271346943255362,-0.5882442159198121,-0.2239090323814398,-0.7281512954413526,0.9781756401062012,0.1317368745803833,-0.1606791615486145,23.7222900390625,-9.790225982666016,8.978485107421875,2,9630.755299416667,2,0,1580905914.996466,1580903939.50652,1577,0.4102195,0,0,2131.439,1,0,1580905796.492468,9627.767836000001,0,14.57504,97.0339
1580905915.116322,10,0,1580904337.000819,41.20701635159924,29.07533761282497,172.748,-1,-1,5.74967098236084,48.00724964208526,-9999,9630.893177416667,0.9774322509765625,0.109375,-0.1509552001953125,9630.888142416667,0.7088010941108517,1.407455796974233,-0.1321559110794167,0.004422962665557861,-0.05213743448257446,-0.006059244275093079,-0.01631009578704834,-0.0275493860244751,0.007670283317565918,2,0.2712744993667193,-0.5880574439754767,-0.2239387525350569,-0.7283199503414969,0.9780856966972351,0.1317715644836426,-0.1611971706151962,23.7222900390625,-9.790225982666016,8.978485107421875,2,9630.755299416667,2,0,1580905914.996466,1580903939.50652,1577,0.4102195,0,0,2131.439,1,0,1580905796.492468,9627.767836000001,0,14.57504,97.0339
1580905915.126315,11,0,1580904337.000819,41.20701635159924,29.07533761282497,172.748,-1,-1,5.74967098236084,48.00724964208526,-9999,9630.903211250001,0.962371826171875,0.107574462890625,-0.1611785888671875,9630.898182416668,0.7086498291152645,1.406803606461339,-0.1321708289859841,0.01540663745254278,-0.06378316879272461,-0.003833640832453966,-0.002210259437561035,-0.02263557910919189,0.009453475475311279,2,0.2711621651863613,-0.5878381619396814,-0.2239674678648246,-0.7285300952576979,0.9779785871505737,0.1317863464355469,-0.1618347465991974,23.85031890869141,-10.00654983520508,8.879486083984375,2,9630.755299416667,2,0,1580905914.996466,1580903939.50652,1577,0.4102195,0,0,2131.439,1,0,1580905796.492468,9627.767836000001,0,14.57504,97.0339
1580905915.136531,12,0,1580904337.000819,41.20701635159924,29.07533761282497,172.748,-1,-1,5.74967098236084,48.00724964208526,-9999,9630.91325125,0.9616241455078125,0.1088714599609375,-0.159210205078125,9630.90821625,0.7084978855791098,1.406167938630865,-0.1322217469014096,0.01450738776475191,-0.06088903546333313,-0.009012116119265556,-0.01716089248657227,-0.0244867354631424,-0.0001485347747802734,2,0.2710641715910832,-0.5876194231383457,-0.2239824172842164,-0.7287382463373202,0.9778687357902527,0.1318368166685104,-0.1624552607536316,23.85031890869141,-10.00654983520508,8.879486083984375,2,9630.755299416667,2,0,1580905914.996466,1580903939.50652,1577,0.4102195,0,0,2131.439,1,0,1580905796.492468,9627.767836000001,0,14.57504,97.0339
1580905915.146505,13,0,1580904337.000819,41.20701635159924,29.07533761282497,172.748,-1,-1,5.74967098236084,48.00724964208526,-9999,9630.923291250001,0.9585723876953125,0.100341796875,-0.1651611328125,9630.918256250001,0.7083553526044062,1.405568694691662,-0.1322428567445711,0.01417688932269812,-0.05829724669456482,-0.003982204012572765,-0.01780831813812256,-0.02321070432662964,0.002406120300292969,2,0.270962560540621,-0.5874171537670599,-0.2240051086946576,-0.7289321298656467,0.9777684807777405,0.1318577527999878,-0.1630407571792603,23.88391876220703,-9.869693756103516,8.864837646484375,2,9630.755299416667,2,0,1580905914.996466,1580903939.50652,1577,0.4102195,0,0,2131.439,1,0,1580905796.492468,9627.767836000001,0,14.57504,97.0339
1580905915.167798,14,0,1580904337.000819,41.20701635159924,29.07533761282497,172.748,-1,-1,5.74967098236084,48.00724964208526,-9999,9630.93333125,0.9594573974609375,0.10491943359375,-0.162261962890625,9630.92829625,0.7082616610166482,1.405077179489748,-0.1323303094545071,0.007405444048345089,-0.04943304508924484,-0.01220185495913029,-0.02076840400695801,-0.03182719647884369,-0.003065228462219238,2,0.2709105546264594,-0.5872373908642761,-0.224010335835123,-0.7290947475910545,0.9776769280433655,0.1319444328546524,-0.1635194420814514,23.88391876220703,-9.869693756103516,8.864837646484375,2,9630.755299416667,2,0,1580905914.996466,1580903939.50652,1577,0.4102195,0,0,2131.439,1,0,1580905796.492468,9627.767836000001,0,14.57504,97.0339
1580905915.16879,15,0,1580904337.000819,41.20701635159924,29.07533761282497,172.748,-1,-1,5.74967098236084,48.00724964208526,-9999,9630.94337225,0.9598846435546875,0.107025146484375,-0.16864013671875,9630.938336250001,0.7081964638498632,1.404726679522689,-0.1324068797528835,0.003194986842572689,-0.03095310553908348,-0.007412958424538374,-0.01981586217880249,-0.02732561528682709,0.0001755356788635254,2,0.2708789478866275,-0.5871067904521283,-0.2240102180449846,-0.7292116615990721,0.9776095151901245,0.1320203393697739,-0.1638604253530502,23.83021545410156,-10.0806884765625,8.863067626953125,2,9630.755299416667,2,0,1580905914.996466,1580903939.50652,1577,0.4102195,0,0,2131.439,1,0,1580905796.492468,9627.767836000001,0,14.57504,97.0339
1580905915.176697,16,0,1580904337.000819,41.20701635159924,29.07533761282497,172.748,-1,-1,5.74967098236084,48.00724964208526,-9999,9630.95344325,0.9594879150390625,0.1018829345703125,-0.160675048828125,9630.948377250001,0.7081278673495437,1.404468097206907,-0.1324858452926861,0.005780474282801151,-0.02870872989296913,-0.008978027850389481,-0.01933592557907104,-0.02529829740524292,-0.005951166152954102,2,0.2708574479850527,-0.5870097886704022,-0.2239956707908973,-0.7293022855785977,0.9775569438934326,0.1320986151695251,-0.1641114950180054,23.85578155517578,-9.92755126953125,8.865020751953125,2,9630.755299416667,2,0,1580905914.996466,1580903939.50652,1577,0.4102195,0,0,2131.439,1,0,1580905796.492468,9627.767836000001,0,14.57504,97.0339
1580905915.186692,17,0,1580904337.000819,41.20701635159924,29.07533761282497,172.748,-1,-1,5.74967098236084,48.00724964208526,-9999,9630.963483250001,0.9522552490234375,0.10687255859375,-0.1642913818359375,9630.95841725,0.7081463994928935,1.404403366596931,-0.132591117186012,-0.00622878409922123,-0.00725110899657011,-0.01219459343701601,-0.01970839500427246,-0.03054505586624146,0.002074718475341797,2,0.2708925078222647,-0.5869676529861545,-0.2239784439264309,-0.7293283301054753,0.9775324463844299,0.1322029531002045,-0.1641724407672882,23.85578155517578,-9.92755126953125,8.865020751953125,2,9630.755299416667,2,0,1580905914.996466,1580903939.50652,1577,0.4102195,0,0,2131.439,1,0,1580905796.492468,9627.767836000001,0,14.57504,97.0339
1580905915.196691,18,0,1580904337.000819,41.20701635159924,29.07533761282497,172.748,-1,-1,5.74967098236084,48.00724964208526,-9999,9630.973523250001,0.952392578125,0.112640380859375,-0.1605224609375,9630.968457250001,0.7081436092661099,1.404477096253015,-0.1326962416850914,0.0007728338241577148,0.007436681538820267,-0.01188863813877106,-0.02693945169448853,-0.02565979957580566,-0.001616120338439941,2,0.2709367135023297,-0.5869789258524655,-0.2239347438915373,-0.7293162754548671,0.977530837059021,0.132307156920433,-0.1640980690717697,23.89527130126953,-9.996097564697266,8.723297119140625,2,9630.755299416667,2,0,1580905914.996466,1580903939.50652,1577,0.4102195,0,0,2131.439,1,0,1580905796.492468,9627.767836000001,0,14.57504,97.0339
1580905915.210193,19,0,1580904337.000819,41.20701635159924,29.07533761282497,172.748,-1,-1,5.74967098236084,48.00724964208526,-9999,9630.98356325,0.96124267578125,0.111297607421875,-0.1607513427734375,9630.97849825,0.7081998485111324,1.404647680671231,-0.1327925478510825,-0.009057425893843174,0.01498701050877571,-0.01032882370054722,-0.0268176794052124,-0.01998762786388397,0.001983761787414551,2,0.2710059636739807,-0.5870188645232866,-0.2239021925931238,-0.7292685259654065,0.9775463938713074,0.1324026137590408,-0.1639292389154434,23.89527130126953,-9.996097564697266,8.723297119140625,2,9630.755299416667,2,0,1580905914.996466,1580903939.50652,1577,0.4102195,0,0,2131.439,1,0,1580905796.492468,9627.767836000001,0,14.57504,97.0339
1580905915.233911,20,0,1580904337.000819,41.20701635159924,29.07533761282497,172.748,-1,-1,5.74967098236084,48.00724964208526,-9999,9630.993604250001,0.952117919921875,0.107879638671875,-0.1600341796875,9630.98853825,0.7082181061106154,1.404900986943781,-0.1328489454385947,-0.0001122662797570229,0.02531717158854008,-0.005482522305101156,-0.01800185441970825,-0.02138641476631165,0.001505374908447266,2,0.2710594381010092,-0.5871001623847313,-0.2238569695060313,-0.7291969752300393,0.9775804281234741,0.1324585229158401,-0.1636803597211838,23.92230987548828,-9.771987915039062,8.86932373046875,2,9630.755299416667,2,0,1580905914.996466,1580903939.50652,1577,0.4102195,0,0,2131.439,1,0,1580905796.492468,9627.767836000001,0,14.57504,97.0339
1580905915.235139,21,0,1580904337.000819,41.20701635159924,29.07533761282497,172.748,-1,-1,5.74967098236084,48.00724964208526,-9999,9631.00364425,0.9639129638671875,0.1038818359375,-0.158966064453125,9630.99860925,0.7083295313827406,1.405243023318576,-0.1329504802076715,-0.01493089366704226,0.03330691903829575,-0.01021682377904654,-0.02716940641403198,-0.02490521967411041,0.001885414123535156,2,0.2711659249130426,-0.5871943073922268,-0.22381963715049,-0.7290930665879192,0.9776231050491333,0.1325591504573822,-0.1633437722921371,23.92230987548828,-9.771987915039062,8.86932373046875,2,9630.755299416667,2,0,1580905914.996466,1580903939.50652,1577,0.4102195,0,0,2131.439,1,0,1580905796.492468,9627.767836000001,0,14.57504,97.0339
1580905915.236916,22,0,1580904337.000819,41.20701635159924,29.07533761282497,172.748,-1,-1,5.74967098236084,48.00724964208526,-9999,9631.013684250001,0.969451904296875,0.0995635986328125,-0.16448974609375,9631.008649250001,0.708425836121781,1.405611486983261,-0.1330439024830538,-0.01017546467483044,0.03686140850186348,-0.008388849906623363,-0.01542240381240845,-0.02899575233459473,0.002590596675872803,2,0.271268075677507,-0.5873013464375449,-0.2237757057908969,-0.7289823926969896,0.9776710867881775,0.132651761174202,-0.1629815250635147,23.94130706787109,-10.01634979248047,8.81597900390625,2,9630.755299416667,2,0,1580905914.996466,1580903939.50652,1577,0.4102195,0,0,2131.439,1,0,1580905796.492468,9627.767836000001,0,14.57504,97.0339
1580905915.24691,23,0,1580904337.000819,41.20701635159924,29.07533761282497,172.748,-1,-1,5.74967098236084,48.00724964208526,-9999,9631.023725250001,0.9664764404296875,0.1102752685546875,-0.1587677001953125,9631.018689250001,0.7085527868140046,1.405949531783468,-0.1332329105529625,-0.01688103750348091,0.03099393472075462,-0.01888436824083328,-0.00991368293762207,-0.03350162506103516,-0.00326836109161377,2,0.2714092844510376,-0.5873785538745546,-0.2237172698477904,-0.7288854251564088,0.9777012467384338,0.1328390836715698,-0.1626468747854233,23.94130706787109,-10.01634979248047,8.81597900390625,2,9630.755299416667,2,0,1580905914.996466,1580903939.50652,1577,0.4102195,0,0,2131.439,1,0,1580905796.492468,9627.767836000001,0,14.57504,97.0339
1580905915.257055,24,0,1580904337.000819,41.20701635159924,29.07533761282497,172.748,-1,-1,5.74967098236084,48.00724964208526,-9999,9631.03376525,0.9629058837890625,0.1100921630859375,-0.1649627685546875,9631.02872925,0.708663023179502,1.406273838620611,-0.1334552036604562,-0.01448872126638889,0.03095531836152077,-0.02035310119390488,-0.01291286945343018,-0.02301067113876343,0.002131283283233643,2,0.2715555792509135,-0.587447939885324,-0.2236442208177524,-0.7287975539651941,0.9777249097824097,0.1330594122409821,-0.1623249650001526,24.09396362304688,-9.854389190673828,8.89471435546875,2,9630.755299416667,2,0,1580905914.996466,1580903939.50652,1577,0.4102195,0,0,2131.439,1,0,1580905796.492468,9627.767836000001,0,14.57504,97.0339
1580905915.269103,25,0,1580904337.000819,41.20701635159924,29.07533761282497,172.748,-1,-1,5.74967098236084,48.00724964208526,-9999,9631.043805250001,0.9668121337890625,0.1041412353515625,-0.160919189453125,9631.038770250001,0.7087836835900976,1.406615855068259,-0.1336711710583953,-0.01658729091286659,0.031671442091465,-0.02217763289809227,-0.01651060581207275,-0.0234081894159317,-0.004403650760650635,2,0.2717047573469002,-0.5875232806913843,-0.2235744737052145,-0.7287024978983577,0.9777518510818481,0.1332734525203705,-0.161985844373703,24.09396362304688,-9.854389190673828,8.89471435546875,2,9630.755299416667,2,0,1580905914.996466,1580903939.50652,1577,0.4102195,0,0,2131.439,1,0,1580905796.492468,9627.767836000001,0,14.57504,97.0339
1580905915.290869,26,0,1580904337.000819,41.20701635159924,29.07533761282497,172.748,-1,-1,5.74967098236084,48.00724964208526,-9999,9631.05384525,0.960296630859375,0.104461669921875,-0.155029296875,9631.04881025,0.708938900075508,1.406977926864039,-0.1338128766492801,-0.01694533415138721,0.03620060533285141,-0.01123221777379513,-0.01264429092407227,-0.02949978411197662,-0.0007176995277404785,2,0.2718402951225378,-0.5876125232885092,-0.2235376931353875,-0.728591377497618,0.977791965007782,0.1334138959646225,-0.1616287529468536,23.93103790283203,-9.942214965820312,8.941802978515625,2,9630.755299416667,2,0,1580905914.996466,1580903939.50652,1577,0.4102195,0,0,2131.439,1,0,1580905796.492468,9627.767836000001,0,14.57504,97.0339
1580905915.292287,27,0,1580904337.000819,41.20701635159924,29.07533761282497,172.748,-1,-1,5.74967098236084,48.00724964208526,-9999,9631.063916250001,0.957489013671875,0.1113433837890625,-0.15545654296875,9631.058850250001,0.7091061464625718,1.407363365045834,-0.133939451044341,-0.0183861032128334,0.03687385469675064,-0.01145033072680235,-0.01920551061630249,-0.02930501103401184,0.00479203462600708,2,0.2719767155835582,-0.5877109051952818,-0.2235067817094615,-0.7284705995557511,0.9778375029563904,0.1335393339395523,-0.161249116063118,23.93103790283203,-9.942214965820312,8.941802978515625,2,9630.755299416667,2,0,1580905914.996466,1580903939.50652,1577,0.4102195,0,0,2131.439,1,0,1580905796.492468,9627.767836000001,0,14.57504,97.0339
1580905915.297305,28,0,1580904337.000819,41.20701635159924,29.07533761282497,172.748,-1,-1,5.74967098236084,48.00724964208526,-9999,9631.07395625,0.968780517578125,0.1161041259765625,-0.15753173828125,9631.068891250001,0.7092361177882706,1.407740762459132,-0.1339193014983679,-0.01370792649686337,0.03568214923143387,0.003986189141869545,-0.02207672595977783,-0.0224032998085022,0.003995358943939209,2,0.2720500852934892,-0.5878337413858076,-0.2235090601087679,-0.7283432767250779,0.9779008030891418,0.1335193663835526,-0.1608804911375046,23.97774505615234,-9.817829132080078,8.99859619140625,2,9630.755299416667,2,0,1580905914.996466,1580903939.50652,1577,0.4102195,0,0,2131.439,1,0,1580905796.492468,9627.767836000001,0,14.57504,97.0339
1580905915.307264,29,0,1580904337.000819,41.20701635159924,29.07533761282497,172.748,-1,-1,5.74967098236084,48.00724964208526,-9999,9631.08399725,0.95733642578125,0.116912841796875,-0.147796630859375,9631.07893125,0.7092996283504174,1.408042030555159,-0.1337997718456456,-0.003623068332672119,0.03004077263176441,0.01172560080885887,-0.0108494758605957,-0.01752394437789917,0.001627564430236816,2,0.272060700874195,-0.5879530168225163,-0.2235284562176229,-0.7282370547446708,0.9779649376869202,0.1334009021520615,-0.1605884432792664,23.97774505615234,-9.817829132080078,8.99859619140625,2,9631.07673425,1,2,1580905915.317901,1580903939.50652,1577,0.4102195,0,0,2131.439,1,0,1580905796.492468,9627.767836000001,0,14.57504,97.0339
1580905915.317236,30,0,1580904337.000819,41.20701635159924,29.07533761282497,172.748,-1,-1,5.74967098236084,48.00724964208526,-9999,9631.094037250001,0.9617919921875,0.1144256591796875,-0.153076171875,9631.088971250001,0.7093237299264518,1.408262308212792,-0.1336110382326511,-0.0003312136977910995,0.02283142693340778,0.02057160809636116,-0.02235406637191772,-0.01652787625789642,0.01115065813064575,2,0.2720265428069507,-0.5880586866024333,-0.2235660902656434,-0.7281528785609873,0.9780250787734985,0.1332138627767563,-0.1603770852088928,24.06334686279297,-9.793663024902344,8.93408203125,2,9631.07673425,1,2,1580905915.317901,1580903939.50652,1577,0.4102195,0,0,2131.439,1,0,1580905796.492468,9627.767836000001,0,14.57504,97.0339
1580905915.329029,31,0,1580904337.000819,41.20701635159924,29.07533761282497,172.748,-1,-1,5.74967098236084,48.00724964208526,-9999,9631.10407725,0.9626617431640625,0.11053466796875,-0.1560821533203125,9631.09901125,0.7092036034693858,1.408408013870997,-0.1333408556907624,0.0174935907125473,0.01755570434033871,0.02352505549788475,-0.01795744895935059,-0.01874677836894989,0.00573432445526123,2,0.2719131643755452,-0.5881692159966357,-0.2235867673292696,-0.7280996975881467,0.9780840277671814,0.1329460740089417,-0.1602404117584229,24.06334686279297,-9.793663024902344,8.93408203125,2,9631.07673425,1,2,1580905915.317901,1580903939.50652,1577,0.4102195,0,0,2131.439,1,0,1580905796.492468,9627.767836000001,0,14.57504,97.0339
1580905915.351203,32,0,1580904337.000819,41.20701635159924,29.07533761282497,172.748,-1,-1,5.74967098236084,48.00724964208526,-9999,9631.114118250001,0.96392822265625,0.10662841796875,-0.1508941650390625,9631.109082250001,0.7091031517550329,1.408510911217006,-0.1330610824999451,0.01334779988974333,0.01105066016316414,0.0227869525551796,-0.01714086532592773,-0.02235999703407288,0.002633750438690186,2,0.2717974311057988,-0.5882629191666507,-0.2236234297202678,-0.7280560467446184,0.9781373143196106,0.1326687783002853,-0.1601457893848419,23.88145446777344,-9.974170684814453,8.84429931640625,2,9631.07673425,1,2,1580905915.317901,1580903939.50652,1577,0.4102195,0,0,2131.439,1,0,1580905796.492468,9627.767836000001,0,14.57504,97.0339
1580905915.35278,33,0,1580904337.000819,41.20701635159924,29.07533761282497,172.748,-1,-1,5.74967098236084,48.00724964208526,-9999,9631.124158250001,0.9643096923828125,0.1041412353515625,-0.1602020263671875,9631.11912325,0.7090085532302739,1.408617490390631,-0.1327801499282743,0.01529297325760126,0.01264962181448936,0.0245939064770937,-0.01592838764190674,-0.02598737180233002,0.007723212242126465,2,0.2716834770200158,-0.5883573072836683,-0.2236620810723892,-0.7280103535768567,0.9781910181045532,0.1323903352022171,-0.1600475311279297,23.88145446777344,-9.974170684814453,8.84429931640625,2,9631.07673425,1,2,1580905915.317901,1580903939.50652,1577,0.4102195,0,0,2131.439,1,0,1580905796.492468,9628.709907,0,14.60675,97.03355
1580905915.357398,34,0,1580904337.000819,41.20701635159924,29.07533761282497,172.748,-1,-1,5.74967098236084,48.00724964208526,-9999,9631.13419825,0.9656829833984375,0.10736083984375,-0.160888671875,9631.12916325,0.7089629135841876,1.408791003081177,-0.132528660423059,0.008190758526325226,0.01853752881288528,0.02203190699219704,-0.01560765504837036,-0.02822484076023102,-0.00174945592880249,2,0.2716016706277443,-0.5884649102264234,-0.2237002988419338,-0.7279421375695981,0.978251576423645,0.1321410536766052,-0.1598831713199615,23.89352416992188,-9.919654846191406,9.0264892578125,2,9631.07673425,1,2,1580905915.317901,1580903939.50652,1577,0.4102195,0,0,2131.439,1,0,1580905796.492468,9628.709907,0,14.60675,97.03355
1580905915.36743,35,0,1580904337.000819,41.20701635159924,29.07533761282497,172.748,-1,-1,5.74967098236084,48.00724964208526,-9999,9631.144238250001,0.9656524658203125,0.1090545654296875,-0.1653594970703125,9631.139203250001,0.7089475120253188,1.409033739239301,-0.1322998744340532,0.004737704060971737,0.02528491616249084,0.0218348316848278,-0.01430302858352661,-0.02477806806564331,-0.002668976783752441,2,0.2715444249924284,-0.5885901300351034,-0.2237330601753282,-0.7278521877004804,0.9783201813697815,0.1319142729043961,-0.1596505641937256,23.89352416992188,-9.919654846191406,9.0264892578125,2,9631.07673425,1,2,1580905915.317901,1580903939.50652,1577,0.4102195,0,0,2131.439,1,0,1580905796.492468,9628.709907,0,14.60675,97.03355
1580905915.377663,36,0,1580904337.000819,41.20701635159924,29.07533761282497,172.748,-1,-1,5.74967098236084,48.00724964208526,-9999,9631.15427925,0.9563446044921875,0.10394287109375,-0.1573028564453125,9631.14924325,0.7089223045089237,1.409374710406148,-0.1321310576159839,0.007240721955895424,0.03413164988160133,0.01464135851711035,-0.01441001892089844,-0.02291673421859741,-0.007470369338989258,2,0.2715162188216348,-0.5887432912264121,-0.2237302337531253,-0.7277397133649882,0.9783965349197388,0.131746917963028,-0.1593205630779266,23.91455841064453,-9.868385314941406,9.001251220703125,2,9631.07673425,1,2,1580905915.317901,1580903939.50652,1577,0.4102195,0,0,2131.439,1,0,1580905796.492468,9628.709907,0,14.60675,97.03355
1580905915.389147,37,0,1580904337.000819,41.20701635159924,29.07533761282497,172.748,-1,-1,5.74967098236084,48.00724964208526,-9999,9631.164319250001,0.9655609130859375,0.1027679443359375,-0.1523284912109375,9631.159284250001,0.7089935585844611,1.409821650544949,-0.1319884308884546,-0.007275636307895184,0.04291209205985069,0.01483044307678938,-0.02380770444869995,-0.0278867781162262,0.000151216983795166,2,0.2715374147157775,-0.588917902764664,-0.2237399609246243,-0.7275875312775523,0.978486180305481,0.1316055357456207,-0.1588862687349319,23.91455841064453,-9.868385314941406,9.001251220703125,2,9631.07673425,1,2,1580905915.317901,1580903939.50652,1577,0.4102195,0,0,2131.439,1,0,1580905796.492468,9628.709907,0,14.60675,97.03355
1580905915.413481,38,0,1580904337.000819,41.20701635159924,29.07533761282497,172.748,-1,-1,5.74967098236084,48.00724964208526,-9999,9631.17439025,0.9622802734375,0.104827880859375,-0.1494293212890625,9631.16932425,0.7090269407013665,1.410321433672778,-0.1318554057108964,0.000276198610663414,0.04931623116135597,0.01321152783930302,-0.01468807458877563,-0.02892962098121643,0.004638433456420898,2,0.2715567584697892,-0.589115374251425,-0.2237257370186141,-0.7274247432521725,0.9785826802253723,0.1314736753702164,-0.1583999991416931,23.88790130615234,-10.01827621459961,9.0986328125,2,9631.07673425,1,2,1580905915.317901,1580903939.50652,1577,0.4102195,0,0,2131.439,1,0,1580905796.492468,9628.709907,0,14.60675,97.03355
1580905915.414881,39,0,1580904337.000819,41.20701635159924,29.07533761282497,172.748,-1,-1,5.74967098236084,48.00724964208526,-9999,9631.184430250001,0.968475341796875,0.11260986328125,-0.1428985595703125,9631.17936425,0.7091270324888796,1.410783351652431,-0.1318178074841753,-0.01205716654658318,0.0448375903069973,0.00272879283875227,-0.0180467963218689,-0.02683235704898834,0.007085621356964111,2,0.2716247993312226,-0.5892754813673596,-0.2237111424521536,-0.7272741284294258,0.9786605834960938,0.1314363926649094,-0.1579487472772598,23.88790130615234,-10.01827621459961,9.0986328125,2,9631.07673425,1,2,1580905915.317901,1580903939.50652,1577,0.4102195,0,0,2131.439,1,0,1580905796.492468,9628.709907,0,14.60675,97.03355
1580905915.417608,40,0,1580904337.000819,41.20701635159924,29.07533761282497,172.748,-1,-1,5.74967098236084,48.00724964208526,-9999,9631.19447025,0.972747802734375,0.111297607421875,-0.157440185546875,9631.189404250001,0.7091458650390917,1.41111417083907,-0.1317623734384319,-0.0005879919044673443,0.03302216157317162,0.005758373998105526,-0.01191109418869019,-0.01899528503417969,0.01329338550567627,2,0.2716479871050638,-0.5894016385744781,-0.2236903651256955,-0.7271697140607887,0.9787201285362244,0.1313814371824265,-0.1576261520385742,23.99932098388672,-9.931999206542969,9.225067138671875,2,9631.07673425,1,2,1580905915.317901,1580903939.50652,1577,0.4102195,0,0,2131.439,1,0,1580905796.492468,9628.709907,0,14.60675,97.03355
1580905915.427689,41,0,1580904337.000819,41.20701635159924,29.07533761282497,172.748,-1,-1,5.74967098236084,48.00724964208526,-9999,9631.20451125,0.9698333740234375,0.107757568359375,-0.15252685546875,9631.19944525,0.7090695680836741,1.411287354169652,-0.1316906021883934,0.008443586528301239,0.01788289099931717,0.004229453392326832,-0.007675349712371826,-0.02023625373840332,-0.001416504383087158,2,0.2716198308144881,-0.5894858667105533,-0.2236615071113358,-0.7271208564316247,0.9787567257881165,0.131310299038887,-0.1574581563472748,23.99932098388672,-9.931999206542969,9.225067138671875,2,9631.07673425,1,2,1580905915.317901,1580903939.50652,1577,0.4102195,0,0,2131.439,1,0,1580905796.492468,9628.709907,0,14.60675,97.03355
1580905915.43771,42,0,1580904337.000819,41.20701635159924,29.07533761282497,172.748,-1,-1,5.74967098236084,48.00724964208526,-9999,9631.214551250001,0.965667724609375,0.099609375,-0.152923583984375,9631.209516250001,0.7089291577158534,1.411284877734297,-0.1316096969182732,0.01450311858206987,0.003122590482234955,0.005569162778556347,-0.01059991121292114,-0.02369600534439087,0.003500640392303467,2,0.2715500152608634,-0.5895163045247949,-0.2236360338034495,-0.7271298882811198,0.9787665605545044,0.1312300860881805,-0.1574622392654419,24.06314849853516,-9.918621063232422,9.217071533203125,2,9631.07673425,1,2,1580905915.317901,1580903939.50652,1577,0.4102195,0,0,2131.439,1,0,1580905796.492468,9628.709907,0,14.60675,97.03355
1580905915.448961,43,0,1580904337.000819,41.20701635159924,29.07533761282497,172.748,-1,-1,5.74967098236084,48.00724964208526,-9999,9631.22459125,0.968902587890625,0.1055145263671875,-0.15081787109375,9631.21955625,0.7087228762970542,1.411130420559783,-0.1315238827759081,0.02024382725358009,-0.01133943907916546,0.004377398639917374,-0.01475214958190918,-0.03175893425941467,0.003257393836975098,2,0.2714419845360317,-0.5895011804316134,-0.2236087918707776,-0.7271909498576156,0.9787534475326538,0.1311450153589249,-0.1576152145862579,24.06314849853516,-9.918621063232422,9.217071533203125,2,9631.07673425,1,2,1580905915.317901,1580903939.50652,1577,0.4102195,0,0,2131.439,1,0,1580905796.492468,9628.709907,0,14.60675,97.03355
1580905915.469328,44,0,1580904337.000819,41.20701635159924,29.07533761282497,172.748,-1,-1,5.74967098236084,48.00724964208526,-9999,9631.23463225,0.9710693359375,0.110443115234375,-0.1558685302734375,9631.229596250001,0.708456498694177,1.410853111697826,-0.1313749192743325,0.02727395296096802,-0.02354994416236877,0.0108569199219346,-0.01149278879165649,-0.02570584416389465,0.00563812255859375,2,0.2712804912967478,-0.5894590940916852,-0.2235960493834702,-0.7272892804732316,0.9787290692329407,0.1309973299503326,-0.1578897386789322,23.917724609375,-9.770408630371094,9.200286865234375,2,9631.07673425,1,2,1580905915.317901,1580903939.50652,1577,0.4102195,0,0,2131.439,1,0,1580905796.492468,9628.709907,0,14.60675,97.03355
1580905915.470713,45,0,1580904337.000819,41.20701635159924,29.07533761282497,172.748,-1,-1,5.74967098236084,48.00724964208526,-9999,9631.244672250001,0.9534912109375,0.1070709228515625,-0.1483306884765625,9631.23963625,0.7081429551266067,1.410535778502938,-0.1312617623202411,0.03146097809076309,-0.02918173000216484,0.00294759776443243,-0.009290397167205811,-0.02066487073898315,0.0009011030197143555,2,0.2711131122176517,-0.5894033714285748,-0.2235603645705225,-0.7274078640033923,0.9786936044692993,0.1308851540088654,-0.1582026928663254,23.917724609375,-9.770408630371094,9.200286865234375,2,9631.07673425,1,2,1580905915.317901,1580903939.50652,1577,0.4102195,0,0,2131.439,1,0,1580905796.492468,9628.709907,0,14.60675,97.03355
1580905915.477815,46,0,1580904337.000819,41.20701635159924,29.07533761282497,172.748,-1,-1,5.74967098236084,48.00724964208526,-9999,9631.25471225,0.9589080810546875,0.111541748046875,-0.14898681640625,9631.24967725,0.7078535910325987,1.410273047970556,-0.13114920231771,0.02853651158511639,-0.02200323715806007,0.004498719237744808,-0.02684134244918823,-0.02392527461051941,0.008698940277099609,2,0.270959193846106,-0.5893640894253902,-0.2235258366517003,-0.7275076345629931,0.9786664843559265,0.1307735592126846,-0.1584621667861938,23.871826171875,-9.843475341796875,9.177825927734375,2,9631.07673425,1,2,1580905915.317901,1580903939.50652,1577,0.4102195,0,0,2131.439,1,0,1580905796.492468,9628.709907,0,14.60675,97.03355
1580905915.488078,47,0,1580904337.000819,41.20701635159924,29.07533761282497,172.748,-1,-1,5.74967098236084,48.00724964208526,-9999,9631.264752250001,0.953125,0.10467529296875,-0.15704345703125,9631.259717250001,0.7075259329611969,1.410082057991732,-0.1309864756380806,0.03599442541599274,-0.0152963325381279,0.01022291742265224,-0.02141523361206055,-0.01929287612438202,0.008233189582824707,2,0.2707845113774859,-0.5893636491562299,-0.2234832707151667,-0.7275860442327124,0.9786571264266968,0.1306122243404388,-0.1586524695158005,23.871826171875,-9.843475341796875,9.177825927734375,2,9631.07673425,1,2,1580905915.317901,1580903939.50652,1577,0.4102195,0,0,2131.439,1,0,1580905796.492468,9628.709907,0,14.60675,97.03355
1580905915.498075,48,0,1580904337.000819,41.20701635159924,29.07533761282497,172.748,-1,-1,5.74967098236084,48.00724964208526,-9999,9631.27482325,0.951629638671875,0.102142333984375,-0.159698486328125,9631.26975725,0.7072260113519716,1.410049621543676,-0.1308511241971478,0.03147238492965698,-0.002599926665425301,0.007053254172205925,-0.0272107720375061,-0.02602489292621613,0.0002112388610839844,2,0.2706452191071972,-0.5894129558498659,-0.223420778986295,-0.7276172153800557,0.9786695837974548,0.1304780393838882,-0.1586870700120926,23.81096649169922,-9.87646484375,9.265350341796875,2,9631.07673425,1,2,1580905915.317901,1580903939.50652,1577,0.4102195,0,0,2131.439,1,0,1580905796.492468,9628.709907,0,14.60675,97.03355
1580905915.509584,49,0,1580904337.000819,41.20701635159924,29.07533761282497,172.748,-1,-1,5.74967098236084,48.00724964208526,-9999,9631.284863250001,0.9573516845703125,0.0985107421875,-0.168182373046875,9631.279798250001,0.7070093550273613,1.410284868176623,-0.1307034947917512,0.02259180694818497,0.02806477434933186,0.01136757433414459,-0.0287625789642334,-0.02841125428676605,-0.002671301364898682,2,0.2705560939641367,-0.5895502055640789,-0.223356188038259,-0.7275589998499775,0.9787258505821228,0.1303316652774811,-0.1584599167108536,23.81096649169922,-9.87646484375,9.265350341796875,2,9631.07673425,1,2,1580905915.317901,1580903939.50652,1577,0.4102195,0,0,2131.439,1,0,1580905796.492468,9628.709907,0,14.60675,97.03355
1580905915.537643,50,0,1580904337.000819,41.20701635159924,29.07533761282497,172.748,-1,-1,5.74967098236084,48.00724964208526,-9999,9631.29490425,0.951995849609375,0.097320556640625,-0.1635894775390625,9631.289838250001,0.7068718082590912,1.410827684587934,-0.1305487010010487,0.01637949049472809,0.05467556789517403,0.01353522855788469,-0.02314651012420654,-0.03188911080360413,-0.0116841197013855,2,0.2705220952190195,-0.5897896873066243,-0.2232810358412013,-0.7274006553574743,0.9788317084312439,0.1301781982183456,-0.1579318344593048,23.86420440673828,-9.751785278320312,9.324249267578125,2,9631.07673425,1,2,1580905915.317901,1580903939.50652,1577,0.4102195,0,0,2131.439,1,0,1580905796.492468,9628.709907,0,14.60675,97.03355
1580905915.53952,51,0,1580904337.000819,41.20701635159924,29.07533761282497,172.748,-1,-1,5.74967098236084,48.00724964208526,-9999,9631.304944250001,0.959503173828125,0.1052703857421875,-0.159820556640625,9631.29987825,0.7068717992554976,1.411666735099917,-0.1304598690519522,-0.0004136040806770325,0.08421002328395844,0.007192378863692284,-0.02864617109298706,-0.03299106657505035,-0.007912218570709229,2,0.2705847697032719,-0.5901082325317578,-0.2231952520316267,-0.7271451924796221,0.9789751768112183,0.1300901174545288,-0.1571123152971268,23.86420440673828,-9.751785278320312,9.324249267578125,2,9631.07673425,1,2,1580905915.317901,1580903939.50652,1577,0.4102195,0,0,2131.439,1,0,1580905796.492468,9628.709907,0,14.60675,97.03355
1580905915.540707,52,0,1580904337.000819,41.20701635159924,29.07533761282497,172.748,-1,-1,5.74967098236084,48.00724964208526,-9999,9631.314984250001,0.9583587646484375,0.10198974609375,-0.1540374755859375,9631.309918250001,0.7069428240460155,1.412659043297651,-0.1304407741996772,-0.005394820589572191,0.09877649694681168,0.002286728471517563,-0.0212971568107605,-0.02502231299877167,-0.00511622428894043,2,0.2707097838185228,-0.5904622104576903,-0.223092750245982,-0.7268427026474945,0.9791330695152283,0.1300711780786514,-0.1561411768198013,24.05305480957031,-9.798023223876953,9.246734619140625,2,9631.07673425,1,2,1580905915.317901,1580903939.50652,1577,0.4102195,0,0,2131.439,1,0,1580905796.492468,9628.709907,0,14.60675,97.03355
1580905915.548652,53,0,1580904337.000819,41.20701635159924,29.07533761282497,172.748,-1,-1,5.74967098236084,48.00724964208526,-9999,9631.32502525,0.9729156494140625,0.1037139892578125,-0.1509246826171875,9631.31998925,0.7070904376112435,1.413689390190594,-0.1304668464570432,-0.0175875723361969,0.1009248718619347,-0.002033983822911978,-0.02259910106658936,-0.02832889556884766,-0.0003445744514465332,2,0.2708773879805886,-0.5908126468545712,-0.2229987287433753,-0.7265242346652901,0.9792900681495667,0.1300970315933228,-0.1551317125558853,24.05305480957031,-9.798023223876953,9.246734619140625,2,9631.07673425,1,2,1580905915.317901,1580903939.50652,1577,0.4102195,0,0,2131.439,1,0,1580905796.492468,9628.709907,0,14.60675,97.03355
1580905915.558395,54,0,1580904337.000819,41.20701635159924,29.07533761282497,172.748,-1,-1,5.74967098236084,48.00724964208526,-9999,9631.335065250001,0.965545654296875,0.098846435546875,-0.1489715576171875,9631.330029250001,0.7072006843998639,1.414697260852113,-0.130489094420744,-0.008838025853037834,0.1001738011837006,-0.000296302605420351,-0.008195579051971436,-0.02662678062915802,0.001778841018676758,2,0.2710300903145485,-0.5911603865341672,-0.2228952649452107,-0.7262160374734071,0.9794429540634155,0.1301191002130508,-0.1541441679000854,24.0126953125,-9.698497772216797,9.403533935546875,2,9631.07673425,1,2,1580905915.317901,1580903939.50652,1577,0.4102195,0,0,2131.439,1,0,1580905796.492468,9628.709907,0,14.60675,97.03355
1580905915.569475,55,0,1580904337.000819,41.20701635159924,29.07533761282497,172.748,-1,-1,5.74967098236084,48.00724964208526,-9999,9631.34510525,0.9721221923828125,0.1021270751953125,-0.1439971923828125,9631.34007025,0.7074013757311408,1.415611239427971,-0.1306183914517704,-0.023954126983881,0.08727957308292389,-0.0112815760076046,-0.01568973064422607,-0.03162272274494171,0.002832531929016113,2,0.2712362713242853,-0.5914454453650018,-0.2228037799282219,-0.7259350878251638,0.9795669317245483,0.1302472949028015,-0.1532463431358337,24.0126953125,-9.698497772216797,9.403533935546875,2,9631.07673425,1,2,1580905915.317901,1580903939.50652,1577,0.4102195,0,0,2131.439,1,0,1580905796.492468,9628.709907,0,14.60675,97.03355
1580905915.593981,56,0,1580904337.000819,41.20701635159924,29.07533761282497,172.748,-1,-1,5.74967098236084,48.00724964208526,-9999,9631.355145250001,0.97821044921875,0.107330322265625,-0.1536102294921875,9631.350110250001,0.7075802354227256,1.416408709687339,-0.1307737758076633,-0.02171680703759193,0.07732281088829041,-0.01522731501609087,-0.009215414524078369,-0.02849641442298889,0.007020950317382812,2,0.2714321307284902,-0.5916870848833484,-0.2227118616188225,-0.7256930371940137,0.9796686768531799,0.1304013431072235,-0.1524619907140732,23.87289428710938,-9.954746246337891,9.488311767578125,2,9631.07673425,1,2,1580905915.317901,1580903939.50652,1577,0.4102195,0,0,2131.439,1,0,1580905796.492468,9628.709907,0,14.60675,97.03355
1580905915.595375,57,0,1580904337.000819,41.20701635159924,29.07533761282497,172.748,-1,-1,5.74967098236084,48.00724964208526,-9999,9631.365186250001,0.972442626953125,0.11016845703125,-0.1451568603515625,9631.360150250001,0.7077453976428155,1.417119031099801,-0.1309543269455813,-0.01921769604086876,0.06998740136623383,-0.01715278066694736,-0.003212034702301025,-0.02347248792648315,-0.003292739391326904,2,0.2716229330476651,-0.5918950540243318,-0.2226188129141443,-0.72548054365147,0.9797534346580505,0.1305803507566452,-0.151762455701828,23.87289428710938,-9.954746246337891,9.488311767578125,2,9631.07673425,1,2,1580905915.317901,1580903939.50652,1577,0.4102195,0,0,2131.439,1,0,1580905796.492468,9628.709907,0,14.60675,97.03355
1580905915.598536,58,0,1580904337.000819,41.20701635159924,29.07533761282497,172.748,-1,-1,5.74967098236084,48.00724964208526,-9999,9631.37522625,0.96893310546875,0.108245849609375,-0.14215087890625,9631.37019125,0.7079305156475442,1.417768691759034,-0.1311453986030212,-0.0212920755147934,0.06492025405168533,-0.01686020754277706,-0.009053587913513184,-0.02082408964633942,0.004519402980804443,2,0.271816480442805,-0.5920766326438607,-0.22253784873175,-0.7252847776682815,0.9798272252082825,0.1307697892189026,-0.151122123003006,23.76676177978516,-9.978736877441406,9.58953857421875,2,9631.07673425,1,2,1580905915.317901,1580903939.50652,1577,0.4102195,0,0,2131.439,1,0,1580905796.492468,9628.709907,0,14.60675,97.03355
1580905915.608549,59,0,1580904337.000819,41.20701635159924,29.07533761282497,172.748,-1,-1,5.74967098236084,48.00724964208526,-9999,9631.385297250001,0.9615020751953125,0.112152099609375,-0.14141845703125,9631.380231250001,0.7081309646122032,1.418387904888629,-0.1313013723954628,-0.0230292547494173,0.06026718020439148,-0.01454458944499493,-0.01263642311096191,-0.02290156483650208,0.006914436817169189,2,0.2719989676524744,-0.5922503056388795,-0.2224774740243815,-0.7250930603558199,0.9799004793167114,0.1309244185686111,-0.1505122780799866,23.76676177978516,-9.978736877441406,9.58953857421875,2,9631.07673425,1,2,1580905915.317901,1580903939.50652,1577,0.4102195,0,0,2131.439,1,0,1580905796.492468,9628.709907,0,14.60675,97.03355
1580905915.618532,60,0,1580904337.000819,41.20701635159924,29.07533761282497,172.748,-1,-1,5.74967098236084,48.00724964208526,-9999,9631.39533725,0.9639129638671875,0.1143646240234375,-0.147216796875,9631.39027125,0.7083401519684707,1.418991396133354,-0.1313322639860673,-0.02217316068708897,0.05854371935129166,0.0006240382790565491,-0.02015435695648193,-0.01902607083320618,0.007053613662719727,2,0.2721388334756061,-0.592435929694362,-0.2224615160411593,-0.7248936774283924,0.9799869656562805,0.1309550553560257,-0.149920254945755,23.70401763916016,-9.739151000976562,9.618072509765625,2,9631.07673425,1,2,1580905915.317901,1580903939.50652,1577,0.4102195,0,0,2131.439,1,0,1580905796.492468,9628.709907,0,14.60675,97.03355
1580905915.62945,61,0,1580904337.000819,41.20701635159924,29.07533761282497,172.748,-1,-1,5.74967098236084,48.00724964208526,-9999,9631.405377250001,0.954193115234375,0.108367919921875,-0.1447906494140625,9631.400311250001,0.7085545978104247,1.419590035878403,-0.1312981217191424,-0.02052360028028488,0.05869711935520172,0.004232089035212994,-0.01783770322799683,-0.01677961647510529,0.0006682872772216797,2,0.2722570694440303,-0.5926288588482399,-0.2224684650430055,-0.7246894763942945,0.9800810217857361,0.1309211999177933,-0.1493342518806458,23.803955078125,-9.614227294921875,9.735443115234375,2,9631.07673425,1,2,1580905915.317901,1580903939.50652,1577,0.4102195,0,0,2131.439,1,0,1580905796.492468,9628.709907,0,14.60675,97.03355
1580905915.651261,62,0,1580904337.000819,41.20701635159924,29.07533761282497,172.748,-1,-1,5.74967098236084,48.00724964208526,-9999,9631.415418250001,0.970550537109375,0.10601806640625,-0.1529541015625,9631.410352250001,0.7087921445864428,1.420178842614146,-0.1311098708350824,-0.02171960100531578,0.05580125004053116,0.02312392182648182,-0.02766978740692139,-0.02258940041065216,0.00252002477645874,2,0.2723275805017473,-0.5928383203986352,-0.2225333971619846,-0.7244716423203896,0.9801930785179138,0.1307345628738403,-0.1487608253955841,23.803955078125,-9.614227294921875,9.735443115234375,2,9631.07673425,1,2,1580905915.317901,1580903939.50652,1577,0.4102195,0,0,2131.439,1,0,1580905796.492468,9628.709907,0,14.60675,97.03355
1580905915.652655,63,0,1580904337.000819,41.20701635159924,29.07533761282497,172.748,-1,-1,5.74967098236084,48.00724964208526,-9999,9631.42545825,0.96160888671875,0.107330322265625,-0.14617919921875,9631.42039225,0.7089645911435544,1.420763653363402,-0.1308378546884239,-0.01027147006243467,0.05769955366849899,0.02863639779388905,-0.01143443584442139,-0.02466905117034912,-0.006212115287780762,2,0.2723492446480248,-0.5930678126444636,-0.2226015635481122,-0.7242548571810147,0.9803152084350586,0.1304648816585541,-0.1481929123401642,23.77719116210938,-9.634017944335938,9.5811767578125,2,9631.07673425,1,2,1580905915.317901,1580903939.50652,1577,0.4102195,0,0,2131.439,1,0,1580905796.492468,9628.709907,0,14.60675,97.03355
1580905915.65876,64,0,1580904337.000819,41.20701635159924,29.07533761282497,172.748,-1,-1,5.74967098236084,48.00724964208526,-9999,9631.435498250001,0.9678497314453125,0.1087188720703125,-0.149688720703125,9631.430463250001,0.7091940912457486,1.421355933932801,-0.1306176887111204,-0.02116231620311737,0.0550818145275116,0.02221066504716873,-0.02049225568771362,-0.02313810586929321,-1.448392868041992e-05,2,0.2724067841709902,-0.5932843102907324,-0.2226730798311554,-0.7240338833978622,0.9804311990737915,0.1302465945482254,-0.1476165354251862,23.77719116210938,-9.634017944335938,9.5811767578125,2,9631.07673425,1,2,1580905915.317901,1580903939.50652,1577,0.4102195,0,0,2131.439,1,0,1580905796.492468,9628.709907,0,14.60675,97.03355
1580905915.668711,65,0,1580904337.000819,41.20701635159924,29.07533761282497,172.748,-1,-1,5.74967098236084,48.00724964208526,-9999,9631.44553925,0.970794677734375,0.1034698486328125,-0.1508636474609375,9631.44050325,0.7093472466930951,1.421992541233112,-0.1303443922695208,-0.008361033163964748,0.062392458319664,0.02904327213764191,-0.01438069343566895,-0.02147819101810455,-0.004144251346588135,2,0.2724282798694631,-0.5935351975330715,-0.2227275690077203,-0.723803205561621,0.9805599451065063,0.1299756169319153,-0.1469976007938385,23.81964874267578,-9.600307464599609,9.601531982421875,2,9631.07673425,1,2,1580905915.317901,1580903939.50652,1577,0.4102195,0,0,2131.439,1,0,1580905796.492468,9628.709907,0,14.60675,97.03355
1580905915.67896,66,0,1580904337.000819,41.20701635159924,29.07533761282497,172.748,-1,-1,5.74967098236084,48.00724964208526,-9999,9631.455579250001,0.965789794921875,0.1051025390625,-0.1381683349609375,9631.450543250001,0.7096041349820735,1.422731015429341,-0.1301213246057319,-0.02244282700121403,0.07200293242931366,0.02516420930624008,-0.01157289743423462,-0.02650563418865204,-0.006040334701538086,2,0.2725093447980534,-0.5938011391682687,-0.2227899520310693,-0.7235353661650484,0.9806969165802002,0.129754438996315,-0.1462777256965637,23.81964874267578,-9.600307464599609,9.601531982421875,2,9631.07673425,1,2,1580905915.317901,1580903939.50652,1577,0.4102195,0,0,2131.439,1,0,1580905796.492468,9628.709907,0,14.60675,97.03355
1580905915.689554,67,0,1580904337.000819,41.20701635159924,29.07533761282497,172.748,-1,-1,5.74967098236084,48.00724964208526,-9999,9631.465619250001,0.9636993408203125,0.1059722900390625,-0.1436767578125,9631.46058425,0.7099285917507731,1.423557667029508,-0.1299253973959051,-0.0283366683870554,0.07740861922502518,0.02508537843823433,-0.0167238712310791,-0.02467833459377289,0.005846679210662842,2,0.2726297978902407,-0.5940855421383974,-0.2228561855394237,-0.7232361389354804,0.9808427691459656,0.1295601725578308,-0.1454707235097885,23.84897613525391,-9.638603210449219,9.738037109375,2,9631.07673425,1,2,1580905915.317901,1580903939.50652,1577,0.4102195,0,0,2131.439,1,0,1580905796.492468,9628.709907,0,14.60675,97.03355
1580905915.714843,68,0,1580904337.000819,41.20701635159924,29.07533761282497,172.748,-1,-1,5.74967098236084,48.00724964208526,-9999,9631.47565925,0.9642333984375,0.109619140625,-0.1390838623046875,9631.470624250001,0.7103339697506629,1.424536711455676,-0.129766411064994,-0.03744238987565041,0.0937967374920845,0.019857507199049,-0.01897680759429932,-0.02365069091320038,-0.000620722770690918,2,0.2728042478873989,-0.5944082503582611,-0.222919187232456,-0.7228856081988974,0.9810049533843994,0.1294025182723999,-0.1445133537054062,23.84897613525391,-9.638603210449219,9.738037109375,2,9631.07673425,1,2,1580905915.317901,1580903939.50652,1577,0.4102195,0,0,2131.439,1,0,1580905796.492468,9628.709907,0,14.60675,97.03355
1580905915.716133,69,0,1580904337.000819,41.20701635159924,29.07533761282497,172.748,-1,-1,5.74967098236084,48.00724964208526,-9999,9631.485700250001,0.96234130859375,0.10772705078125,-0.139068603515625,9631.480664250001,0.7108042200110103,1.42561903557457,-0.1296013745548449,-0.04338123649358749,0.1018000692129135,0.02327301353216171,-0.01861971616744995,-0.01983986794948578,0.002911746501922607,2,0.273007496185434,-0.5947601300125712,-0.2229933040281996,-0.7224965047348787,0.9811819195747375,0.1292388737201691,-0.1434545964002609,23.69338989257812,-9.502132415771484,10.00445556640625,2,9631.07673425,1,2,1580905915.317901,1580903939.50652,1577,0.4102195,0,0,2131.439,1,0,1580905796.492468,9628.709907,0,14.60675,97.03355
1580905915.718951,70,0,1580904337.000819,41.20701635159924,29.07533761282497,172.748,-1,-1,5.74967098236084,48.00724964208526,-9999,9631.495770250001,0.96044921875,0.1038665771484375,-0.136962890625,9631.49070525,0.7113194183389838,1.426814221224118,-0.1294329627487212,-0.04896600544452667,0.1135090589523315,0.02269583195447922,-0.02070426940917969,-0.02156467735767365,0.001755654811859131,2,0.2732356845577666,-0.5951468723462809,-0.2230691191314207,-0.7220682888717164,0.9813742637634277,0.1290718764066696,-0.1422849148511887,23.69338989257812,-9.502132415771484,10.00445556640625,2,9631.07673425,1,2,1580905915.317901,1580903939.50652,1577,0.4102195,0,0,2131.439,1,0,1580905796.492468,9628.709907,0,14.60675,97.03355
1580905915.729041,71,0,1580904337.000819,41.20701635159924,29.07533761282497,172.748,-1,-1,5.74967098236084,48.00724964208526,-9999,9631.505811250001,0.9622039794921875,0.0992431640625,-0.1411895751953125,9631.500745250001,0.711841438722039,1.428087074156317,-0.1292205339806184,-0.04813962429761887,0.1220527440309525,0.0271086897701025,-0.0228039026260376,-0.02521407604217529,0.002614021301269531,2,0.2734595490828307,-0.5955670412432861,-0.2231504070202876,-0.7216117907772109,0.9815816283226013,0.1288612186908722,-0.1410395503044128,23.65440368652344,-9.556961059570312,9.927154541015625,2,9631.07673425,1,2,1580905915.317901,1580903939.50652,1577,0.4102195,0,0,2131.439,1,0,1580905796.492468,9628.709907,0,14.60675,97.03355
1580905915.739178,72,0,1580904337.000819,41.20701635159924,29.07533761282497,172.748,-1,-1,5.74967098236084,48.00724964208526,-9999,9631.51585125,0.96087646484375,0.102783203125,-0.140594482421875,9631.51078525,0.7123862851953122,1.429499533156669,-0.1290148400241709,-0.05074916779994965,0.1356902718544006,0.02550707757472992,-0.02127379179000854,-0.02963314950466156,-0.00299757719039917,2,0.2737082757355804,-0.5960330697618226,-0.2232184909313273,-0.7211116223519811,0.981806218624115,0.1286572366952896,-0.1396567225456238,23.65440368652344,-9.556961059570312,9.927154541015625,2,9631.07673425,1,2,1580905915.317901,1580903939.50652,1577,0.4102195,0,0,2131.439,1,0,1580905796.492468,9628.709907,0,14.60675,97.03355
1580905915.749689,73,0,1580904337.000819,41.20701635159924,29.07533761282497,172.748,-1,-1,5.74967098236084,48.00724964208526,-9999,9631.525891250001,0.963043212890625,0.1030426025390625,-0.14593505859375,9631.52082525,0.7129541431071992,1.431090859620926,-0.1288500022183512,-0.05407439172267914,0.1510255485773087,0.0215165950357914,-0.02284371852874756,-0.02592931687831879,-0.003964781761169434,2,0.2739982147314814,-0.5965537833498471,-0.2232572062320136,-0.720558755529254,0.9820482730865479,0.1284937560558319,-0.1380971223115921,23.82819366455078,-9.560634613037109,9.85443115234375,2,9631.07673425,1,2,1580905915.317901,1580903939.50652,1577,0.4102195,0,0,2131.439,1,0,1580905796.492468,9628.709907,0,14.60675,97.03355
1580905915.775856,74,0,1580904337.000819,41.20701635159924,29.07533761282497,172.748,-1,-1,5.74967098236084,48.00724964208526,-9999,9631.535932250001,0.9618072509765625,0.101959228515625,-0.1413421630859375,9631.53089625,0.7135448468185349,1.432883419973206,-0.1287357603130684,-0.0565580241382122,0.1707261353731155,0.01799409464001656,-0.02093803882598877,-0.02555648982524872,-0.01106709241867065,2,0.2743351752226167,-0.5971356227127123,-0.223260224228904,-0.7199472929083385,0.9823086261749268,0.1283804625272751,-0.1363385170698166,23.82819366455078,-9.560634613037109,9.85443115234375,2,9631.07673425,1,2,1580905915.317901,1580903939.50652,1577,0.4102195,0,0,2131.439,1,0,1580905796.492468,9628.709907,0,14.60675,97.03355
1580905915.777155,75,0,1580904337.000819,41.20701635159924,29.07533761282497,172.748,-1,-1,5.74967098236084,48.00724964208526,-9999,9631.54597225,0.9635009765625,0.1007232666015625,-0.137969970703125,9631.540936250001,0.7141755399994836,1.434861533748588,-0.1286817082621794,-0.06072720512747765,0.1914202272891998,0.01202488411217928,-0.02244925498962402,-0.02658618986606598,-0.008419990539550781,2,0.2747257211703528,-0.5977689661677099,-0.2232326910714195,-0.7192810537192126,0.9825832843780518,0.1283268630504608,-0.1343960762023926,23.89788055419922,-9.434665679931641,10.16213989257812,2,9631.07673425,1,2,1580905915.317901,1580903939.50652,1577,0.4102195,0,0,2131.439,1,0,1580905796.492468,9628.709907,0,14.60675,97.03355
1580905915.779457,76,0,1580904337.000819,41.20701635159924,29.07533761282497,172.748,-1,-1,5.74967098236084,48.00724964208526,-9999,9631.556012250001,0.9654693603515625,0.102020263671875,-0.127838134765625,9631.550977250001,0.7148430452318524,1.43691117163499,-0.1286514604046748,-0.06568363308906555,0.1962953507900238,0.01244616508483887,-0.02103328704833984,-0.02779208123683929,-0.007064938545227051,2,0.2751436497236623,-0.5984185637366564,-0.2232004415600207,-0.7185908895245331,0.9828606247901917,0.1282968670129776,-0.1323823928833008,23.89788055419922,-9.434665679931641,10.16213989257812,2,9631.07673425,1,2,1580905915.317901,1580903939.50652,1577,0.4102195,0,0,2131.439,1,0,1580905796.492468,9628.709907,0,14.60675,97.03355
1580905915.78941,77,0,1580904337.000819,41.20701635159924,29.07533761282497,172.748,-1,-1,5.74967098236084,48.00724964208526,-9999,9631.56605225,0.96978759765625,0.1043243408203125,-0.1256103515625,9631.56101725,0.715541522236123,1.43897224011602,-0.1286550614737826,-0.06933695822954178,0.1983020305633545,0.008946504443883896,-0.01933592557907104,-0.02649874985218048,0.001037001609802246,2,0.2755840244352563,-0.5990620181171782,-0.2231663608472429,-0.7178961440266257,0.9831308126449585,0.1283004432916641,-0.1303562819957733,23.74827575683594,-9.366470336914062,10.22857666015625,2,9631.07673425,1,2,1580905915.317901,1580903939.50652,1577,0.4102195,0,0,2131.439,1,0,1580905796.492468,9628.709907,0,14.60675,97.03355
1580905915.799521,78,0,1580904337.000819,41.20701635159924,29.07533761282497,172.748,-1,-1,5.74967098236084,48.00724964208526,-9999,9631.57609325,0.973297119140625,0.1067352294921875,-0.1186370849609375,9631.571057250001,0.7162254576537191,1.440928563268536,-0.1286583116747124,-0.06666159629821777,0.1881428062915802,0.007075466215610504,-0.01527094841003418,-0.02419787645339966,0.001337766647338867,2,0.2760083881409691,-0.5996691071773466,-0.2231409421950332,-0.7172338513905168,0.9833835363388062,0.128303661942482,-0.1284326612949371,23.74827575683594,-9.366470336914062,10.22857666015625,2,9631.07673425,1,2,1580905915.317901,1580903939.50652,1577,0.4102195,0,0,2131.439,1,0,1580905796.492468,9628.709907,0,14.60675,97.03355
1580905915.83011,79,0,1580904337.000819,41.20701635159924,29.07533761282497,172.748,-1,-1,5.74967098236084,48.00724964208526,-9999,9631.586133250001,0.978424072265625,0.1028289794921875,-0.1157073974609375,9631.581098250001,0.7168431905285827,1.442696628574905,-0.1286657205395644,-0.06012487038969994,0.1691941469907761,0.006563873030245304,-0.0119863748550415,-0.02179433405399323,0.006569087505340576,2,0.2763934804860089,-0.6002164726123489,-0.2231158627354901,-0.7166352811273461,0.9836081266403198,0.1283110082149506,-0.1266936659812927,23.91921234130859,-9.437004089355469,10.29852294921875,2,9631.07673425,1,2,1580905915.317901,1580903939.50652,1577,0.4102195,0,0,2131.439,1,0,1580905796.492468,9628.709907,0,14.60675,97.03355
1580905915.83141,80,0,1580904337.000819,41.20701635159924,29.07533761282497,172.748,-1,-1,5.74967098236084,48.00724964208526,-9999,9631.596204250001,0.977447509765625,0.1008148193359375,-0.1142578125,9631.59113825,0.7174059403042948,1.444263056976428,-0.1287278428134475,-0.05578329786658287,0.1504500508308411,0.0001837480813264847,-0.007049024105072021,-0.02576230466365814,0.007954299449920654,2,0.2767585083987711,-0.60069031839621,-0.2230811063757951,-0.7161079516569573,0.9837974309921265,0.1283726096153259,-0.125151738524437,23.91921234130859,-9.437004089355469,10.29852294921875,2,9631.07673425,1,2,1580905915.317901,1580903939.50652,1577,0.4102195,0,0,2131.439,1,0,1580905796.492468,9628.709907,0,14.60675,97.03355
1580905915.832452,81,0,1580904337.000819,41.20701635159924,29.07533761282497,172.748,-1,-1,5.74967098236084,48.00724964208526,-9999,9631.606244250001,0.9802703857421875,0.103546142578125,-0.117340087890625,9631.601178250001,0.7179370231223758,1.445666489760645,-0.1288569239735051,-0.05367061123251915,0.134709969162941,-0.006458974909037352,-0.00818401575088501,-0.02790465950965881,0.008018732070922852,2,0.2771188309717289,-0.601099590117695,-0.223035906964151,-0.7156392271685789,0.9839558005332947,0.1285006254911423,-0.1237688735127449,23.70869445800781,-9.530654907226562,10.36181640625,2,9631.07673425,1,2,1580905915.317901,1580903939.50652,1577,0.4102195,0,0,2131.439,1,0,1580905796.492468,9628.709907,0,14.60675,97.03355
1580905915.839647,82,0,1580904337.000819,41.20701635159924,29.07533761282497,172.748,-1,-1,5.74967098236084,48.00724964208526,-9999,9631.61628425,0.9767913818359375,0.1085357666015625,-0.117767333984375,9631.61121825,0.718440872950373,1.446942708435863,-0.1290241866959336,-0.05182801559567451,0.1229560971260071,-0.01095372997224331,-0.0054970383644104,-0.0253395140171051,0.003675937652587891,2,0.2774699503496588,-0.6014609239671923,-0.2229860690723385,-0.7152149548770167,0.984091579914093,0.1286665052175522,-0.1225103661417961,23.70869445800781,-9.530654907226562,10.36181640625,2,9631.07673425,1,2,1580905915.317901,1580903939.50652,1577,0.4102195,0,0,2131.439,1,0,1580905796.492468,9628.709907,0,14.60675,97.03355
1580905915.849633,83,0,1580904337.000819,41.20701635159924,29.07533761282497,172.748,-1,-1,5.74967098236084,48.00724964208526,-9999,9631.626325250001,0.9651947021484375,0.10784912109375,-0.1175689697265625,9631.621259250001,0.7189707421014946,1.448170507941777,-0.1292140766335408,-0.05403311178088188,0.118034839630127,-0.01252978853881359,-0.009101569652557373,-0.02053847908973694,0.00203549861907959,2,0.2778312385990012,-0.6017975491663732,-0.2229447044312268,-0.7148043655169755,0.9842170476913452,0.1288548111915588,-0.1212990283966064,23.68070220947266,-9.625518798828125,10.5113525390625,2,9631.07673425,1,2,1580905915.317901,1580903939.50652,1577,0.4102195,0,0,2131.439,1,0,1580905796.492468,9628.709907,0,14.60675,97.03355
1580905915.859522,84,0,1580904337.000819,41.20701635159924,29.07533761282497,172.748,-1,-1,5.74967098236084,48.00724964208526,-9999,9631.63636525,0.9692840576171875,0.108734130859375,-0.11932373046875,9631.631299250001,0.7195328323038881,1.449405943499123,-0.1293952583879391,-0.05938848108053207,0.1179657131433487,-0.01309924945235252,-0.02082431316375732,-0.02140510082244873,0.001012861728668213,2,0.2782001595252901,-0.6021333692377208,-0.2229161781889826,-0.7143867561993549,0.9843428134918213,0.1290344744920731,-0.1200801506638527,23.68070220947266,-9.625518798828125,10.5113525390625,2,9631.07673425,1,2,1580905915.317901,1580903939.50652,1577,0.4102195,0,0,2131.439,1,0,1580905796.492468,9628.709907,0,14.60675,97.03355
1580905915.893702,85,0,1580904337.000819,41.20701635159924,29.07533761282497,172.748,-1,-1,5.74967098236084,48.00724964208526,-9999,9631.646405250001,0.961761474609375,0.1044158935546875,-0.11590576171875,9631.641370250001,0.7201387280102101,1.450708118015882,-0.129548493789973,-0.06087612360715866,0.1226017475128174,-0.009477616287767887,-0.01687097549438477,-0.02067233622074127,-0.002028286457061768,2,0.2785801783559875,-0.6024907796974766,-0.2229025119420108,-0.7139414079084736,0.9844786524772644,0.1291864365339279,-0.1187958866357803,23.56848907470703,-9.463871002197266,10.36727905273438,2,9631.07673425,1,2,1580905915.317901,1580903939.50652,1577,0.4102195,0,0,2131.439,1,0,1580905796.492468,9628.709907,0,14.60675,97.03355
1580905915.895238,86,0,1580904337.000819,41.20701635159924,29.07533761282497,172.748,-1,-1,5.74967098236084,48.00724964208526,-9999,9631.656446250001,0.9652862548828125,0.10406494140625,-0.1168365478515625,9631.65141025,0.7208222247995847,1.45209268992892,-0.1296785474583493,-0.06965778768062592,0.1305796802043915,-0.006460168398916721,-0.02454036474227905,-0.02511966228485107,2.259016036987305e-05,2,0.2789848462715948,-0.6028698791006391,-0.2229120228411353,-0.7134604077557479,0.9846257567405701,0.1293153911828995,-0.1174307316541672,23.56848907470703,-9.463871002197266,10.36727905273438,2,9631.07673425,1,2,1580905915.317901,1580903939.50652,1577,0.4102195,0,0,2131.439,1,0,1580905796.492468,9628.709907,0,14.60675,97.03355
1580905915.896283,87,0,1580904337.000819,41.20701635159924,29.07533761282497,172.748,-1,-1,5.74967098236084,48.00724964208526,-9999,9631.66648625,0.9705047607421875,0.107025146484375,-0.1156463623046875,9631.66145025,0.7214863983310271,1.453527445155518,-0.1297212798546757,-0.06584334373474121,0.1349211633205414,0.003091791644692421,-0.02117800712585449,-0.02551308274269104,-0.002324342727661133,2,0.2793596623008222,-0.6032823173272297,-0.2229349740945981,-0.7129576646861298,0.9847875833511353,0.1293577700853348,-0.1160172522068024,23.49359130859375,-9.669578552246094,10.65176391601562,2,9631.07673425,1,2,1580905915.317901,1580903939.50652,1577,0.4102195,0,0,2131.439,1,0,1580905796.492468,9628.709907,0,14.60675,97.03355
1580905915.899693,88,0,1580904337.000819,41.20701635159924,29.07533761282497,172.748,-1,-1,5.74967098236084,48.00724964208526,-9999,9631.676526250001,0.9722137451171875,0.103851318359375,-0.1104278564453125,9631.671491250001,0.7221388747128314,1.454958220935685,-0.129701984369247,-0.06472951918840408,0.1347791850566864,0.008157635107636452,-0.01612722873687744,-0.02253374457359314,-0.002545356750488281,2,0.2797094555340693,-0.6037039129169308,-0.2229736636169648,-0.7124513927661784,0.9849550724029541,0.1293386369943619,-0.1146084144711494,23.49359130859375,-9.669578552246094,10.65176391601562,2,9631.07673425,1,2,1580905915.317901,1580903939.50652,1577,0.4102195,0,0,2131.439,1,0,1580905796.492468,9628.709907,0,14.60675,97.03355
1580905915.909814,89,0,1580904337.000819,41.20701635159924,29.07533761282497,172.748,-1,-1,5.74967098236084,48.00724964208526,-9999,9631.68656625,0.9765777587890625,0.1082763671875,-0.1093292236328125,9631.68153125,0.722738994309037,1.456305141566348,-0.1296411530722603,-0.05872488766908646,0.1272893100976944,0.01138006150722504,-0.01457959413528442,-0.02564708888530731,0.001345276832580566,2,0.2800201053670025,-0.6041088187306525,-0.2230183004545913,-0.7119720187677813,0.9851163625717163,0.1292783170938492,-0.1132825538516045,23.67478942871094,-9.611351013183594,10.59371948242188,2,9631.07673425,1,2,1580905915.317901,1580903939.50652,1577,0.4102195,0,0,2131.439,1,0,1580905796.492468,9628.709907,0,14.60675,97.03355
1580905915.920231,90,0,1580904337.000819,41.20701635159924,29.07533761282497,172.748,-1,-1,5.74967098236084,48.00724964208526,-9999,9631.69660725,0.97967529296875,0.1085968017578125,-0.104217529296875,9631.691571250001,0.7232615057133729,1.457480846268205,-0.1296015706422959,-0.05014852434396744,0.1105011031031609,0.007918534800410271,-0.01035332679748535,-0.02118270099163055,0.001284122467041016,2,0.2802956236347474,-0.6044600435694023,-0.2230521930192983,-0.7115547085983924,0.9852538704872131,0.1292390674352646,-0.1121248379349709,23.67478942871094,-9.611351013183594,10.59371948242188,2,9631.07673425,1,2,1580905915.317901,1580903939.50652,1577,0.4102195,0,0,2131.439,1,0,1580905796.492468,9628.709907,0,14.60675,97.03355
1580905915.948668,91,0,1580904337.000819,41.20701635159924,29.07533761282497,172.748,-1,-1,5.74967098236084,48.00724964208526,-9999,9631.70667725,0.9899139404296875,0.1080322265625,-0.1021728515625,9631.701612250001,0.7237018675107281,1.458416247185949,-0.1295552159491463,-0.04359448328614235,0.08729086071252823,0.0088178850710392,-0.007366418838500977,-0.02081623673439026,0.005473315715789795,2,0.2805172824509566,-0.6047380627055827,-0.2230924890452758,-0.7112184580358365,0.9853643178939819,0.1291930973529816,-0.1112038567662239,23.71687316894531,-9.296070098876953,10.67532348632812,2,9631.07673425,1,2,1580905915.317901,1580903939.50652,1577,0.4102195,0,0,2131.439,1,0,1580905796.492468,9628.709907,0,14.60675,97.03355
1580905915.950339,92,0,1580904337.000819,41.20701635159924,29.07533761282497,172.748,-1,-1,5.74967098236084,48.00724964208526,-9999,9631.71671825,0.977081298828125,0.10369873046875,-0.09710693359375,9631.71165225,0.7240615378529959,1.459098259307141,-0.1295375432545295,-0.03435035422444344,0.06607174128293991,0.005053051747381687,0.002794146537780762,-0.02136328816413879,0.00684511661529541,2,0.2806961203987819,-0.6049327720976123,-0.2231303271794504,-0.710970405362099,0.9854422211647034,0.1291755735874176,-0.1105320602655411,23.71687316894531,-9.296070098876953,10.67532348632812,2,9631.07673425,1,2,1580905915.317901,1580903939.50652,1577,0.4102195,0,0,2131.439,1,0,1580905796.492468,9628.709907,0,14.60675,97.03355
1580905915.951447,93,0,1580904337.000819,41.20701635159924,29.07533761282497,172.748,-1,-1,5.74967098236084,48.00724964208526,-9999,9631.726758250001,0.9828338623046875,0.108795166015625,-0.1020050048828125,9631.721692250001,0.7243942973853533,1.459524396033928,-0.1295586280385848,-0.03480282425880432,0.03910563886165619,0.0001989072188735008,-0.01008284091949463,-0.02571770548820496,0.01148998737335205,2,0.2808515071466904,-0.6050343186951228,-0.2231820396448991,-0.7108063493203738,0.9854865074157715,0.1291964799165726,-0.1101118102669716,23.57460021972656,-9.436714172363281,10.81784057617188,2,9631.07673425,1,2,1580905915.317901,1580903939.50652,1577,0.4102195,0,0,2131.439,1,0,1580905796.492468,9628.709907,0,14.60675,97.03355
1580905915.959975,94,0,1580904337.000819,41.20701635159924,29.07533761282497,172.748,-1,-1,5.74967098236084,48.00724964208526,-9999,9631.73679825,0.9774017333984375,0.1100921630859375,-0.098724365234375,9631.73173225,0.7246319731293461,1.459746588440058,-0.1295707792201305,-0.02192889526486397,0.02044796943664551,0.0008304249495267868,-0.004353165626525879,-0.02063331007957458,0.006372392177581787,2,0.2809523338711699,-0.6050780549531904,-0.2232314156202978,-0.7107137850672751,0.9855093955993652,0.1292085349559784,-0.1098926663398743,23.57460021972656,-9.436714172363281,10.81784057617188,2,9631.07673425,1,2,1580905915.317901,1580903939.50652,1577,0.4102195,0,0,2131.439,1,0,1580905796.492468,9628.709907,0,14.60675,97.03355
1580905915.970058,95,0,1580904337.000819,41.20701635159924,29.07533761282497,172.748,-1,-1,5.74967098236084,48.00724964208526,-9999,9631.746839250001,0.9815521240234375,0.108612060546875,-0.1010894775390625,9631.74177325,0.7248608780227035,1.459783802339361,-0.1296004679449425,-0.0254482626914978,0.001808237284421921,-0.001712361350655556,-0.009785592555999756,-0.01936580240726471,0.009615838527679443,2,0.2810358449801802,-0.605054602902161,-0.2232980358950138,-0.7106797718728588,0.9855096340179443,0.1292379647493362,-0.1098555624485016,23.75069427490234,-9.531642913818359,11.14389038085938,2,9631.07673425,1,2,1580905915.317901,1580903939.50652,1577,0.4102195,0,0,2131.439,1,0,1580905796.492468,9628.709907,0,14.60675,97.03355
1580905915.980041,96,0,1580904337.000819,41.20701635159924,29.07533761282497,172.748,-1,-1,5.74967098236084,48.00724964208526,-9999,9631.756879250001,0.9711761474609375,0.1077117919921875,-0.0986785888671875,9631.75184325,0.7249980516436411,1.459682763383517,-0.1296275678466364,-0.01231969986110926,-0.01101016066968441,-0.001112115103751421,-0.005620658397674561,-0.02087284624576569,0.00735008716583252,2,0.2810752493610636,-0.6049953092425222,-0.2233523231824234,-0.7106976880430028,0.9854951500892639,0.1292648464441299,-0.109954759478569,23.75069427490234,-9.531642913818359,11.14389038085938,2,9631.07673425,1,2,1580905915.317901,1580903939.50652,1577,0.4102195,0,0,2131.439,1,0,1580905796.492468,9628.709907,0,14.60675,97.03355
1580905916.013206,97,0,1580904337.000819,41.20701635159924,29.07533761282497,172.748,-1,-1,5.74967098236084,48.00724964208526,-9999,9631.76691925,0.9757232666015625,0.107025146484375,-0.103118896484375,9631.761884250001,0.7251633151063912,1.459485247462131,-0.1296949943074006,-0.01986816339194775,-0.02219224162399769,-0.00718545401468873,-0.01596617698669434,-0.02184009552001953,0.009955048561096191,2,0.2811261009842057,-0.6048916386640747,-0.2234172637303566,-0.710745414069989,0.9854647517204285,0.1293317079544067,-0.1101484447717667,23.63812255859375,-9.6436767578125,10.7691650390625,2,9631.07673425,1,2,1580905915.317901,1580903939.50652,1577,0.4102195,0,0,2131.439,1,0,1580905796.492468,9628.709907,0,14.60675,97.03355
1580905916.014719,98,0,1580904337.000819,41.20701635159924,29.07533761282497,172.748,-1,-1,5.74967098236084,48.00724964208526,-9999,9631.776959250001,0.97344970703125,0.103912353515625,-0.1133880615234375,9631.771924250001,0.7252153397864548,1.459263049492805,-0.1296958192137544,-0.003378715366125107,-0.02325884439051151,0.001194575801491737,-0.01139450073242188,-0.02252760529518127,0.005733907222747803,2,0.2811173369102419,-0.6048052213557737,-0.22346670946612,-0.7108067263152309,0.9854399561882019,0.1293325275182724,-0.1103673726320267,23.63812255859375,-9.6436767578125,10.7691650390625,2,9631.07673425,1,2,1580905915.317901,1580903939.50652,1577,0.4102195,0,0,2131.439,1,0,1580905796.492468,9628.709907,0,14.60675,97.03355
1580905916.016093,99,0,1580904337.000819,41.20701635159924,29.07533761282497,172.748,-1,-1,5.74967098236084,48.00724964208526,-9999,9631.78700025,0.96038818359375,0.1045379638671875,-0.1077728271484375,9631.78196425,0.7253316419219991,1.459128504321617,-0.1297477738218341,-0.01368115469813347,-0.01587017066776752,-0.006812750827521086,-0.01364648342132568,-0.02569198608398438,-0.004403233528137207,2,0.2811551180477688,-0.6047331556158657,-0.2235103620833029,-0.7108394408011341,0.9854184985160828,0.1293840408325195,-0.1104992181062698,23.53373718261719,-9.535938262939453,10.69052124023438,2,9631.07673425,1,2,1580905915.317901,1580903939.50652,1577,0.4102195,0,0,2131.439,1,0,1580905796.492468,9628.709907,0,14.60675,97.03355
1580905916.020317,100,0,1580904337.000819,41.20701635159924,29.07533761282497,172.748,-1,-1,5.74967098236084,48.00724964208526,-9999,9631.797040250001,0.970001220703125,0.1029205322265625,-0.1175689697265625,9631.792005250001,0.7254356392269012,1.45912008392183,-0.1297186912298103,-0.008848848752677441,-0.003426285460591316,0.00364388432353735,-0.0267108678817749,-0.0250374972820282,0.001220762729644775,2,0.2811757199923018,-0.6047199710223227,-0.2235578032614088,-0.7108276259917855,0.985421359539032,0.1293552070856094,-0.1105079427361488,23.53373718261719,-9.535938262939453,10.69052124023438,2,9631.07673425,1,2,1580905915.317901,1580903939.50652,1577,0.4102195,0,0,2131.439,1,0,1580905796.492468,9628.709907,0,14.60675,97.03355
1580905916.030302,101,0,1580904337.000819,41.20701635159924,29.07533761282497,172.748,-1,-1,5.74967098236084,48.00724964208526,-9999,9631.807080250001,0.962066650390625,0.1020355224609375,-0.1042938232421875,9631.80204525,0.725535957058232,1.459274276710646,-0.129645525851561,-0.01120148506015539,0.01451117172837257,0.005748048424720764,-0.01712429523468018,-0.02658224105834961,-0.008726596832275391,2,0.2811984232827546,-0.604771796221288,-0.2235951509574749,-0.7107627576643067,0.9854477643966675,0.1292826533317566,-0.1103570461273193,23.59017181396484,-9.526229858398438,10.89926147460938,2,9631.07673425,1,2,1580905915.317901,1580903939.50652,1577,0.4102195,0,0,2131.439,1,0,1580905796.492468,9628.709907,0,14.60675,97.03355
1580905916.040473,102,0,1580904337.000819,41.20701635159924,29.07533761282497,172.748,-1,-1,5.74967098236084,48.00724964208526,-9999,9631.817151250001,0.9649505615234375,0.1069793701171875,-0.1085357666015625,9631.812085250001,0.7256280009745408,1.459500019717128,-0.1295820499303279,-0.007082514464855194,0.02098256535828114,0.007547101937234402,-0.02509194612503052,-0.02740421891212463,0.00432664155960083,2,0.2812299047011982,-0.6048487352162377,-0.2236164034520324,-0.7106781655646487,0.9854808449745178,0.1292197108268738,-0.1101354956626892,23.59017181396484,-9.526229858398438,10.89926147460938,2,9631.07673425,1,2,1580905915.317901,1580903939.50652,1577,0.4102195,0,0,2131.439,1,0,1580905796.492468,9628.709907,0,14.60675,97.03355
1580905916.067407,103,0,1580904337.000819,41.20701635159924,29.07533761282497,172.748,-1,-1,5.74967098236084,48.00724964208526,-9999,9631.82719125,0.965057373046875,0.1063995361328125,-0.102142333984375,9631.822125250001,0.7257798683460626,1.459762572591938,-0.1295944937790409,-0.01745286397635937,0.02422815747559071,-0.00106982234865427,-0.02223533391952515,-0.02247273921966553,-0.0001745820045471191,2,0.2813094374153093,-0.6049187688437282,-0.2236294597413791,-0.7105829190397827,0.9855080246925354,0.1292320489883423,-0.1098765656352043,23.44637298583984,-9.577568054199219,10.84414672851562,2,9631.07673425,1,2,1580905915.317901,1580903939.50652,1577,0.4102195,0,0,2131.439,1,0,1580905796.492468,9628.709907,0,14.60675,97.03355
1580905916.068766,104,0,1580904337.000819,41.20701635159924,29.07533761282497,172.748,-1,-1,5.74967098236084,48.00724964208526,-9999,9631.83723225,0.9798126220703125,0.1013336181640625,-0.1104888916015625,9631.83216625,0.7258774287323285,1.459964283758952,-0.1295821045564085,-0.009774388745427132,0.01858365349471569,0.002683806233108044,-0.0221523642539978,-0.02304024994373322,0.006019830703735352,2,0.2813572917881041,-0.6049785928404653,-0.2236397054867428,-0.7105098080650777,0.985531747341156,0.1292197555303574,-0.1096779555082321,23.44637298583984,-9.577568054199219,10.84414672851562,2,9631.07673425,1,2,1580905915.317901,1580903939.50652,1577,0.4102195,0,0,2131.439,1,0,1580905796.492468,9628.709907,0,14.60675,97.03355
1580905916.070588,105,0,1580904337.000819,41.20701635159924,29.07533761282497,172.748,-1,-1,5.74967098236084,48.00724964208526,-9999,9631.847272250001,0.9620208740234375,0.09979248046875,-0.1053009033203125,9631.842206250001,0.7259545514326281,1.46010566429924,-0.129631809472938,-0.009388763457536697,0.01086235232651234,-0.005831118673086166,-0.007406175136566162,-0.02815550565719604,-0.002466857433319092,2,0.2814132942191651,-0.6050104107278421,-0.2236313324937051,-0.7104632705813971,0.9855409860610962,0.1292690485715866,-0.1095379218459129,23.576171875,-9.449207305908203,10.81472778320312,2,9631.07673425,1,2,1580905915.317901,1580903939.50652,1577,0.4102195,0,0,2131.439,1,0,1580905796.492468,9628.709907,0,14.60675,97.03355
1580905916.080509,106,0,1580904337.000819,41.20701635159924,29.07533761282497,172.748,-1,-1,5.74967098236084,48.00724964208526,-9999,9631.85731225,0.9749603271484375,0.10528564453125,-0.11175537109375,9631.85227725,0.7260104462120194,1.460255362525597,-0.1296883850524831,-0.006823344156146049,0.01398485526442528,-0.007355810143053532,-0.02520716190338135,-0.02975286543369293,0.002572476863861084,2,0.2814661659608693,-0.6050471111789715,-0.2236120383183181,-0.7104171563155389,0.9855501651763916,0.1293251514434814,-0.1093895807862282,23.65653228759766,-9.447494506835938,10.89300537109375,2,9631.07673425,1,2,1580905915.317901,1580903939.50652,1577,0.4102195,0,0,2131.439,1,0,1580905796.492468,9628.709907,0,14.60675,97.03355
1580905916.090619,107,0,1580904337.000819,41.20701635159924,29.07533761282497,172.748,-1,-1,5.74967098236084,48.00724964208526,-9999,9631.867352250001,0.9768829345703125,0.10540771484375,-0.1081390380859375,9631.862317250001,0.7259840756284371,1.460439483875584,-0.1296583743771309,0.004621590487658978,0.02013276517391205,0.002693361602723598,-0.01229178905487061,-0.02422989904880524,-0.00406336784362793,2,0.2814685676884366,-0.6051207904977782,-0.2235863549154007,-0.7103615495293043,0.9855741262435913,0.1292953938245773,-0.1092085465788841,23.65653228759766,-9.447494506835938,10.89300537109375,2,9631.07673425,1,2,1580905915.317901,1580903939.50652,1577,0.4102195,0,0,2131.439,1,0,1580905796.492468,9628.709907,0,14.60675,97.03355
1580905916.100543,108,0,1580904337.000819,41.20701635159924,29.07533761282497,172.748,-1,-1,5.74967098236084,48.00724964208526,-9999,9631.877393250001,0.9647216796875,0.10382080078125,-0.103790283203125,9631.87235725,0.7260313039539312,1.460729914783162,-0.1296825408009508,-0.006124946754425764,0.027436887845397,-0.003909606952220201,-0.01039785146713257,-0.02413181960582733,-0.0007342100143432617,2,0.2815235295273068,-0.6052136160445739,-0.2235545260229896,-0.7102707231516281,0.9856027364730835,0.129319354891777,-0.1089219599962234,23.56948089599609,-9.420970916748047,10.81027221679688,2,9631.07673425,1,2,1580905915.317901,1580903939.50652,1577,0.4102195,0,0,2131.439,1,0,1580905796.492468,9628.709907,0,14.60675,97.03355
1580905916.134734,109,0,1580904337.000819,41.20701635159924,29.07533761282497,172.748,-1,-1,5.74967098236084,48.00724964208526,-9999,9631.88743325,0.9674224853515625,0.10498046875,-0.111328125,9631.88239825,0.7261036676765028,1.461203943468029,-0.1296797909455787,-0.006139860488474369,0.0478321760892868,-4.775682464241982e-05,-0.02261114120483398,-0.02571603655815125,0.00314629077911377,2,0.281597520259745,-0.6053721613621833,-0.2235143563433825,-0.7101187654352084,0.9856544137001038,0.1293166279792786,-0.1084547638893127,23.56948089599609,-9.420970916748047,10.81027221679688,2,9631.07673425,1,2,1580905915.317901,1580903939.50652,1577,0.4102195,0,0,2131.439,1,0,1580905796.492468,9628.709907,0,14.60675,97.03355
1580905916.13654,110,0,1580904337.000819,41.20701635159924,29.07533761282497,172.748,-1,-1,5.74967098236084,48.00724964208526,-9999,9631.897473250001,0.961822509765625,0.109527587890625,-0.1069488525390625,9631.892438250001,0.7262260365223652,1.461880722063873,-0.1296473576532489,-0.01104684732854366,0.06658606976270676,0.004402610473334789,-0.01998782157897949,-0.02452415227890015,-0.005059242248535156,2,0.2816991834312869,-0.6056001219414757,-0.2234728643880214,-0.7098970803351887,0.9857317805290222,0.1292844712734222,-0.107788123190403,23.5369873046875,-9.383125305175781,11.022705078125,2,9631.07673425,1,2,1580905915.317901,1580903939.50652,1577,0.4102195,0,0,2131.439,1,0,1580905796.492468,9628.709907,0,14.60675,97.03355
1580905916.137743,111,0,1580904337.000819,41.20701635159924,29.07533761282497,172.748,-1,-1,5.74967098236084,48.00724964208526,-9999,9631.907520916668,0.955657958984375,0.110076904296875,-0.107879638671875,9631.902484916667,0.7263764210415826,1.462697352511425,-0.1296166112143293,-0.01458911783993244,0.0795585960149765,0.002944262698292732,-0.02567958831787109,-0.01994651556015015,-0.001485943794250488,2,0.2818255110412838,-0.6058734257370104,-0.2234210284049032,-0.7096300573292169,0.9858234524726868,0.1292539834976196,-0.1069835498929024,23.5369873046875,-9.383125305175781,11.022705078125,2,9631.07673425,1,2,1580905915.317901,1580903939.50652,1577,0.4102195,0,0,2131.439,1,0,1580905796.492468,9628.709907,0,14.60675,97.03355
1580905916.140899,112,0,1580904337.000819,41.20701635159924,29.07533761282497,172.748,-1,-1,5.74967098236084,48.00724964208526,-9999,9631.917590916668,0.9586944580078125,0.10382080078125,-0.104705810546875,9631.912525916667,0.7265238352314334,1.463633083425543,-0.1295012503338083,-0.01277389191091061,0.09260362386703491,0.009907392784953117,-0.03195899724960327,-0.01928260922431946,-0.003339171409606934,2,0.2819355299807333,-0.6062021428636957,-0.2233783759060149,-0.7093190518910166,0.9859380722045898,0.1291395872831345,-0.1060626357793808,23.49757385253906,-9.435161590576172,10.90594482421875,2,9631.07673425,1,2,1580905915.317901,1580903939.50652,1577,0.4102195,0,0,2131.439,1,0,1580905796.492468,9628.709907,0,14.60675,97.03355
1580905916.150673,113,0,1580904337.000819,41.20701635159924,29.07533761282497,172.748,-1,-1,5.74967098236084,48.00724964208526,-9999,9631.927631916667,0.972503662109375,0.103485107421875,-0.1027069091796875,9631.922565916668,0.7266316525345121,1.464548192148644,-0.1291876349105078,-0.007028920575976372,0.09143662452697754,0.03235704079270363,-0.0290597677230835,-0.02522723376750946,-0.001065075397491455,2,0.2819640456304451,-0.6065591120987297,-0.2233880395273824,-0.7089994232970799,0.9860749244689941,0.1288285851478577,-0.1051646396517754,23.49757385253906,-9.435161590576172,10.90594482421875,2,9631.07673425,1,2,1580905915.317901,1580903939.50652,1577,0.4102195,0,0,2131.439,1,0,1580905796.492468,9628.709907,0,14.60675,97.03355
1580905916.160852,114,0,1580904337.000819,41.20701635159924,29.07533761282497,172.748,-1,-1,5.74967098236084,48.00724964208526,-9999,9631.937671916667,0.9714508056640625,0.1075897216796875,-0.0982818603515625,9631.932605916667,0.7266763081723733,1.46539425129763,-0.1287964581816144,-7.639545947313309e-05,0.08490251004695892,0.03816111385822296,-0.01538962125778198,-0.0251743346452713,0.0001032352447509766,2,0.2819394565935364,-0.6069121314365354,-0.2234099221680748,-0.7087001084157569,0.9862135052680969,0.1284406632184982,-0.1043356135487556,23.45436096191406,-9.600509643554688,11.17019653320312,2,9631.07673425,1,2,1580905915.317901,1580903939.50652,1577,0.4102195,0,0,2131.439,1,0,1580905796.492468,9628.709907,0,14.60675,97.03355
1580905916.196747,115,0,1580904337.000819,41.20701635159924,29.07533761282497,172.748,-1,-1,5.74967098236084,48.00724964208526,-9999,9631.947711916668,0.980316162109375,0.1121063232421875,-0.100494384765625,9631.942645916668,0.7266648068731923,1.466150932377385,-0.1284011424430632,0.004036324098706245,0.07590822130441666,0.0384330227971077,-0.01657199859619141,-0.02067707479000092,0.003785789012908936,2,0.2818864982772671,-0.6072418713891216,-0.2234258864643296,-0.7084335728051052,0.9863425493240356,0.1280486136674881,-0.1035946235060692,23.45436096191406,-9.600509643554688,11.17019653320312,2,9631.07673425,1,2,1580905915.317901,1580903939.50652,1577,0.4102195,0,0,2131.439,1,0,1580905796.492468,9628.709907,0,14.60675,97.03355
1580905916.198093,116,0,1580904337.000819,41.20701635159924,29.07533761282497,172.748,-1,-1,5.74967098236084,48.00724964208526,-9999,9631.957752916667,0.978973388671875,0.10540771484375,-0.097625732421875,9631.952686916668,0.7265622619991816,1.46683588255106,-0.1280153045831418,0.01453010551631451,0.0693962350487709,0.03637558221817017,-0.007826685905456543,-0.0157771110534668,0.0009015202522277832,2,0.2818010851989901,-0.6075574730828546,-0.2234167545602362,-0.7081998595896282,0.986462414264679,0.1276659369468689,-0.1029241308569908,23.5458984375,-9.523105621337891,11.058349609375,2,9631.07673425,1,2,1580905915.317901,1580903939.50652,1577,0.4102195,0,0,2131.439,1,0,1580905796.492468,9628.709907,0,14.60675,97.03355
1580905916.199086,117,0,1580904337.000819,41.20701635159924,29.07533761282497,172.748,-1,-1,5.74967098236084,48.00724964208526,-9999,9631.967792916666,0.973663330078125,0.0987701416015625,-0.0953369140625,9631.962756916668,0.7264390046840663,1.467517694140154,-0.1276601772596898,0.01633359678089619,0.06972912698984146,0.03250015154480934,-0.009284615516662598,-0.02212288975715637,0.003101170063018799,2,0.2817194537064133,-0.6078700946646373,-0.2233909582745461,-0.7079721891228725,0.9865773916244507,0.1273137181997299,-0.1022561937570572,23.5458984375,-9.523105621337891,11.058349609375,2,9631.07673425,1,2,1580905915.317901,1580903939.50652,1577,0.4102195,0,0,2131.439,1,0,1580905796.492468,9628.709907,0,14.60675,97.03355
1580905916.201126,118,0,1580904337.000819,41.20701635159924,29.07533761282497,172.748,-1,-1,5.74967098236084,48.00724964208526,-9999,9631.977832916667,0.9736175537109375,0.100341796875,-0.0972900390625,9631.972797916667,0.7263454187883563,1.46819799021628,-0.1273427035978109,0.01178296376019716,0.07060715556144714,0.02965295687317848,-0.01470446586608887,-0.02844507992267609,0.004721641540527344,2,0.281659449363307,-0.6081721692645943,-0.2233638660453954,-0.7077450960332127,0.9866868257522583,0.1269988119602203,-0.101589135825634,23.43167114257812,-9.607158660888672,11.02651977539062,2,9631.07673425,1,2,1580905915.317901,1580903939.50652,1577,0.4102195,0,0,2131.439,1,0,1580905796.492468,9628.709907,0,14.60675,97.03355
1580905916.211079,119,0,1580904337.000819,41.20701635159924,29.07533761282497,172.748,-1,-1,5.74967098236084,48.00724964208526,-9999,9631.987872916667,0.9771728515625,0.105010986328125,-0.1026458740234375,9631.982837916667,0.7262716737447102,1.468894160630606,-0.1270225076503159,0.01101144682615995,0.07131928205490112,0.03222130984067917,-0.01486122608184814,-0.02655524015426636,0.002084791660308838,2,0.2816063089340631,-0.6084773745445752,-0.2233425013180119,-0.7075106441280089,0.9867977499961853,0.1266812086105347,-0.1009063422679901,23.43167114257812,-9.607158660888672,11.02651977539062,2,9631.07673425,1,2,1580905915.317901,1580903939.50652,1577,0.4102195,0,0,2131.439,1,0,1580905796.492468,9628.709907,0,14.60675,97.03355
1580905916.220959,120,0,1580904337.000819,41.20701635159924,29.07533761282497,172.748,-1,-1,5.74967098236084,48.00724964208526,-9999,9631.997913916668,0.9721221923828125,0.1086578369140625,-0.0997772216796875,9631.992877916668,0.7262508163807138,1.469665893757807,-0.1267119183550881,0.003750740550458431,0.07937803119421005,0.02998386882245541,-0.01142281293869019,-0.02157741785049438,-0.004030048847198486,2,0.2815809819038974,-0.6088002827427027,-0.2233261727629475,-0.7072480229575907,0.9869143962860107,0.1263731122016907,-0.1001487299799919,23.53427886962891,-9.343959808349609,11.10250854492188,2,9631.07673425,1,2,1580905915.317901,1580903939.50652,1577,0.4102195,0,0,2131.439,1,0,1580905796.492468,9628.709907,0,14.60675,97.03355
1580905916.256112,121,0,1580904337.000819,41.20701635159924,29.07533761282497,172.748,-1,-1,5.74967098236084,48.00724964208526,-9999,9632.007953916667,0.9718475341796875,0.1039886474609375,-0.099365234375,9632.002918916667,0.7262850647226833,1.470486915157376,-0.1264039803765074,-0.0006216373294591904,0.08277382701635361,0.02932447008788586,-0.01659440994262695,-0.0176246166229248,-0.001969397068023682,2,0.2815788573344244,-0.6091323265585346,-0.2233215815911804,-0.7069643456271835,0.9870349168777466,0.1260676383972168,-0.09934230893850327,23.53427886962891,-9.343959808349609,11.10250854492188,2,9631.07673425,1,2,1580905915.317901,1580903939.50652,1577,0.4102195,0,0,2131.439,1,0,1580905796.492468,9628.709907,0,14.60675,97.03355
1580905916.257389,122,0,1580904337.000819,41.20701635159924,29.07533761282497,172.748,-1,-1,5.74967098236084,48.00724964208526,-9999,9632.017993916666,0.9708709716796875,0.100616455078125,-0.0979461669921875,9632.012958916668,0.7263588806524637,1.471309431885084,-0.1260417969191271,-0.004822111688554287,0.08037882298231125,0.03468020632863045,-0.01699614524841309,-0.02193385362625122,-0.002366185188293457,2,0.2815706295926919,-0.6094673917380226,-0.2233482275667834,-0.7066703974032909,0.9871617555618286,0.1257083266973495,-0.09853495657444,23.50099182128906,-9.261959075927734,11.29669189453125,2,9631.07673425,1,2,1580905915.317901,1580903939.50652,1577,0.4102195,0,0,2131.439,1,0,1580905796.492468,9628.709907,0,14.60675,97.03355
1580905916.258423,123,0,1580904337.000819,41.20701635159924,29.07533761282497,172.748,-1,-1,5.74967098236084,48.00724964208526,-9999,9632.028064916667,0.964569091796875,0.0988006591796875,-0.0946044921875,9632.022998916667,0.7264378105531314,1.472136401781108,-0.1255874463121463,-0.002210349775850773,0.08185528218746185,0.04526494070887566,-0.01811087131500244,-0.02485457062721252,-0.00175929069519043,2,0.281533344208956,-0.6098170867709121,-0.2234057144156738,-0.7063653857475612,0.9872996807098389,0.1252575814723969,-0.09772419184446335,23.50099182128906,-9.261959075927734,11.29669189453125,2,9631.07673425,1,2,1580905915.317901,1580903939.50652,1577,0.4102195,0,0,2131.439,1,0,1580905796.492468,9628.709907,0,14.60675,97.03355
1580905916.261317,124,0,1580904337.000819,41.20701635159924,29.07533761282497,172.748,-1,-1,5.74967098236084,48.00724964208526,-9999,9632.038104916668,0.9667816162109375,0.1043548583984375,-0.0934906005859375,9632.033038916667,0.7265198200184343,1.472928925321816,-0.1250499633794075,-0.00344050070270896,0.07852104306221008,0.0544053316116333,-0.02455693483352661,-0.02613618969917297,0.0008052587509155273,2,0.2814651416919819,-0.6101665667809048,-0.2234959164125354,-0.7060621723933121,0.9874436855316162,0.124724306166172,-0.09694826602935791,23.52004241943359,-9.235755920410156,11.04644775390625,2,9631.07673425,1,2,1580905915.317901,1580903939.50652,1577,0.4102195,0,0,2131.439,1,0,1580905796.492468,9628.709907,0,14.60675,97.03355
1580905916.271414,125,0,1580904337.000819,41.20701635159924,29.07533761282497,172.748,-1,-1,5.74967098236084,48.00724964208526,-9999,9632.048145916668,0.9706268310546875,0.106781005859375,-0.0875396728515625,9632.043079916668,0.7265901937488434,1.473657299763467,-0.1244517774965853,6.262119859457016e-05,0.07333507388830185,0.06087148934602737,-0.02248913049697876,-0.01998740434646606,0.001205861568450928,2,0.2813657924721536,-0.6105040315288959,-0.2236106307391847,-0.7057736998099875,0.9875881671905518,0.1241307705640793,-0.09623623639345169,23.52004241943359,-9.235755920410156,11.04644775390625,2,9631.07673425,1,2,1580905915.317901,1580903939.50652,1577,0.4102195,0,0,2131.439,1,0,1580905796.492468,9628.709907,0,14.60675,97.03355
1580905916.281474,126,0,1580904337.000819,41.20701635159924,29.07533761282497,172.748,-1,-1,5.74967098236084,48.00724964208526,-9999,9632.058185916667,0.9791717529296875,0.107940673828125,-0.0888824462890625,9632.053119916667,0.7266524106712819,1.474263303718137,-0.123881931865148,-0.00110482657328248,0.05954305827617645,0.05688817799091339,-0.01877254247665405,-0.01699486374855042,0.006564080715179443,2,0.2812599552311282,-0.6107950305082946,-0.2237306343879558,-0.7055260143268901,0.9877164959907532,0.1235653087496758,-0.09564453363418579,23.44050598144531,-9.537132263183594,11.29718017578125,2,9631.07673425,1,2,1580905915.317901,1580903939.50652,1577,0.4102195,0,0,2131.439,1,0,1580905796.492468,9628.709907,0,14.60675,97.03355
1580905916.319884,127,0,1580904337.000819,41.20701635159924,29.07533761282497,172.748,-1,-1,5.74967098236084,48.00724964208526,-9999,9632.068225916668,0.9771270751953125,0.099884033203125,-0.0864410400390625,9632.063159916668,0.7266694200496879,1.474760981958512,-0.1234490370402762,0.00228084996342659,0.05087659507989883,0.04064955189824104,-0.01032835245132446,-0.01540486514568329,0.004734039306640625,2,0.2811745341657332,-0.6110334205097759,-0.2238059252133555,-0.7053297401625523,0.9878171682357788,0.1231357231736183,-0.09515807777643204,23.44050598144531,-9.537132263183594,11.29718017578125,2,9631.07673425,1,2,1580905915.317901,1580903939.50652,1577,0.4102195,0,0,2131.439,1,0,1580905796.492468,9629.651929,0,14.63318,97.03325
1580905916.321247,128,0,1580904337.000819,41.20701635159924,29.07533761282497,172.748,-1,-1,5.74967098236084,48.00724964208526,-9999,9632.078265916667,0.9864349365234375,0.0884246826171875,-0.0923919677734375,9632.073230916667,0.7266317364264201,1.475145270983048,-0.1231007376438906,0.006677333265542984,0.03829117864370346,0.03357626870274544,-0.01245236396789551,-0.02311526238918304,0.006799221038818359,2,0.2810883275194201,-0.6112266949028351,-0.2238506922708786,-0.7051824368717918,0.9878963232040405,0.1227900683879852,-0.09478256106376648,23.39574432373047,-9.504173278808594,11.34152221679688,2,9631.07673425,1,2,1580905915.317901,1580903939.50652,1577,0.4102195,0,0,2131.439,1,0,1580905796.492468,9629.651929,0,14.63318,97.03325
1580905916.322783,129,0,1580904337.000819,41.20701635159924,29.07533761282497,172.748,-1,-1,5.74967098236084,48.00724964208526,-9999,9632.088306916667,0.9746551513671875,0.08428955078125,-0.0860443115234375,9632.083270916668,0.7265732684335625,1.475511886794284,-0.1228406883227911,0.009927455335855484,0.03907041996717453,0.02522193267941475,-0.003211081027984619,-0.03431610763072968,0.0004884004592895508,2,0.281023652512699,-0.6114033097149099,-0.2238622408591732,-0.7050513485346391,0.9879626035690308,0.1225319802761078,-0.09442339837551117,23.39574432373047,-9.504173278808594,11.34152221679688,2,9631.07673425,1,2,1580905915.317901,1580903939.50652,1577,0.4102195,0,0,2131.439,1,0,1580905796.492468,9629.651929,0,14.63318,97.03325
1580905916.323878,130,0,1580904337.000819,41.20701635159924,29.07533761282497,172.748,-1,-1,5.74967098236084,48.00724964208526,-9999,9632.098346916668,0.975372314453125,0.098480224609375,-0.092742919921875,9632.093311916668,0.7265971869089355,1.475850650442098,-0.1226928010117715,-0.002865753602236509,0.03435859829187393,0.01316905580461025,-0.01504093408584595,-0.03830422461032867,0.006502509117126465,2,0.2810189378227306,-0.6115416151511954,-0.2238706681979625,-0.7049305453029712,0.9880125522613525,0.1223852038383484,-0.09409041702747345,23.39173889160156,-9.610767364501953,11.33099365234375,2,9631.07673425,1,2,1580905915.317901,1580903939.50652,1577,0.4102195,0,0,2131.439,1,0,1580905796.492468,9629.651929,0,14.63318,97.03325
1580905916.331554,131,0,1580904337.000819,41.20701635159924,29.07533761282497,172.748,-1,-1,5.74967098236084,48.00724964208526,-9999,9632.108386916667,0.9733734130859375,0.1101837158203125,-0.091949462890625,9632.103351916667,0.7265907555252117,1.476155343854761,-0.122570283933049,0.002795062027871609,0.0319010317325592,0.01238209009170532,-0.01436740159988403,-0.02399173378944397,-0.0004962682723999023,2,0.2810096825586693,-0.6116683427103848,-0.2238650320621807,-0.7048260967941934,0.9880561232566833,0.1222636103630066,-0.09379079192876816,23.39173889160156,-9.610767364501953,11.33099365234375,2,9631.07673425,1,2,1580905915.317901,1580903939.50652,1577,0.4102195,0,0,2131.439,1,0,1580905796.492468,9629.651929,0,14.63318,97.03325
1580905916.341568,132,0,1580904337.000819,41.20701635159924,29.07533761282497,172.748,-1,-1,5.74967098236084,48.00724964208526,-9999,9632.118427916666,0.97479248046875,0.1065826416015625,-0.0884857177734375,9632.113391916668,0.726589460979189,1.476362546931925,-0.122478277091773,-0.001570820342749357,0.02255740948021412,0.007812147028744221,-0.01639682054519653,-0.01219674944877625,9.340047836303711e-05,2,0.2810013958166009,-0.61175538588315,-0.2238650868573019,-0.7047538608889905,0.9880867600440979,0.1221722885966301,-0.09358713030815125,23.30579376220703,-9.560440063476562,11.18170166015625,2,9631.07673425,1,2,1580905915.317901,1580903939.50652,1577,0.4102195,0,0,2131.439,1,0,1580905796.492468,9629.651929,0,14.63318,97.03325
1580905916.377178,133,0,1580904337.000819,41.20701635159924,29.07533761282497,172.748,-1,-1,5.74967098236084,48.00724964208526,-9999,9632.128467916667,0.9760589599609375,0.0901336669921875,-0.08001708984375,9632.123431916667,0.7265122471379558,1.476436489838982,-0.122327267876264,0.01111914310604334,0.01062431745231152,0.0157393142580986,-0.01500308513641357,-0.01564766466617584,0.003485620021820068,2,0.2809350423842263,-0.6118150042171503,-0.2238761136961197,-0.7047250855348162,0.9881120324134827,0.1220224127173424,-0.09351580590009689,23.30579376220703,-9.560440063476562,11.18170166015625,2,9631.07673425,1,2,1580905915.317901,1580903939.50652,1577,0.4102195,0,0,2131.439,1,0,1580905796.492468,9629.651929,0,14.63318,97.03325
1580905916.378399,134,0,1580904337.000819,41.20701635159924,29.07533761282497,172.748,-1,-1,5.74967098236084,48.00724964208526,-9999,9632.138538916668,0.977447509765625,0.09136962890625,-0.076812744140625,9632.133472916667,0.7264766518121516,1.476353280038951,-0.1222219554319057,0.004201972857117653,-0.008557396940886974,0.008394431322813034,-0.01374149322509766,-0.03199194371700287,0.01203781366348267,2,0.2808793005076962,-0.6118065106750279,-0.2239091566099823,-0.7047440758580301,0.9881169199943542,0.1219178885221481,-0.09359922260046005,23.45958709716797,-9.568813323974609,11.369140625,2,9631.07673425,1,2,1580905915.317901,1580903939.50652,1577,0.4102195,0,0,2131.439,1,0,1580905796.492468,9629.651929,0,14.63318,97.03325
1580905916.379322,135,0,1580904337.000819,41.20701635159924,29.07533761282497,172.748,-1,-1,5.74967098236084,48.00724964208526,-9999,9632.148578916667,0.9831695556640625,0.1034698486328125,-0.0880889892578125,9632.143512916668,0.7264007817031113,1.476134290529636,-0.12212473784301,0.00872401986271143,-0.02138744108378887,0.01002215594053268,-0.01234430074691772,-0.03065934777259827,0.01546007394790649,2,0.2807987243079511,-0.6117546158199826,-0.2239444715745474,-0.7048100429978414,0.988108217716217,0.1218213960528374,-0.09381673485040665,23.45958709716797,-9.568813323974609,11.369140625,2,9631.07673425,1,2,1580905915.317901,1580903939.50652,1577,0.4102195,0,0,2131.439,1,0,1580905796.492468,9629.651929,0,14.63318,97.03325
1580905916.381834,136,0,1580904337.000819,41.20701635159924,29.07533761282497,172.748,-1,-1,5.74967098236084,48.00724964208526,-9999,9632.158618916666,0.97406005859375,0.1061248779296875,-0.089630126953125,9632.153552916667,0.7263394785534667,1.47585227969161,-0.1221376017944103,0.004971487447619438,-0.02804297395050526,-0.003537211567163467,-0.00659412145614624,-0.01857191324234009,0.004462897777557373,2,0.2807527224760951,-0.6116619049877604,-0.2239583217484526,-0.7049044896832661,0.9880802631378174,0.1218341588973999,-0.09409524500370026,23.49955749511719,-9.483379364013672,11.14199829101562,2,9631.07673425,1,2,1580905915.317901,1580903939.50652,1577,0.4102195,0,0,2131.439,1,0,1580905796.492468,9629.651929,0,14.63318,97.03325
1580905916.391885,137,0,1580904337.000819,41.20701635159924,29.07533761282497,172.748,-1,-1,5.74967098236084,48.00724964208526,-9999,9632.168659916668,0.975433349609375,0.0972747802734375,-0.095550537109375,9632.163593916668,0.7263032531075708,1.475560774942159,-0.1222407788423075,0.001411373727023602,-0.02861342392861843,-0.01439012587070465,-0.01566356420516968,-0.01601946353912354,0.00320899486541748,2,0.2807438955184201,-0.6115487170392815,-0.2239532572423772,-0.7050077135708601,0.9880401492118835,0.1219365671277046,-0.09438206255435944,23.49955749511719,-9.483379364013672,11.14199829101562,2,9631.07673425,1,2,1580905915.317901,1580903939.50652,1577,0.4102195,0,0,2131.439,1,0,1580905796.492468,9629.651929,0,14.63318,97.03325
1580905916.401837,138,0,1580904337.000819,41.20701635159924,29.07533761282497,172.748,-1,-1,5.74967098236084,48.00724964208526,-9999,9632.178699916667,0.9800567626953125,0.085968017578125,-0.0924530029296875,9632.173663916667,0.7262684365683995,1.475294282918301,-0.1223494037865504,0.003101149573922157,-0.02560564875602722,-0.01177010778337717,-0.01425176858901978,-0.02497754991054535,-0.002448856830596924,2,0.2807401111787578,-0.6114433235729729,-0.2239434361171748,-0.7051037687586448,0.988001823425293,0.1220443844795227,-0.09464410692453384,23.55068206787109,-9.420372009277344,11.25381469726562,2,9631.07673425,1,2,1580905915.317901,1580903939.50652,1577,0.4102195,0,0,2131.439,1,0,1580905796.492468,9629.651929,0,14.63318,97.03325
1580905916.436534,139,0,1580904337.000819,41.20701635159924,29.07533761282497,172.748,-1,-1,5.74967098236084,48.00724964208526,-9999,9632.188739916668,0.978668212890625,0.085357666015625,-0.0943603515625,9632.183704916668,0.7262726718193727,1.475003000840722,-0.1225438374007498,-0.003714146092534065,-0.02963368035852909,-0.02114523388445377,-0.009577095508575439,-0.03647761046886444,0.0009347200393676758,2,0.2807744654605757,-0.6113107917044771,-0.2239232654068561,-0.7052115256168857,0.9879506826400757,0.1222373619675636,-0.09492962807416916,23.55068206787109,-9.420372009277344,11.25381469726562,2,9631.07673425,1,2,1580905915.317901,1580903939.50652,1577,0.4102195,0,0,2131.439,1,0,1580905796.492468,9629.651929,0,14.63318,97.03325
1580905916.437943,140,0,1580904337.000819,41.20701635159924,29.07533761282497,172.748,-1,-1,5.74967098236084,48.00724964208526,-9999,9632.198779916667,0.9720306396484375,0.095306396484375,-0.10064697265625,9632.193744916667,0.7262675189689047,1.474779665562181,-0.1228090294532037,-0.0004430310800671577,-0.02149613946676254,-0.02611429803073406,-0.01091212034225464,-0.03735163807868958,-0.0007548332214355469,2,0.280837531907161,-0.6111928517613142,-0.2238674787451713,-0.7053063079376616,0.9878970980644226,0.1225005611777306,-0.09514715522527695,23.53871154785156,-9.527400970458984,11.124267578125,2,9631.07673425,1,2,1580905915.317901,1580903939.50652,1577,0.4102195,0,0,2131.439,1,0,1580905796.492468,9629.651929,0,14.63318,97.03325
1580905916.4392,141,0,1580904337.000819,41.20701635159924,29.07533761282497,172.748,-1,-1,5.74967098236084,48.00724964208526,-9999,9632.208820916667,0.971405029296875,0.105712890625,-0.0986175537109375,9632.203784916668,0.7263148304187985,1.474637740431898,-0.1231403938752947,-0.008534513413906097,-0.01592027768492699,-0.03489980101585388,-0.01749563217163086,-0.02773232758045197,-0.006905198097229004,2,0.2809481454329558,-0.6110862599777236,-0.2237974773499689,-0.7053766955117073,0.9878429770469666,0.1228294223546982,-0.09528344124555588,23.53871154785156,-9.527400970458984,11.124267578125,2,9631.07673425,1,2,1580905915.317901,1580903939.50652,1577,0.4102195,0,0,2131.439,1,0,1580905796.492468,9629.651929,0,14.63318,97.03325
1580905916.4426,142,0,1580904337.000819,41.20701635159924,29.07533761282497,172.748,-1,-1,5.74967098236084,48.00724964208526,-9999,9632.218860916668,0.9671173095703125,0.101531982421875,-0.092254638671875,9632.213825916668,0.7263518133512543,1.474552123307035,-0.1233989904081428,-0.004585622809827328,-0.009627767838537693,-0.02589951828122139,-0.01808136701583862,-0.01758286356925964,-0.004793882369995117,2,0.2810372134969807,-0.6110119400973605,-0.2237393679817768,-0.7054242069514797,0.9878033995628357,0.1230860576033592,-0.09536498785018921,23.54645538330078,-9.452133178710938,11.141357421875,2,9631.07673425,1,2,1580905915.317901,1580903939.50652,1577,0.4102195,0,0,2131.439,1,0,1580905796.492468,9629.651929,0,14.63318,97.03325
1580905916.452056,143,0,1580904337.000819,41.20701635159924,29.07533761282497,172.748,-1,-1,5.74967098236084,48.00724964208526,-9999,9632.228900916667,0.964141845703125,0.1010589599609375,-0.08624267578125,9632.223865916667,0.7263994949329425,1.474415352231839,-0.123614344150198,-0.008636823855340481,-0.01668061688542366,-0.02361159585416317,-0.02232950925827026,-0.02197787165641785,0.001701772212982178,2,0.2811092817831623,-0.6109245505586437,-0.2237061214674745,-0.7054816734377672,0.9877638816833496,0.1232997700572014,-0.09549753367900848,23.54645538330078,-9.452133178710938,11.141357421875,2,9631.07673425,1,2,1580905915.317901,1580903939.50652,1577,0.4102195,0,0,2131.439,1,0,1580905796.492468,9629.651929,0,14.63318,97.03325
1580905916.462138,144,0,1580904337.000819,41.20701635159924,29.07533761282497,172.748,-1,-1,5.74967098236084,48.00724964208526,-9999,9632.238971916668,0.97430419921875,0.1014404296875,-0.0875244140625,9632.233905916668,0.7263586168945447,1.474204282570296,-0.1237247784956427,0.003652703948318958,-0.02110511623322964,-0.01134503446519375,-0.02527117729187012,-0.02256068587303162,0.007921397686004639,2,0.2811104943961202,-0.6108392054634701,-0.2236858475230011,-0.7055615838086116,0.9877302050590515,0.1234093606472015,-0.09570471197366714,23.55660247802734,-9.470832824707031,11.28756713867188,2,9631.07673425,1,2,1580905915.317901,1580903939.50652,1577,0.4102195,0,0,2131.439,1,0,1580905796.492468,9629.651929,0,14.63318,97.03325
1580905916.496549,145,0,1580904337.000819,41.20701635159924,29.07533761282497,172.748,-1,-1,5.74967098236084,48.00724964208526,-9999,9632.249011916667,0.9730224609375,0.102325439453125,-0.084197998046875,9632.243945916667,0.7262861480839579,1.473927834592086,-0.1238189023354567,0.00591585785150528,-0.02707831934094429,-0.01073570363223553,-0.01507085561752319,-0.02227279543876648,0.006911754608154297,2,0.2810892997444623,-0.6107376636092376,-0.2236688491845198,-0.705663192190077,0.9876919984817505,0.1235027611255646,-0.09597662091255188,23.55660247802734,-9.470832824707031,11.28756713867188,2,9631.07673425,1,2,1580905915.317901,1580903939.50652,1577,0.4102195,0,0,2131.439,1,0,1580905796.492468,9629.651929,0,14.63318,97.03325
1580905916.497752,146,0,1580904337.000819,41.20701635159924,29.07533761282497,172.748,-1,-1,5.74967098236084,48.00724964208526,-9999,9632.259052916666,0.975067138671875,0.1036224365234375,-0.0912628173828125,9632.253986916667,0.7261983261258961,1.473608979601763,-0.1239565961886246,0.007803317159414291,-0.03116205707192421,-0.01498213410377502,-0.01630479097366333,-0.02152462303638458,0.01055228710174561,2,0.2810733376485394,-0.6106167547047895,-0.2236383979276332,-0.7057839632503738,0.9876446127891541,0.1236394047737122,-0.09628991782665253,23.58344268798828,-9.360557556152344,11.361328125,2,9631.07673425,1,2,1580905915.317901,1580903939.50652,1577,0.4102195,0,0,2131.439,1,0,1580905796.492468,9629.651929,0,14.63318,97.03325
1580905916.498781,147,0,1580904337.000819,41.20701635159924,29.07533761282497,172.748,-1,-1,5.74967098236084,48.00724964208526,-9999,9632.269092916667,0.9736175537109375,0.103546142578125,-0.09527587890625,9632.264026916668,0.7261462499623648,1.473329334208396,-0.1241638163462254,0.002587516792118549,-0.02786746062338352,-0.02270769700407982,-0.01420766115188599,-0.02043363451957703,0.003761231899261475,2,0.2810962844211092,-0.6104941314343583,-0.2235926709542635,-0.7058952382467065,0.9875919222831726,0.1238450333476067,-0.09656358510255814,23.58344268798828,-9.360557556152344,11.361328125,2,9631.07673425,1,2,1580905915.317901,1580903939.50652,1577,0.4102195,0,0,2131.439,1,0,1580905796.492468,9629.651929,0,14.63318,97.03325
1580905916.502222,148,0,1580904337.000819,41.20701635159924,29.07533761282497,172.748,-1,-1,5.74967098236084,48.00724964208526,-9999,9632.279132916667,0.975494384765625,0.0966033935546875,-0.096588134765625,9632.274066916667,0.7261358420653418,1.473111993388247,-0.124395290770215,-0.0006321035325527191,-0.02139673754572868,-0.02522556856274605,-0.01560747623443604,-0.02074000239372253,-3.927946090698242e-05,2,0.2811470566713841,-0.6103839860554547,-0.2235451225633543,-0.7059854194925641,0.9875425100326538,0.1240747198462486,-0.09677544236183167,23.54856872558594,-9.228878021240234,11.22222900390625,2,9631.07673425,1,2,1580905915.317901,1580903939.50652,1577,0.4102195,0,0,2131.439,1,0,1580905796.492468,9629.651929,0,14.63318,97.03325
1580905916.512339,149,0,1580904337.000819,41.20701635159924,29.07533761282497,172.748,-1,-1,5.74967098236084,48.00724964208526,-9999,9632.289172916668,0.972320556640625,0.09222412109375,-0.0944061279296875,9632.284137916668,0.7261852179514622,1.472947706680144,-0.1246449283343565,-0.008569655008614063,-0.01630397513508797,-0.02566126175224781,-0.01368385553359985,-0.02793090045452118,-0.001192331314086914,2,0.2812282234070916,-0.6102813840077514,-0.2235053721640242,-0.7060542415670705,0.9874955415725708,0.124322421848774,-0.09693463891744614,23.54856872558594,-9.228878021240234,11.22222900390625,2,9631.07673425,1,2,1580905915.317901,1580903939.50652,1577,0.4102195,0,0,2131.439,1,0,1580905796.492468,9629.651929,0,14.63318,97.03325
1580905916.522429,150,0,1580904337.000819,41.20701635159924,29.07533761282497,172.748,-1,-1,5.74967098236084,48.00724964208526,-9999,9632.299213916667,0.9726104736328125,0.0982513427734375,-0.094329833984375,9632.294177916667,0.7262852620152076,1.472835504111186,-0.1249105665471292,-0.01283382810652256,-0.01163443457335234,-0.02610975876450539,-0.01681387424468994,-0.03257419168949127,0.001097440719604492,2,0.2813360388963395,-0.6101876199106588,-0.2234710632116893,-0.7061031909422738,0.9874517917633057,0.1245859935879707,-0.09704220294952393,23.53083038330078,-9.4007568359375,11.19662475585938,2,9631.07673425,1,2,1580905915.317901,1580903939.50652,1577,0.4102195,0,0,2131.439,1,0,1580905796.492468,9629.651929,0,14.63318,97.03325
1580905916.553827,151,0,1580904337.000819,41.20701635159924,29.07533761282497,172.748,-1,-1,5.74967098236084,48.00724964208526,-9999,9632.309253916666,0.9714813232421875,0.1019134521484375,-0.096099853515625,9632.304218916668,0.726410171092989,1.472756466700667,-0.1251511628187531,-0.01458379160612822,-0.009630138985812664,-0.02373901382088661,-0.01648634672164917,-0.02678608894348145,0.001248955726623535,2,0.2814466709179196,-0.610105822796565,-0.2234489287319628,-0.7061367951059265,0.9874142408370972,0.1248247176408768,-0.09711731225252151,23.53083038330078,-9.4007568359375,11.19662475585938,2,9631.07673425,1,2,1580905915.317901,1580903939.50652,1577,0.4102195,0,0,2131.439,1,0,1580905796.492468,9629.651929,0,14.63318,97.03325
1580905916.555123,152,0,1580904337.000819,41.20701635159924,29.07533761282497,172.748,-1,-1,5.74967098236084,48.00724964208526,-9999,9632.319293916667,0.9670562744140625,0.102020263671875,-0.0967254638671875,9632.314258916667,0.7265446550058402,1.472708602703543,-0.1253565330229521,-0.01621881127357483,-0.006568470038473606,-0.01956219784915447,-0.01758527755737305,-0.02332806587219238,-0.0004762411117553711,2,0.2815517762983004,-0.6100389853506475,-0.2234371227583274,-0.7061564185983955,0.9873841404914856,0.1250284761190414,-0.09716206789016724,23.57591247558594,-9.256103515625,11.23883056640625,2,9631.07673425,1,2,1580905915.317901,1580903939.50652,1577,0.4102195,0,0,2131.439,1,0,1580905796.492468,9629.651929,0,14.63318,97.03325
1580905916.556699,153,0,1580904337.000819,41.20701635159924,29.07533761282497,172.748,-1,-1,5.74967098236084,48.00724964208526,-9999,9632.329334916667,0.964630126953125,0.09979248046875,-0.0997314453125,9632.324298916667,0.7266698641389608,1.472664118277091,-0.1255135209537946,-0.01449468079954386,-0.00608430802822113,-0.01487663201987743,-0.02198666334152222,-0.02337731420993805,-0.001060009002685547,2,0.2816380889320776,-0.6099819310222427,-0.2234371192434708,-0.706171249139801,0.9873602390289307,0.1251842379570007,-0.0972040593624115,23.50807189941406,-9.230049133300781,11.26580810546875,2,9631.07673425,1,2,1580905915.317901,1580903939.50652,1577,0.4102195,0,0,2131.439,1,0,1580905796.492468,9629.651929,0,14.63318,97.03325
1580905916.562589,154,0,1580904337.000819,41.20701635159924,29.07533761282497,172.748,-1,-1,5.74967098236084,48.00724964208526,-9999,9632.339374916668,0.9678192138671875,0.1017913818359375,-0.0941619873046875,9632.334338916668,0.7267744689172699,1.472601356403166,-0.1256028721324166,-0.01128906570374966,-0.008265826851129532,-0.007559126708656549,-0.02439558506011963,-0.02569389343261719,-0.004004955291748047,2,0.2816931630563295,-0.6099315452954244,-0.2234541737255777,-0.7061874943382078,0.9873430728912354,0.1252728849649429,-0.09726494550704956,23.50807189941406,-9.230049133300781,11.26580810546875,2,9631.07673425,1,2,1580905915.317901,1580903939.50652,1577,0.4102195,0,0,2131.439,1,0,1580905796.492468,9629.651929,0,14.63318,97.03325
1580905916.572707,155,0,1580904337.000819,41.20701635159924,29.07533761282497,172.748,-1,-1,5.74967098236084,48.00724964208526,-9999,9632.349445916667,0.9726715087890625,0.1025848388671875,-0.0929412841796875,9632.344379916667,0.7268306498473547,1.472492679101429,-0.1256307661547071,-0.006119071040302515,-0.01210796926170588,-0.00265544792637229,-0.02119249105453491,-0.02372273802757263,0.001671671867370605,2,0.2817075755706511,-0.6098810450042991,-0.2234803532397482,-0.7062171032970067,0.9873290657997131,0.1253005564212799,-0.097371906042099,23.46376037597656,-9.414119720458984,11.29443359375,2,9631.07673425,1,2,1580905915.317901,1580903939.50652,1577,0.4102195,0,0,2131.439,1,0,1580905796.492468,9629.651929,0,14.63318,97.03325
1580905916.582672,156,0,1580904337.000819,41.20701635159924,29.07533761282497,172.748,-1,-1,5.74967098236084,48.00724964208526,-9999,9632.359485916668,0.97119140625,0.10284423828125,-0.0915985107421875,9632.354419916668,0.7268617709925441,1.472369529275011,-0.1256384123922116,-0.004130307119339705,-0.01200034655630589,-0.00186633225530386,-0.0163271427154541,-0.0229368656873703,0.003013968467712402,2,0.2817059100178909,-0.6098320133194796,-0.2235062252653225,-0.7062518530092701,0.9873160123825073,0.1253081411123276,-0.09749339520931244,23.46376037597656,-9.414119720458984,11.29443359375,2,9631.07673425,1,2,1580905915.317901,1580903939.50652,1577,0.4102195,0,0,2131.439,1,0,1580905796.492468,9629.651929,0,14.63318,97.03325
1580905916.613859,157,0,1580904337.000819,41.20701635159924,29.07533761282497,172.748,-1,-1,5.74967098236084,48.00724964208526,-9999,9632.369525916667,0.9780731201171875,0.103485107421875,-0.0943603515625,9632.364459916667,0.7268545534815805,1.472252124538464,-0.1256201376011528,0.000323563814163208,-0.01164934225380421,0.0008365102112293243,-0.01779806613922119,-0.02265931665897369,0.00447314977645874,2,0.2816844108449197,-0.6097943319065441,-0.2235260864482762,-0.7062866708867654,0.9873068332672119,0.1252900063991547,-0.09760952740907669,23.52579498291016,-9.266681671142578,11.27743530273438,2,9631.07673425,1,2,1580905915.317901,1580903939.50652,1577,0.4102195,0,0,2131.439,1,0,1580905796.492468,9629.651929,0,14.63318,97.03325
1580905916.615061,158,0,1580904337.000819,41.20701635159924,29.07533761282497,172.748,-1,-1,5.74967098236084,48.00724964208526,-9999,9632.379566916667,0.968841552734375,0.103668212890625,-0.0908966064453125,9632.374500916667,0.7268481428947013,1.472177302746109,-0.1256120366887702,-0.0002670260146260262,-0.00815352238714695,0.0001581357792019844,-0.0109100341796875,-0.02201037108898163,0.001785397529602051,2,0.2816713490596955,-0.6097700375671063,-0.223536965602822,-0.7063094285700657,0.9873005747795105,0.1252819746732712,-0.09768350422382355,23.52579498291016,-9.266681671142578,11.27743530273438,2,9631.07673425,1,2,1580905915.317901,1580903939.50652,1577,0.4102195,0,0,2131.439,1,0,1580905796.492468,9629.651929,0,14.63318,97.03325
1580905916.6161,159,0,1580904337.000819,41.20701635159924,29.07533761282497,172.748,-1,-1,5.74967098236084,48.00724964208526,-9999,9632.389606916668,0.96978759765625,0.1043548583984375,-0.0933990478515625,9632.384540916668,0.7268661546571761,1.472160694294458,-0.1256477049839489,-0.003003157675266266,-0.00171879306435585,-0.005264592822641134,-0.02013552188873291,-0.02186271548271179,0.005265235900878906,2,0.2816870294536565,-0.6097562487301178,-0.2235342056402428,-0.706316007383167,0.9872945547103882,0.1253173649311066,-0.09769947081804276,23.51258087158203,-9.269374847412109,11.16610717773438,2,9631.07673425,1,2,1580905915.317901,1580903939.50652,1577,0.4102195,0,0,2131.439,1,0,1580905796.492468,9629.651929,0,14.63318,97.03325
1580905916.622973,160,0,1580904337.000819,41.20701635159924,29.07533761282497,172.748,-1,-1,5.74967098236084,48.00724964208526,-9999,9632.399646916667,0.9710540771484375,0.103607177734375,-0.0957183837890625,9632.394611916667,0.726880957874074,1.472204118932435,-0.1256491094305082,-0.001708647236227989,0.005679596215486526,-0.0001527178101241589,-0.01919358968734741,-0.02117748558521271,0.002719700336456299,2,0.2816968802326618,-0.6097692843537794,-0.2235328634521743,-0.7063012198825559,0.9872986078262329,0.1253187507390976,-0.09765657782554626,23.51258087158203,-9.269374847412109,11.16610717773438,2,9631.07673425,1,2,1580905915.317901,1580903939.50652,1577,0.4102195,0,0,2131.439,1,0,1580905796.492468,9629.651929,0,14.63318,97.03325
1580905916.63288,161,0,1580904337.000819,41.20701635159924,29.07533761282497,172.748,-1,-1,5.74967098236084,48.00724964208526,-9999,9632.409686916668,0.972076416015625,0.1024627685546875,-0.09490966796875,9632.404651916668,0.7269122490636146,1.472293945679473,-0.1256449609331966,-0.002709995955228806,0.009085511788725853,-0.0001093083992600441,-0.0179363489151001,-0.02192103862762451,0.0003116130828857422,2,0.2817150814422008,-0.6097972186152817,-0.223532588514877,-0.7062698517928109,0.9873077869415283,0.1253146380186081,-0.09756793081760406,23.47132873535156,-9.282035827636719,11.21310424804688,2,9631.07673425,1,2,1580905915.317901,1580903939.50652,1577,0.4102195,0,0,2131.439,1,0,1580905796.492468,9629.651929,0,14.63318,97.03325
