loggingTime,loggingSample,identifierForVendor,locationTimestamp_since1970,locationLatitude,locationLongitude,locationAltitude,locationSpeed,locationCourse,locationVerticalAccuracy,locationHorizontalAccuracy,locationFloor,accelerometerTimestamp_sinceReboot,accelerometerAccelerationX,accelerometerAccelerationY,accelerometerAccelerationZ,motionTimestamp_sinceReboot,motionYaw,motionRoll,motionPitch,motionRotationRateX,motionRotationRateY,motionRotationRateZ,motionUserAccelerationX,motionUserAccelerationY,motionUserAccelerationZ,motionAttitudeReferenceFrame,motionQuaternionX,motionQuaternionY,motionQuaternionZ,motionQuaternionW,motionGravityX,motionGravityY,motionGravityZ,motionMagneticFieldX,motionMagneticFieldY,motionMagneticFieldZ,motionMagneticFieldCalibrationAccuracy,activityTimestamp_sinceReboot,activity,activityActivityConfidence,activityActivityStartDate,pedometerStartDate,pedometerNumberofSteps,pedometerAverageActivePace,pedometerCurrentPace,pedometerCurrentCadence,pedometerDistance,pedometerFloorAscended,pedometerFloorDescended,pedometerEndDate,altimeterTimestamp_sinceReboot,altimeterReset,altimeterRelativeAltitude,altimeterPressure
1582550306.320695,1,0,1582550305.248905,41.20731444146253,29.07237511545815,161.2861,-1,-1,15.9981050491333,65,-9999,103194.153751125,0.971588134765625,0.0977020263671875,-0.0759735107421875,103194.148716125,2.915793789527767,1.491075078457633,-0.07915312683966154,0.00380396656692028,-0.0349317379295826,-0.009736359119415283,-0.0202949047088623,0.01841101050376892,0.01105380058288574,2,-0.676795348858411,0.04747962050901222,0.7264502713981058,0.1093784609045327,0.9937028288841248,0.07907050102949142,-0.07938748598098755,41.38763427734375,33.1368522644043,-19.58514404296875,2,103194.128513125,2,0,1582550306.28701,0,0,0,0,0,0,0,0,0,103190.961516,0,-3.096802,99.13385
1582550306.325817,2,0,1582550305.248905,41.20731444146253,29.07237511545815,161.2861,-1,-1,15.9981050491333,65,-9999,103194.163822125,0.9634246826171875,0.097900390625,-0.0835723876953125,103194.158756125,2.915712640323998,1.490884478889037,-0.07927491116779849,0.007673805579543114,-0.01976823061704636,-0.01119390781968832,-0.02074301242828369,0.01833528280258179,0.00547480583190918,2,-0.6767276029908464,0.04745204526186098,0.7265038983279947,0.1094532676941659,0.9936780333518982,0.0791919007897377,-0.07957611232995987,41.50160217285156,33.27392196655273,-19.51446533203125,2,103194.128513125,2,0,1582550306.28701,0,0,0,0,0,0,0,0,0,103190.961516,0,-3.096802,99.13385
1582550306.333521,3,0,1582550305.248905,41.20731444146253,29.07237511545815,161.2861,-1,-1,15.9981050491333,65,-9999,103194.173862125,0.9670257568359375,0.0998382568359375,-0.0796051025390625,103194.168796125,2.915642654233089,1.490872572573206,-0.07938479277542164,0.006506918929517269,0.001928307116031647,-0.008942807093262672,-0.02904939651489258,0.01863774657249451,-0.003302931785583496,2,-0.6767246902822874,0.04743484023238781,0.726498436450867,0.1095158163477352,0.9936686158180237,0.07930143922567368,-0.07958725839853287,41.50160217285156,33.27392196655273,-19.51446533203125,2,103194.128513125,2,0,1582550306.28701,0,0,0,0,0,0,0,0,0,103190.961516,0,-3.096802,99.13385
1582550306.34358,4,0,1582550305.248905,41.20731444146253,29.07237511545815,161.2861,-1,-1,15.9981050491333,65,-9999,103194.183903125,0.975799560546875,0.09979248046875,-0.0733795166015625,103194.178837125,2.915578878500707,1.49084005305944,-0.07949659340177238,0.005223807413130999,-0.004419604316353798,-0.009400604292750359,-0.0287938117980957,0.02012848854064941,-0.002050638198852539,2,-0.6767144971787185,0.04741368646606625,0.7265000480230224,0.1095772138145099,0.9936571717262268,0.07941288501024246,-0.07961886376142502,41.35043334960938,33.26369094848633,-19.386474609375,2,103194.128513125,2,0,1582550306.28701,0,0,0,0,0,0,0,0,0,103190.961516,0,-3.096802,99.13385
1582550306.35356,5,0,1582550305.248905,41.20731444146253,29.07237511545815,161.2861,-1,-1,15.9981050491333,65,-9999,103194.193943125,0.9788360595703125,0.0979461669921875,-0.07354736328125,103194.188877125,2.915507206318798,1.490782403996644,-0.07964897789613781,0.006009905133396387,-0.004475224763154984,-0.01445733103901148,-0.01908779144287109,0.02072426676750183,0.006108105182647705,2,-0.6766961277920794,0.0473789522627493,0.7265075195969871,0.1096556590948167,0.9936403632164001,0.07956478744745255,-0.07967516779899597,41.35043334960938,33.26369094848633,-19.386474609375,2,103194.128513125,2,0,1582550306.28701,0,0,0,0,0,0,0,0,0,103190.961516,0,-3.096802,99.13385
1582550306.366077,6,0,1582550305.248905,41.20731444146253,29.07237511545815,161.2861,-1,-1,15.9981050491333,65,-9999,103194.203983125,0.985443115234375,0.10052490234375,-0.066162109375,103194.198917125,2.915402315205549,1.490597231399418,-0.07984676621928433,0.01042009890079498,-0.01745280995965004,-0.01832264289259911,-0.01551711559295654,0.01811617612838745,0.005543172359466553,2,-0.6766319159342072,0.04733182470722369,0.7265539294002713,0.1097644023972907,0.9936098456382751,0.07976195216178894,-0.07985790073871613,41.29328918457031,33.46770858764648,-19.662109375,2,103194.128513125,2,0,1582550306.28701,0,0,0,0,0,0,0,0,0,103190.961516,0,-3.096802,99.13385
1582550306.375542,7,0,1582550305.248905,41.20731444146253,29.07237511545815,161.2861,-1,-1,15.9981050491333,65,-9999,103194.214023125,0.97894287109375,0.100799560546875,-0.0694122314453125,103194.208988125,2.915259551062936,1.490232710050484,-0.08007323358620679,0.01286292634904385,-0.03793302923440933,-0.02255794405937195,-0.008984982967376709,0.01985883712768555,0.01260256767272949,2,-0.6765024455462383,0.04727713172292497,0.7266574307095868,0.1099007492401851,0.993562638759613,0.07998768985271454,-0.08021862804889679,41.29328918457031,33.46770858764648,-19.662109375,2,103194.128513125,2,0,1582550306.28701,0,0,0,0,0,0,0,0,0,103190.961516,0,-3.096802,99.13385
1582550306.384174,8,0,1582550305.248905,41.20731444146253,29.07237511545815,161.2861,-1,-1,15.9981050491333,65,-9999,103194.224064125,0.9647064208984375,0.0996246337890625,-0.0818328857421875,103194.219028125,2.915120553000137,1.489890207847029,-0.08025637331185147,0.01178408041596413,-0.03377982974052429,-0.01891207695007324,-0.01223868131637573,0.02104955911636353,0.01300293207168579,2,-0.6763798308185971,0.04723822079476481,0.7267560774523063,0.110020705833232,0.9935206770896912,0.08017024397850037,-0.08055774867534637,41.23410034179688,33.37588119506836,-19.3580322265625,2,103194.128513125,2,0,1582550306.28701,0,0,0,0,0,0,0,0,0,103190.961516,0,-3.096802,99.13385
1582550306.393789,9,0,1582550305.248905,41.20731444146253,29.07237511545815,161.2861,-1,-1,15.9981050491333,65,-9999,103194.234104125,0.9563751220703125,0.10064697265625,-0.086761474609375,103194.229069125,2.915031610130968,1.489732692605259,-0.08035451432348309,0.007162963040173054,-0.01526846271008253,-0.009209383279085159,-0.02650034427642822,0.01924276351928711,0.001089096069335938,2,-0.6763232387980325,0.04722366454710164,0.7267992396581979,0.110089604979813,0.9935001134872437,0.08026807010173798,-0.08071360737085342,41.23410034179688,33.37588119506836,-19.3580322265625,2,103194.128513125,2,0,1582550306.28701,0,0,0,0,0,0,0,0,0,103190.961516,0,-3.096802,99.13385
1582550306.40376,10,0,1582550305.248905,41.20731444146253,29.07237511545815,161.2861,-1,-1,15.9981050491333,65,-9999,103194.244144125,0.9566650390625,0.10064697265625,-0.0865020751953125,103194.239109125,2.914975679443198,1.489833421080073,-0.0803497627588088,0.006847112439572811,0.01112585887312889,0.001092256512492895,-0.03615248203277588,0.02026978135108948,-0.005847156047821045,2,-0.6763583934433355,0.04724985382541169,0.726762245253791,0.1101059396473076,0.9935084581375122,0.08026333153247833,-0.08061355352401733,41.23268127441406,33.72584915161133,-19.57989501953125,2,103194.128513125,2,0,1582550306.28701,0,0,0,0,0,0,0,0,0,103190.961516,0,-3.096802,99.13385
1582550306.414401,11,0,1582550305.248905,41.20731444146253,29.07237511545815,161.2861,-1,-1,15.9981050491333,65,-9999,103194.254185125,0.9673919677734375,0.100799560546875,-0.08123779296875,103194.249149125,2.914954439027907,1.490066389903668,-0.08025214975825791,0.00402036402374506,0.02250959724187851,0.01069182064384222,-0.0383150577545166,0.02041289210319519,-0.006779611110687256,2,-0.6764398076999339,0.04730563477365896,0.7266874958875484,0.1100754713059839,0.9935351014137268,0.0801660344004631,-0.08038272708654404,41.23268127441406,33.72584915161133,-19.57989501953125,2,103194.128513125,2,0,1582550306.28701,0,0,0,0,0,0,0,0,0,103190.961516,0,-3.096802,99.13385
1582550306.427699,12,0,1582550305.248905,41.20731444146253,29.07237511545815,161.2861,-1,-1,15.9981050491333,65,-9999,103194.264225125,0.9773712158203125,0.0988006591796875,-0.076141357421875,103194.259189125,2.914956006756727,1.490318394227014,-0.08013263939620115,0.001050140243023634,0.02660340815782547,0.01396990474313498,-0.0284571647644043,0.0211423933506012,-0.001887083053588867,2,-0.6765280559405752,0.04736275805462187,0.7266086563465848,0.1100289094567976,0.9935648441314697,0.08004690706729889,-0.08013311773538589,41.34596252441406,33.30462265014648,-19.5087890625,2,103194.128513125,2,0,1582550306.28701,0,0,0,0,0,0,0,0,0,103190.961516,0,-3.096802,99.13385
1582550306.43387,13,0,1582550305.248905,41.20731444146253,29.07237511545815,161.2861,-1,-1,15.9981050491333,65,-9999,103194.274296125,0.9847869873046875,0.098785400390625,-0.0723876953125,103194.269230125,2.914961195808332,1.490490595262817,-0.08005461317760795,0.0002027677837759256,0.01879457011818886,0.009215490892529488,-0.01843678951263428,0.01922127604484558,0.002672791481018066,2,-0.6765885470972514,0.04739906898800705,0.7265548974577333,0.1099968248158562,0.993584930896759,0.0799691304564476,-0.07996252924203873,41.34596252441406,33.30462265014648,-19.5087890625,2,103194.128513125,2,0,1582550306.28701,0,0,0,0,0,0,0,0,0,103190.961516,0,-3.096802,99.13385
1582550306.44402,14,0,1582550305.248905,41.20731444146253,29.07237511545815,161.2861,-1,-1,15.9981050491333,65,-9999,103194.284336125,0.9855194091796875,0.0989837646484375,-0.071319580078125,103194.279270125,2.914958275645738,1.490534352713813,-0.08003368330725048,0.0002118225675076246,0.003737591207027435,0.003056398592889309,-0.009759604930877686,0.01878437399864197,0.006993412971496582,2,-0.6766037898460975,0.04741012443665249,0.726540981280801,0.1099898259493414,0.9935899972915649,0.07994826883077621,-0.07991918176412582,41.25950622558594,33.32629013061523,-19.4127197265625,2,103194.128513125,2,0,1582550306.28701,0,0,0,0,0,0,0,0,0,103190.961516,0,-3.096802,99.13385
1582550306.453992,15,0,1582550305.248905,41.20731444146253,29.07237511545815,161.2861,-1,-1,15.9981050491333,65,-9999,103194.294376125,0.9797210693359375,0.0994110107421875,-0.0723419189453125,103194.289310125,2.914926456714016,1.49049591546151,-0.08007973182333748,0.002750882413238287,-0.005541298538446426,-0.005330493208020926,-0.007738888263702393,0.01905888319015503,0.00846552848815918,2,-0.6765903652600597,0.04740190116353166,0.7265497604288222,0.1100177138525091,0.9935832619667053,0.07999417185783386,-0.07995707541704178,41.25950622558594,33.32629013061523,-19.4127197265625,2,103194.128513125,2,0,1582550306.28701,0,0,0,0,0,0,0,0,0,103190.961516,0,-3.096802,99.13385
1582550306.464054,16,0,1582550305.248905,41.20731444146253,29.07237511545815,161.2861,-1,-1,15.9981050491333,65,-9999,103194.304417125,0.9691009521484375,0.100555419921875,-0.0764007568359375,103194.299351125,2.91486579305152,1.490451667549012,-0.08013481472071408,0.005469437222927809,-0.004641417413949966,-0.004739271476864815,-0.01197278499603271,0.01935493946075439,0.007990241050720215,2,-0.6765743987117283,0.04739980680928058,0.7265584537721166,0.1100592468165004,0.9935752749443054,0.08004907518625259,-0.08000068366527557,41.24978637695312,33.36562728881836,-19.56146240234375,2,103194.128513125,2,0,1582550306.28701,0,0,0,0,0,0,0,0,0,103190.961516,0,-3.096802,99.13385
1582550306.47504,17,0,1582550305.248905,41.20731444146253,29.07237511545815,161.2861,-1,-1,15.9981050491333,65,-9999,103194.314457125,0.96453857421875,0.0989227294921875,-0.080291748046875,103194.309391125,2.91478299774542,1.490454245466056,-0.08018496619950191,0.00794309563934803,-0.0008454900234937668,-0.004626487847417593,-0.02272653579711914,0.02049511671066284,0.004233717918395996,2,-0.6765747781430795,0.0474095865976909,0.7265503905478579,0.1101060661393547,0.9935715198516846,0.08009906858205795,-0.07999780029058456,41.24978637695312,33.36562728881836,-19.56146240234375,2,103194.128513125,2,0,1582550306.28701,0,0,0,0,0,0,0,0,0,103191.903178,0,-3.144363,99.13443
1582550306.485571,18,0,1582550305.248905,41.20731444146253,29.07237511545815,161.2861,-1,-1,15.9981050491333,65,-9999,103194.324497125,0.9634246826171875,0.0996551513671875,-0.0815582275390625,103194.319462125,2.914715068361887,1.490604320105678,-0.08019739854409816,0.005739595741033554,0.01741021312773228,-0.0004141661338508129,-0.02824598550796509,0.01898738741874695,0.0003156065940856934,2,-0.6766280311994853,0.04743627867191269,0.7264952488168028,0.1101313534895052,0.993582546710968,0.08011145889759064,-0.07984861731529236,41.35939025878906,33.28660202026367,-19.5247802734375,2,103194.128513125,2,0,1582550306.28701,0,0,0,0,0,0,0,0,0,103191.903178,0,-3.144363,99.13443
1582550306.494169,19,0,1582550305.248905,41.20731444146253,29.07237511545815,161.2861,-1,-1,15.9981050491333,65,-9999,103194.334537125,0.9667205810546875,0.1019134521484375,-0.07830810546875,103194.329502125,2.914654916745098,1.490802894284748,-0.08014488885080039,0.006264875642955303,0.02164726331830025,0.007165794260799885,-0.03044807910919189,0.01916179060935974,-0.002139687538146973,2,-0.6766972578448984,0.0474868007796081,0.7264275503061646,0.1101309023939711,0.9936025738716125,0.08005911856889725,-0.07965164631605148,41.35939025878906,33.28660202026367,-19.5247802734375,2,103194.128513125,2,0,1582550306.28701,0,0,0,0,0,0,0,0,0,103191.903178,0,-3.144363,99.13443
1582550306.504193,20,0,1582550305.248905,41.20731444146253,29.07237511545815,161.2861,-1,-1,15.9981050491333,65,-9999,103194.344578125,0.97613525390625,0.1016998291015625,-0.0709381103515625,103194.339542125,2.914582254731126,1.490938184760055,-0.08007498919593908,0.007882480509579182,0.01540428400039673,0.007809214293956757,-0.0281754732131958,0.02150502800941467,-0.0001374483108520508,2,-0.676742709612008,0.04754443252413892,0.7263814139574944,0.1101306487909672,0.9936188459396362,0.07998944073915482,-0.079517662525177,41.27447509765625,33.45036697387695,-19.52056884765625,2,103194.128513125,2,0,1582550306.28701,0,0,0,0,0,0,0,0,0,103191.903178,0,-3.144363,99.13443
1582550306.514234,21,0,1582550305.248905,41.20731444146253,29.07237511545815,161.2861,-1,-1,15.9981050491333,65,-9999,103194.354618125,0.9751434326171875,0.09844970703125,-0.076385498046875,103194.349583125,2.914520897471255,1.491004028984403,-0.07999782280039999,0.005409578327089548,0.005736544728279114,0.00940641388297081,-0.01898586750030518,0.02220755815505981,0.007732152938842773,2,-0.6767629932544865,0.04759708799056811,0.7263598913883065,0.1101255214490677,0.9936302900314331,0.07991252094507217,-0.07945273816585541,41.27447509765625,33.45036697387695,-19.52056884765625,2,103194.128513125,2,0,1582550306.28701,0,0,0,0,0,0,0,0,0,103191.903178,0,-3.144363,99.13443
1582550306.52536,22,0,1582550305.248905,41.20731444146253,29.07237511545815,161.2861,-1,-1,15.9981050491333,65,-9999,103194.364658125,0.973388671875,0.099517822265625,-0.0775146484375,103194.359623125,2.91445693740858,1.491129561431081,-0.07992831650390128,0.006739560980349779,0.01456172950565815,0.008261255919933319,-0.01744496822357178,0.01885887980461121,0.004693508148193359,2,-0.676805103570538,0.04765110332536621,0.7263176069973172,0.1101224779647922,0.9936458468437195,0.07984323799610138,-0.07932844758033752,41.48661804199219,33.36796951293945,-19.51104736328125,2,103194.128513125,2,0,1582550306.28701,0,0,0,0,0,0,0,0,0,103191.903178,0,-3.144363,99.13443
1582550306.534317,23,0,1582550305.248905,41.20731444146253,29.07237511545815,161.2861,-1,-1,15.9981050491333,65,-9999,103194.374699125,0.9737701416015625,0.0988006591796875,-0.0747833251953125,103194.369663125,2.914387075881207,1.491247574762255,-0.07987686496739282,0.006156799383461475,0.01083474420011044,0.00566969346255064,-0.02069342136383057,0.01965788006782532,0.0008224844932556152,2,-0.6768448543100694,0.04770006846887859,0.7262763864264412,0.110127762605756,0.9936590790748596,0.07979195564985275,-0.07921149581670761,41.48661804199219,33.36796951293945,-19.51104736328125,2,103194.128513125,2,0,1582550306.28701,0,0,0,0,0,0,0,0,0,103191.903178,0,-3.144363,99.13443
1582550306.547444,24,0,1582550305.248905,41.20731444146253,29.07237511545815,161.2861,-1,-1,15.9981050491333,65,-9999,103194.384739125,0.9675445556640625,0.10089111328125,-0.0775146484375,103194.379703125,2.914296725163833,1.491433898072338,-0.07982383526285007,0.00868227519094944,0.01890492253005505,0.005424150265753269,-0.01927798986434937,0.0191308856010437,0.00426948070526123,2,-0.6769088549982438,0.04776034390482714,0.7262113302522759,0.1101383857511444,0.9936782717704773,0.07973909378051758,-0.07902670651674271,41.4710693359375,33.21390914916992,-19.65203857421875,2,103194.128513125,2,0,1582550306.28701,0,0,0,0,0,0,0,0,0,103191.903178,0,-3.144363,99.13443
1582550306.55489,25,0,1582550305.248905,41.20731444146253,29.07237511545815,161.2861,-1,-1,15.9981050491333,65,-9999,103194.394810125,0.9611663818359375,0.103729248046875,-0.0793609619140625,103194.389744125,2.914185902376462,1.491723535948367,-0.07972331097275165,0.01188220269978046,0.02871695905923843,0.01063902024179697,-0.02483248710632324,0.02037551999092102,0.001632511615753174,2,-0.6770085339530865,0.04785061391087742,0.7261125349318668,0.1101380119081989,0.9937090873718262,0.07963888347148895,-0.07873952388763428,41.4710693359375,33.21390914916992,-19.65203857421875,2,103194.128513125,2,0,1582550306.28701,0,0,0,0,0,0,0,0,0,103191.903178,0,-3.144363,99.13443
1582550306.564482,26,0,1582550305.248905,41.20731444146253,29.07237511545815,161.2861,-1,-1,15.9981050491333,65,-9999,103194.404850125,0.96014404296875,0.10125732421875,-0.081390380859375,103194.399784125,2.914061749076498,1.492235330790996,-0.07956795932752171,0.0132641177624464,0.05382870510220528,0.01626494899392128,-0.03181254863739014,0.0240246057510376,-0.0007522106170654297,2,-0.6771869704985842,0.04797768386180601,0.7259405294415857,0.1101187150595071,0.993761420249939,0.07948403060436249,-0.07823190093040466,41.54342651367188,33.26461410522461,-19.452880859375,2,103194.128513125,2,0,1582550306.28701,0,0,0,0,0,0,0,0,0,103191.903178,0,-3.144363,99.13443
1582550306.575142,27,0,1582550305.248905,41.20731444146253,29.07237511545815,161.2861,-1,-1,15.9981050491333,65,-9999,103194.414890125,0.9692230224609375,0.09954833984375,-0.07525634765625,103194.409824125,2.913910528770054,1.492844406912393,-0.07937443568585929,0.01704264990985394,0.06170588731765747,0.02011014893651009,-0.03440839052200317,0.02250859141349792,-0.004209697246551514,2,-0.6773989119130688,0.04813325629090404,0.7257362423286891,0.1100940740217182,0.9938242435455322,0.07929111272096634,-0.07762780785560608,41.54342651367188,33.26461410522461,-19.452880859375,2,103194.128513125,2,0,1582550306.28701,0,0,0,0,0,0,0,0,0,103191.903178,0,-3.144363,99.13443
1582550306.585002,28,0,1582550305.248905,41.20731444146253,29.07237511545815,161.2861,-1,-1,15.9981050491333,65,-9999,103194.424930125,0.974609375,0.098907470703125,-0.0750885009765625,103194.419865125,2.913748825614332,1.493550596826132,-0.0792030246882615,0.01709058694541454,0.07393752038478851,0.01659371331334114,-0.0264352560043335,0.02089411020278931,0.0008264780044555664,2,-0.6776463766615336,0.04828961468899207,0.7254971528526462,0.1100782084871259,0.9938923120498657,0.07912024110555649,-0.07692700624465942,41.43911743164062,33.27975082397461,-19.47662353515625,2,103194.128513125,2,0,1582550306.28701,0,0,0,0,0,0,0,0,0,103191.903178,0,-3.144363,99.13443
1582550306.59463,29,0,1582550305.248905,41.20731444146253,29.07237511545815,161.2861,-1,-1,15.9981050491333,65,-9999,103194.434971125,0.98583984375,0.0992431640625,-0.0673980712890625,103194.429905125,2.91355480881036,1.494238491413473,-0.07907090621285338,0.02111968956887722,0.07084967941045761,0.01236827485263348,-0.02071535587310791,0.01956102252006531,0.0006622672080993652,2,-0.6778874314003246,0.04844155120444299,0.7252603899469806,0.1100876097247488,0.9939554333686829,0.07898853719234467,-0.07624409347772598,41.43911743164062,33.27975082397461,-19.47662353515625,2,103194.128513125,2,0,1582550306.28701,0,0,0,0,0,0,0,0,0,103191.903178,0,-3.144363,99.13443
1582550306.60474,30,0,1582550305.248905,41.20731444146253,29.07237511545815,161.2861,-1,-1,15.9981050491333,65,-9999,103194.445011125,0.99072265625,0.101806640625,-0.058990478515625,103194.439976125,2.913323415556735,1.494672477988258,-0.07893555865489221,0.02394184097647667,0.04446547478437424,0.01295763254165649,-0.0106881856918335,0.02062669396400452,0.006518363952636719,2,-0.6780353361694496,0.04859336964336847,0.7251077160425465,0.1101155489511997,0.9939990639686584,0.07885361462831497,-0.07581353187561035,41.439453125,33.21237564086914,-19.29644775390625,2,103194.128513125,2,0,1582550306.28701,0,0,0,0,0,0,0,0,0,103191.903178,0,-3.144363,99.13443
1582550306.614669,31,0,1582550305.248905,41.20731444146253,29.07237511545815,161.2861,-1,-1,15.9981050491333,65,-9999,103194.455051125,0.981719970703125,0.1021575927734375,-0.0646514892578125,103194.450016125,2.913018460887995,1.494886773463377,-0.07879438957259072,0.03216017037630081,0.02075555361807346,0.01314172428101301,-0.003208279609680176,0.0222628116607666,0.01541560888290405,2,-0.6781015851423757,0.04876017550688339,0.725025800216365,0.1101735016229369,0.9940264225006104,0.07871288061141968,-0.07560136914253235,41.439453125,33.21237564086914,-19.29644775390625,2,103194.128513125,2,0,1582550306.28701,0,0,0,0,0,0,0,0,0,103191.903178,0,-3.144363,99.13443
1582550306.625109,32,0,1582550305.248905,41.20731444146253,29.07237511545815,161.2861,-1,-1,15.9981050491333,65,-9999,103194.465092125,0.973968505859375,0.1020355224609375,-0.07513427734375,103194.460056125,2.912674336985292,1.495200490811114,-0.07865681810078515,0.0328025259077549,0.03601279854774475,0.01163011509925127,-0.009926080703735352,0.02415475249290466,0.01327347755432129,2,-0.6782029702411319,0.04894443960559658,0.7249078166323375,0.1102443932991133,0.9940609931945801,0.0785757377743721,-0.07529034465551376,41.55763244628906,33.13920211791992,-19.2418212890625,2,103194.128513125,2,0,1582550306.28701,0,0,0,0,0,0,0,0,0,103191.903178,0,-3.144363,99.13443
1582550306.634767,33,0,1582550305.248905,41.20731444146253,29.07237511545815,161.2861,-1,-1,15.9981050491333,65,-9999,103194.475132125,0.9748992919921875,0.1048736572265625,-0.0669403076171875,103194.470096125,2.912195473001854,1.495407540804282,-0.07848330883381768,0.05366945639252663,0.009348968043923378,0.02261645346879959,-0.01958370208740234,0.02274084091186523,-8.428096771240234e-05,2,-0.6782612953778144,0.04918167144775965,0.7248204836538014,0.1103546148674267,0.99409019947052,0.07840276509523392,-0.07508555799722672,41.55763244628906,33.13920211791992,-19.2418212890625,2,103194.128513125,2,0,1582550306.28701,0,0,0,0,0,0,0,0,0,103191.903178,0,-3.144363,99.13443
1582550306.644852,34,0,1582550305.248905,41.20731444146253,29.07237511545815,161.2861,-1,-1,15.9981050491333,65,-9999,103194.485172125,0.9640960693359375,0.0972747802734375,-0.084381103515625,103194.480137125,2.911673730520634,1.495982995148068,-0.07836454062022043,0.05356799066066742,0.06559599190950394,0.01366849709302187,-0.01916313171386719,0.02737584710121155,0.008667111396789551,2,-0.678453543484312,0.04943379701888251,0.7246027328245196,0.1104895754381052,0.9941424131393433,0.0782843604683876,-0.07451418042182922,41.51556396484375,33.23698806762695,-19.2076416015625,2,103194.128513125,2,0,1582550306.28701,0,0,0,0,0,0,0,0,0,103191.903178,0,-3.144363,99.13443
1582550306.654832,35,0,1582550305.248905,41.20731444146253,29.07237511545815,161.2861,-1,-1,15.9981050491333,65,-9999,103194.495212125,0.9706878662109375,0.0898284912109375,-0.082916259765625,103194.490177125,2.911129495420093,1.496867354873105,-0.07829653223316424,0.05407261103391647,0.09388896822929382,0.005348986014723778,-0.0301133394241333,0.02101972699165344,-0.009072780609130859,2,-0.6787584327633109,0.04969218042715257,0.7242761202654633,0.1106419245125419,0.9942131042480469,0.0782165601849556,-0.07363535463809967,41.51556396484375,33.23698806762695,-19.2076416015625,2,103194.128513125,2,0,1582550306.28701,0,0,0,0,0,0,0,0,0,103191.903178,0,-3.144363,99.13443
1582550306.667028,36,0,1582550305.248905,41.20731444146253,29.07237511545815,161.2861,-1,-1,15.9981050491333,65,-9999,103194.505283125,0.974700927734375,0.0865631103515625,-0.071624755859375,103194.500217125,2.910663931999127,1.497746670081216,-0.07838264761534407,0.04616941511631012,0.08798767626285553,-0.01104649901390076,-0.02510511875152588,0.0123889148235321,-0.01162600517272949,2,-0.6790676903161511,0.04986746813991505,0.7239473374322097,0.1108175622613185,0.9942708611488342,0.07830241322517395,-0.07276061177253723,41.57040405273438,33.30318069458008,-19.30023193359375,2,103194.128513125,2,0,1582550306.28701,0,0,0,0,0,0,0,0,0,103191.903178,0,-3.144363,99.13443
1582550306.676494,37,0,1582550305.248905,41.20731444146253,29.07237511545815,161.2861,-1,-1,15.9981050491333,65,-9999,103194.515324125,0.971435546875,0.0916290283203125,-0.0775299072265625,103194.510258125,2.910328603369164,1.498746437133831,-0.07856288879398431,0.02964168973267078,0.1106946021318436,-0.01911035738885403,-0.01983761787414551,0.008943885564804077,-0.0004750490188598633,2,-0.6794263321929437,0.04997100066418908,0.7235794946164933,0.1109745624385424,0.9943289160728455,0.07848209887742996,-0.07176551967859268,41.57040405273438,33.30318069458008,-19.30023193359375,2,103194.128513125,2,0,1582550306.28701,0,0,0,0,0,0,0,0,0,103191.903178,0,-3.144363,99.13443
1582550306.685,38,0,1582550305.248905,41.20731444146253,29.07237511545815,161.2861,-1,-1,15.9981050491333,65,-9999,103194.525364125,0.9759979248046875,0.09832763671875,-0.062744140625,103194.520298125,2.910079294104354,1.499647064656475,-0.07872534797038275,0.02316594682633877,0.08682709187269211,-0.01720939204096794,-0.02312397956848145,0.01079604029655457,-0.007856249809265137,2,-0.6797505533636834,0.05004646529683771,0.7232510550928994,0.1110969097316582,0.9943806529045105,0.0786440521478653,-0.0708690732717514,41.63554382324219,33.09346389770508,-19.3505859375,2,103194.128513125,2,0,1582550306.28701,0,0,0,0,0,0,0,0,0,103191.903178,0,-3.144363,99.13443
1582550306.695082,39,0,1582550305.248905,41.20731444146253,29.07237511545815,161.2861,-1,-1,15.9981050491333,65,-9999,103194.535404125,0.966705322265625,0.099639892578125,-0.068695068359375,103194.530338125,2.909920867480688,1.50046151288393,-0.07880704841850296,0.01433896832168102,0.07956415414810181,-0.008759444579482079,-0.01818537712097168,0.01916795969009399,0.00592041015625,2,-0.6800434197423346,0.05011576965831693,0.7229608658401381,0.1111612709382195,0.9944314360618591,0.07872550189495087,-0.07005871087312698,41.63554382324219,33.09346389770508,-19.3505859375,2,103194.128513125,2,0,1582550306.28701,0,0,0,0,0,0,0,0,0,103191.903178,0,-3.144363,99.13443
1582550306.70506,40,0,1582550305.248905,41.20731444146253,29.07237511545815,161.2861,-1,-1,15.9981050491333,65,-9999,103194.545444125,0.95989990234375,0.100616455078125,-0.075927734375,103194.540378125,2.909803398746935,1.501441027654876,-0.07879078211334467,0.01117593236267567,0.09988966584205627,0.002326229587197304,-0.02576214075088501,0.0208626389503479,0.002489686012268066,2,-0.6803939962473673,0.05021609446320324,0.7226220534217543,0.1111736734967509,0.9945008158683777,0.07870928198099136,-0.06908470392227173,41.74118041992188,32.95254135131836,-19.38116455078125,2,103194.128513125,2,0,1582550306.28701,0,0,0,0,0,0,0,0,0,103191.903178,0,-3.144363,99.13443
1582550306.715111,41,0,1582550305.248905,41.20731444146253,29.07237511545815,161.2861,-1,-1,15.9981050491333,65,-9999,103194.555485125,0.970123291015625,0.10089111328125,-0.065643310546875,103194.550449125,2.909732432033629,1.502530562919956,-0.07867573242412448,0.007680361624807119,0.1089899390935898,0.01299972273409367,-0.03472638130187988,0.02175557613372803,-0.00787043571472168,2,-0.6807824433331564,0.05034272404566936,0.7222536333929936,0.1111331705883211,0.9945846796035767,0.07859459519386292,-0.06800174713134766,41.74118041992188,32.95254135131836,-19.38116455078125,2,103194.128513125,2,0,1582550306.28701,0,0,0,0,0,0,0,0,0,103191.903178,0,-3.144363,99.13443
1582550306.728334,42,0,1582550305.248905,41.20731444146253,29.07237511545815,161.2861,-1,-1,15.9981050491333,65,-9999,103194.565525125,0.976409912109375,0.0984649658203125,-0.062713623046875,103194.560490125,2.909689143977729,1.503590399288433,-0.07851364194803212,0.004712535068392754,0.1053054481744766,0.01759766973555088,-0.02724218368530273,0.02274110913276672,-0.001019775867462158,2,-0.6811593095894652,0.0504753571672778,0.7218990432571611,0.1110674286912486,0.9946688413619995,0.07843299955129623,-0.06694846600294113,41.6693115234375,33.12388229370117,-19.1951904296875,2,103194.128513125,2,0,1582550306.28701,0,0,0,0,0,0,0,0,0,103191.903178,0,-3.144363,99.13443
1582550306.735181,43,0,1582550305.248905,41.20731444146253,29.07237511545815,161.2861,-1,-1,15.9981050491333,65,-9999,103194.575565125,0.9795074462890625,0.0977630615234375,-0.061798095703125,103194.570530125,2.909679226084932,1.504588365931973,-0.07830585590678776,0.001813057344406843,0.1020521521568298,0.02334602549672127,-0.0188865065574646,0.02056801319122314,0.003741025924682617,2,-0.6815131883746185,0.0506097492742949,0.7215695736140613,0.1109756695549165,0.9947512745857239,0.07822585105895996,-0.06595685333013535,41.63548278808594,33.0751838684082,-19.23565673828125,2,103194.128513125,2,0,1582550306.28701,0,0,0,0,0,0,0,0,0,103191.903178,0,-3.144363,99.13443
1582550306.745287,44,0,1582550305.248905,41.20731444146253,29.07237511545815,161.2861,-1,-1,15.9981050491333,65,-9999,103194.585605125,0.9801177978515625,0.0979156494140625,-0.0584259033203125,103194.580570125,2.909714151075756,1.505442571119622,-0.07806788111861607,-0.002263975795358419,0.08297327160835266,0.02482620999217033,-0.01632142066955566,0.01975232362747192,0.002038002014160156,2,-0.6818153094261978,0.05073181042360975,0.7212932736639729,0.1108611318595692,0.9948259592056274,0.07798860967159271,-0.06510833650827408,41.63548278808594,33.0751838684082,-19.23565673828125,2,103194.128513125,2,0,1582550306.28701,0,0,0,0,0,0,0,0,0,103191.903178,0,-3.144363,99.13443
1582550306.75526,45,0,1582550305.248905,41.20731444146253,29.07237511545815,161.2861,-1,-1,15.9981050491333,65,-9999,103194.595646125,0.979278564453125,0.0980987548828125,-0.0592498779296875,103194.590610125,2.909775448265064,1.506216926282643,-0.07780394400233097,-0.004038927145302296,0.07795871794223785,0.02717198990285397,-0.01436269283294678,0.02010709047317505,0.006365358829498291,2,-0.682088446071268,0.05084980041406989,0.7210468629106336,0.1107302503574185,0.9948967099189758,0.07772547006607056,-0.06433930248022079,41.82176208496094,32.84551620483398,-19.12091064453125,2,103194.128513125,2,0,1582550306.28701,0,0,0,0,0,0,0,0,0,103191.903178,0,-3.144363,99.13443
1582550306.765307,46,0,1582550305.248905,41.20731444146253,29.07237511545815,161.2861,-1,-1,15.9981050491333,65,-9999,103194.605686125,0.97491455078125,0.097198486328125,-0.0590362548828125,103194.600651125,2.909859187522146,1.506915818733395,-0.07752927605150081,-0.0065620057284832,0.06924539059400558,0.02935551293194294,-0.01587843894958496,0.02054876089096069,0.003718018531799316,2,-0.68233455647256,0.05095975264195091,0.7208277622286458,0.1105894741797029,0.9949626326560974,0.07745163142681122,-0.06364531069993973,41.82176208496094,32.84551620483398,-19.12091064453125,2,103194.128513125,2,0,1582550306.28701,0,0,0,0,0,0,0,0,0,103191.903178,0,-3.144363,99.13443
1582550306.775442,47,0,1582550305.248905,41.20731444146253,29.07237511545815,161.2861,-1,-1,15.9981050491333,65,-9999,103194.615757125,0.972503662109375,0.097564697265625,-0.061309814453125,103194.610691125,2.909932241483876,1.507679636768972,-0.07722615032746101,-0.00430349400267005,0.07645966857671738,0.03368094936013222,-0.01894086599349976,0.01998129487037659,0.004103720188140869,2,-0.6826028858211728,0.05108718674052387,0.7205873467747972,0.1104412066033788,0.9950342774391174,0.0771494135260582,-0.0628867968916893,41.97483825683594,32.92101669311523,-19.16845703125,2,103194.128513125,2,0,1582550306.28701,0,0,0,0,0,0,0,0,0,103191.903178,0,-3.144363,99.13443
1582550306.785652,48,0,1582550305.248905,41.20731444146253,29.07237511545815,161.2861,-1,-1,15.9981050491333,65,-9999,103194.625797125,0.9763641357421875,0.098480224609375,-0.05804443359375,103194.620731125,2.910011072379499,1.508470591146635,-0.07691109960692531,-0.005648923106491566,0.08009355515241623,0.03337175771594048,-0.02284461259841919,0.0205548107624054,0.0008460283279418945,2,-0.6828806991424832,0.05121836765450377,0.7203384786821625,0.1102860416914064,0.9951078295707703,0.07683529704809189,-0.06210125982761383,41.97483825683594,32.92101669311523,-19.16845703125,2,103194.128513125,2,0,1582550306.28701,0,0,0,0,0,0,0,0,0,103191.903178,0,-3.144363,99.13443
1582550306.795516,49,0,1582550305.248905,41.20731444146253,29.07237511545815,161.2861,-1,-1,15.9981050491333,65,-9999,103194.635837125,0.9774932861328125,0.0991973876953125,-0.0543670654296875,103194.630772125,2.910082119430542,1.509195239380452,-0.07655873909705511,-0.003510064445436001,0.07224781811237335,0.0379926785826683,-0.01978838443756104,0.02179116010665894,0.002140641212463379,2,-0.6831332519148937,0.05136200270940067,0.7201138261120767,0.110122694926703,0.9951796531677246,0.07648397237062454,-0.06138180941343307,41.86268615722656,32.88864517211914,-18.93731689453125,2,103194.128513125,2,0,1582550306.28701,0,0,0,0,0,0,0,0,0,103191.903178,0,-3.144363,99.13443
1582550306.805494,50,0,1582550305.248905,41.20731444146253,29.07237511545815,161.2861,-1,-1,15.9981050491333,65,-9999,103194.645878125,0.977081298828125,0.092010498046875,-0.05731201171875,103194.640812125,2.910160230848658,1.509892967191402,-0.07625954039688361,-0.005308763589709997,0.0689910426735878,0.03220882266759872,-0.01750409603118896,0.02323389053344727,0.006253957748413086,2,-0.6833777599335507,0.05148232019608973,0.7198956683815138,0.1099753712602354,0.9952449798583984,0.07618564367294312,-0.060688816010952,41.86268615722656,32.88864517211914,-18.93731689453125,2,103194.128513125,2,0,1582550306.28701,0,0,0,0,0,0,0,0,0,103191.903178,0,-3.144363,99.13443
1582550306.81542,51,0,1582550305.248905,41.20731444146253,29.07237511545815,161.2861,-1,-1,15.9981050491333,65,-9999,103194.655918125,0.9850921630859375,0.0867462158203125,-0.0557708740234375,103194.650852125,2.910271921716532,1.510568512686739,-0.0760742322708475,-0.009771160781383514,0.06874613463878632,0.0200255960226059,-0.01871871948242188,0.01816967129707336,0.003247678279876709,2,-0.6836183789311251,0.05154853150994693,0.7196808675226879,0.1098550482432927,0.9952998757362366,0.07600087672472,-0.06001732125878334,41.84971618652344,32.94292831420898,-18.8231201171875,2,103194.128513125,2,0,1582550306.28701,0,0,0,0,0,0,0,0,0,103191.903178,0,-3.144363,99.13443
1582550306.825764,52,0,1582550305.248905,41.20731444146253,29.07237511545815,161.2861,-1,-1,15.9981050491333,65,-9999,103194.665958125,0.9884796142578125,0.08984375,-0.05010986328125,103194.660923125,2.910460929090803,1.511074263478247,-0.07592936922368154,-0.01878809183835983,0.05022198334336281,0.01653845608234406,-0.01212239265441895,0.01105090975761414,0.002576828002929688,2,-0.6838010206205334,0.05156422818709633,0.7195259678680197,0.1097249267256688,0.9953409433364868,0.07585643231868744,-0.05951458960771561,41.84971618652344,32.94292831420898,-18.8231201171875,2,103194.128513125,2,0,1582550306.28701,0,0,0,0,0,0,0,0,0,103191.903178,0,-3.144363,99.13443
1582550306.835657,53,0,1582550305.248905,41.20731444146253,29.07237511545815,161.2861,-1,-1,15.9981050491333,65,-9999,103194.675999125,0.98419189453125,0.093109130859375,-0.0497589111328125,103194.670963125,2.910696236624865,1.511340743864821,-0.07577498454673903,-0.02258921787142754,0.02421984262764454,0.01800432056188583,-0.006702423095703125,0.01308172941207886,0.008232951164245605,2,-0.6838984710253024,0.05155439399215267,0.7194560666802603,0.1095811293720416,0.9953685998916626,0.0757024884223938,-0.05925005301833153,41.96408081054688,33.17445755004883,-18.80609130859375,2,103194.128513125,2,0,1582550306.28701,0,0,0,0,0,0,0,0,0,103191.903178,0,-3.144363,99.13443
1582550306.848535,54,0,1582550305.248905,41.20731444146253,29.07237511545815,161.2861,-1,-1,15.9981050491333,65,-9999,103194.686039125,0.9788665771484375,0.0943756103515625,-0.0541534423828125,103194.681003125,2.910965810646398,1.511439140701795,-0.07559764094817401,-0.02534239366650581,0.006288511678576469,0.01968184486031532,-0.01041442155838013,0.01745468378067017,0.009722471237182617,2,-0.6839356798451915,0.05153190991635775,0.7194464822006,0.1094215156176785,0.9953876137733459,0.07552565634250641,-0.05915289744734764,41.96408081054688,33.17445755004883,-18.80609130859375,2,103194.128513125,2,0,1582550306.28701,0,0,0,0,0,0,0,0,0,103191.903178,0,-3.144363,99.13443
1582550306.855569,55,0,1582550305.248905,41.20731444146253,29.07237511545815,161.2861,-1,-1,15.9981050491333,65,-9999,103194.696079125,0.97418212890625,0.09893798828125,-0.0551605224609375,103194.691044125,2.91127718273504,1.511498037095981,-0.07534274014604625,-0.02947259694337845,0.003571067005395889,0.0291900746524334,-0.0154573917388916,0.01838031411170959,0.005758762359619141,2,-0.6839575029084147,0.0515211121610778,0.7194569806250335,0.1092216449549581,0.9954104423522949,0.07527147978544235,-0.05909541994333267,41.88851928710938,33.04199600219727,-18.77825927734375,2,103194.128513125,2,0,1582550306.28701,0,0,0,0,0,0,0,0,0,103191.903178,0,-3.144363,99.13443
1582550306.865675,56,0,1582550305.248905,41.20731444146253,29.07237511545815,161.2861,-1,-1,15.9981050491333,65,-9999,103194.706119125,0.972991943359375,0.099212646484375,-0.0538787841796875,103194.701084125,2.911609130127538,1.511497105075903,-0.07500440717662638,-0.03057567775249481,-0.00298457033932209,0.03832338377833366,-0.02083843946456909,0.02317327260971069,0.003594398498535156,2,-0.6839559266079229,0.05153024892241759,0.7194932627997355,0.1089876044051553,0.9954356551170349,0.07493410259485245,-0.05909784883260727,41.88851928710938,33.04199600219727,-18.77825927734375,2,103194.696720125,4,2,1582550306.855217,0,0,0,0,0,0,0,0,0,103191.903178,0,-3.144363,99.13443
1582550306.875837,57,0,1582550305.248905,41.20731444146253,29.07237511545815,161.2861,-1,-1,15.9981050491333,65,-9999,103194.716160125,0.9707183837890625,0.09912109375,-0.0565338134765625,103194.711124125,2.911963591699484,1.511523604403833,-0.07458066348572474,-0.03280217200517654,0.001280702650547028,0.04661998897790909,-0.02213817834854126,0.02501490712165833,0.005034804344177246,2,-0.683962324925002,0.05156416795759644,0.7195259201601247,0.1087158227788849,0.9954689145088196,0.07451154291629791,-0.05907334759831429,41.86708068847656,33.15481185913086,-18.849365234375,2,103194.696720125,4,2,1582550306.855217,0,0,0,0,0,0,0,0,0,103191.903178,0,-3.144363,99.13443
1582550306.885844,58,0,1582550305.248905,41.20731444146253,29.07237511545815,161.2861,-1,-1,15.9981050491333,65,-9999,103194.726230125,0.972320556640625,0.0969085693359375,-0.056121826171875,103194.721165125,2.912335981002759,1.511618565019307,-0.07407719304610209,-0.0348096638917923,0.008555926382541656,0.05467232316732407,-0.02457666397094727,0.02496775984764099,0.003050327301025391,2,-0.6839915116261477,0.05162457187457942,0.7195401860599124,0.1084087801578265,0.9955118894577026,0.07400946319103241,-0.0589810311794281,41.86708068847656,33.15481185913086,-18.849365234375,2,103194.696720125,4,2,1582550306.855217,0,0,0,0,0,0,0,0,0,103191.903178,0,-3.144363,99.13443
1582550306.896401,59,0,1582550305.248905,41.20731444146253,29.07237511545815,161.2861,-1,-1,15.9981050491333,65,-9999,103194.736271125,0.9781951904296875,0.0938873291015625,-0.0519866943359375,103194.731205125,2.912692965437389,1.511681170807992,-0.07353217308414441,-0.03239082545042038,0.003039063885807991,0.05811245739459991,-0.0240558385848999,0.02421432733535767,0.001891732215881348,2,-0.6840074615563391,0.05170352683722251,0.7195666510502082,0.1080939917404866,0.995555579662323,0.07346592843532562,-0.05892107635736465,41.88351440429688,32.98010635375977,-18.93316650390625,2,103194.696720125,4,2,1582550306.855217,0,0,0,0,0,0,0,0,0,103191.903178,0,-3.144363,99.13443
1582550306.906151,60,0,1582550305.248905,41.20731444146253,29.07237511545815,161.2861,-1,-1,15.9981050491333,65,-9999,103194.746311125,0.982086181640625,0.0906219482421875,-0.05230712890625,103194.741245125,2.913024895872344,1.511696054235365,-0.07297815583541371,-0.02965496107935905,-0.0006475504487752914,0.05853323638439178,-0.01868033409118652,0.02150151133537292,0.006380677223205566,2,-0.6840053302891326,0.05179172507631868,0.7196084425290844,0.1077863825099766,0.9955968856811523,0.07291339337825775,-0.05890865251421928,41.88351440429688,32.98010635375977,-18.93316650390625,2,103194.696720125,4,2,1582550306.855217,0,0,0,0,0,0,0,0,0,103191.903178,0,-3.144363,99.13443
1582550306.915976,61,0,1582550305.248905,41.20731444146253,29.07237511545815,161.2861,-1,-1,15.9981050491333,65,-9999,103194.756351125,0.97784423828125,0.0874481201171875,-0.05413818359375,103194.751285125,2.913335444820585,1.511678612386583,-0.07251658680695987,-0.02974552102386951,-0.004383254796266556,0.04945698752999306,-0.01382994651794434,0.01865074038505554,0.006918847560882568,2,-0.6839936954388528,0.05185196797684244,0.7196551948986845,0.1075186248896032,0.9956293106079102,0.07245304435491562,-0.0589279942214489,41.95286560058594,32.87777328491211,-18.7730712890625,2,103194.696720125,4,2,1582550306.855217,0,0,0,0,0,0,0,0,0,103191.903178,0,-3.144363,99.13443
1582550306.926235,62,0,1582550305.248905,41.20731444146253,29.07237511545815,161.2861,-1,-1,15.9981050491333,65,-9999,103194.766392125,0.98046875,0.07958984375,-0.0589447021484375,103194.761326125,2.913653567497157,1.511629523455991,-0.07224198034596015,-0.03208697214722633,-0.01060945820063353,0.02974426932632923,-0.01702064275741577,0.01608657836914062,0.005138039588928223,2,-0.6839762958708279,0.05184013798635639,0.7197034817209943,0.1073123556380662,0.9956464171409607,0.0721791610121727,-0.05897805467247963,41.95286560058594,32.87777328491211,-18.7730712890625,2,103194.696720125,4,2,1582550306.855217,0,0,0,0,0,0,0,0,0,103191.903178,0,-3.144363,99.13443
1582550306.936088,63,0,1582550305.248905,41.20731444146253,29.07237511545815,161.2861,-1,-1,15.9981050491333,65,-9999,103194.776432125,0.97271728515625,0.085205078125,-0.0620574951171875,103194.771397125,2.913973313555889,1.511754515898942,-0.07214582518102237,-0.0316210612654686,0.0116350743919611,0.01355284638702869,-0.01589047908782959,0.008324205875396729,0.001077234745025635,2,-0.6840267671214424,0.05177235332253499,0.7196828344458668,0.1071614516705774,0.995660662651062,0.0720832571387291,-0.05885400995612144,42.01618957519531,32.80878067016602,-18.79473876953125,2,103194.696720125,4,2,1582550306.855217,0,0,0,0,0,0,0,0,0,103191.903178,0,-3.144363,99.13443
1582550306.946088,64,0,1582550305.248905,41.20731444146253,29.07237511545815,161.2861,-1,-1,15.9981050491333,65,-9999,103194.786472125,0.97332763671875,0.0859832763671875,-0.05657958984375,103194.781437125,2.914274340236019,1.511957157771413,-0.07222679172265126,-0.03088229894638062,0.01699787937104702,-0.004637076053768396,-0.02131354808807373,0.01185974478721619,-0.003687500953674316,2,-0.6841098146940467,0.05165087515421746,0.7196253614502108,0.1070753310800111,0.9956666231155396,0.07216401398181915,-0.05865189805626869,42.01618957519531,32.80878067016602,-18.79473876953125,2,103194.696720125,4,2,1582550306.855217,0,0,0,0,0,0,0,0,0,103191.903178,0,-3.144363,99.13443
1582550306.956125,65,0,1582550305.248905,41.20731444146253,29.07237511545815,161.2861,-1,-1,15.9981050491333,65,-9999,103194.796512125,0.970977783203125,0.0909881591796875,-0.058380126953125,103194.791477125,2.914573513650151,1.512247234660925,-0.07239469293969991,-0.03068616986274719,0.02877859212458134,-0.01399402227252722,-0.02308827638626099,0.01381328701972961,0.0008754730224609375,2,-0.6842267420223005,0.05150318975725038,0.7195335391797192,0.1070171689165285,0.9956716299057007,0.07233147323131561,-0.05836237221956253,42.16592407226562,32.72875595092773,-18.85748291015625,2,103194.696720125,4,2,1582550306.855217,0,0,0,0,0,0,0,0,0,103191.903178,0,-3.144363,99.13443
1582550306.966629,66,0,1582550305.248905,41.20731444146253,29.07237511545815,161.2861,-1,-1,15.9981050491333,65,-9999,103194.806553125,0.9703521728515625,0.096160888671875,-0.0528106689453125,103194.801517125,2.914848779055305,1.51254849841068,-0.07255390852649971,-0.02875777520239353,0.0248498972505331,-0.01241796370595694,-0.02387255430221558,0.01693511009216309,-0.0006916522979736328,2,-0.6843467813856419,0.05136740698049763,0.7194369795669689,0.1069644065761934,0.9956777095794678,0.07249026745557785,-0.05806174501776695,42.16592407226562,32.72875595092773,-18.85748291015625,2,103194.696720125,4,2,1582550306.855217,0,0,0,0,0,0,0,0,0,103191.903178,0,-3.144363,99.13443
1582550306.976394,67,0,1582550305.248905,41.20731444146253,29.07237511545815,161.2861,-1,-1,15.9981050491333,65,-9999,103194.816593125,0.970977783203125,0.0947723388671875,-0.0576934814453125,103194.811558125,2.915085101938183,1.5129083499978,-0.07267602207273864,-0.02338949590921402,0.0328570082783699,-0.008783617988228798,-0.02553248405456543,0.02302363514900208,0.004473209381103516,2,-0.6844857861406042,0.05126150977175031,0.719320138640699,0.1069115953966382,0.9956897497177124,0.07261206209659576,-0.0577029325067997,42.04498291015625,32.82076644897461,-18.6541748046875,2,103194.696720125,4,2,1582550306.855217,0,0,0,0,0,0,0,0,0,103191.903178,0,-3.144363,99.13443
1582550306.986246,68,0,1582550305.248905,41.20731444146253,29.07237511545815,161.2861,-1,-1,15.9981050491333,65,-9999,103194.826633125,0.972137451171875,0.0926971435546875,-0.0553131103515625,103194.821598125,2.915320499084332,1.51337264439467,-0.07278310442054695,-0.02270133420825005,0.04542899131774902,-0.007370278239250183,-0.02495640516281128,0.02250480651855469,0.0004549026489257812,2,-0.6846618547315374,0.05116692883899648,0.7191681609169559,0.1068513695408627,0.9957085251808167,0.07271885871887207,-0.05724018067121506,42.04498291015625,32.82076644897461,-18.6541748046875,2,103194.696720125,4,2,1582550306.855217,0,0,0,0,0,0,0,0,0,103191.903178,0,-3.144363,99.13443
1582550306.996344,69,0,1582550305.248905,41.20731444146253,29.07237511545815,161.2861,-1,-1,15.9981050491333,65,-9999,103194.836674125,0.9794464111328125,0.090301513671875,-0.046630859375,103194.831638125,2.915514189780632,1.513785844107296,-0.07296189552438549,-0.01923748664557934,0.04208065569400787,-0.0167891439050436,-0.02391409873962402,0.02008345723152161,0.0003325939178466797,2,-0.6848204781197408,0.05105789976879765,0.7190277686925549,0.106831847343406,0.9957190752029419,0.07289718091487885,-0.05682800710201263,42.18815612792969,33.00887680053711,-18.549072265625,2,103194.696720125,4,2,1582550306.855217,0,0,0,0,0,0,0,0,0,103191.903178,0,-3.144363,99.13443
1582550307.006357,70,0,1582550305.248905,41.20731444146253,29.07237511545815,161.2861,-1,-1,15.9981050491333,65,-9999,103194.846744125,0.9812774658203125,0.0884552001953125,-0.044647216796875,103194.841678125,2.915682816983403,1.513972425269021,-0.07321542362694985,-0.01749657839536667,0.01680698432028294,-0.02379884943366051,-0.01835203170776367,0.01786217093467712,0.00795823335647583,2,-0.68489907591113,0.05091826431309154,0.7189597314912342,0.1068525259583919,0.9957112073898315,0.07315003126859665,-0.05664117261767387,42.18815612792969,33.00887680053711,-18.549072265625,2,103194.696720125,4,2,1582550306.855217,0,0,0,0,0,0,0,0,0,103191.903178,0,-3.144363,99.13443
1582550307.016405,71,0,1582550305.248905,41.20731444146253,29.07237511545815,161.2861,-1,-1,15.9981050491333,65,-9999,103194.856785125,0.9815826416015625,0.089813232421875,-0.0524749755859375,103194.851719125,2.915819159203427,1.51409765451188,-0.07357300209215493,-0.01741588301956654,0.007407555356621742,-0.03049496561288834,-0.0137401819229126,0.01489627361297607,0.01253175735473633,2,-0.6849577125608962,0.05074871925630048,0.7189056340521423,0.1069217287509038,0.9956921935081482,0.07350664585828781,-0.05651500076055527,42.12429809570312,33.10652542114258,-18.63702392578125,2,103194.696720125,4,2,1582550306.855217,0,0,0,0,0,0,0,0,0,103191.903178,0,-3.144363,99.13443
1582550307.028269,72,0,1582550305.248905,41.20731444146253,29.07237511545815,161.2861,-1,-1,15.9981050491333,65,-9999,103194.866825125,0.9746856689453125,0.0847930908203125,-0.0596160888671875,103194.861759125,2.915942865326568,1.514367289282513,-0.07407427917181481,-0.01669922657310963,0.0266512893140316,-0.04679164662957191,-0.01461887359619141,0.01616626977920532,0.005577564239501953,2,-0.6850719526543565,0.05053915373800205,0.7187936999535729,0.1070405866768149,0.9956702589988708,0.07400655746459961,-0.05624442547559738,42.12429809570312,33.10652542114258,-18.63702392578125,2,103194.696720125,4,2,1582550306.855217,0,0,0,0,0,0,0,0,0,103191.903178,0,-3.144363,99.13443
1582550307.036585,73,0,1582550305.248905,41.20731444146253,29.07237511545815,161.2861,-1,-1,15.9981050491333,65,-9999,103194.876865125,0.9722900390625,0.0936126708984375,-0.06195068359375,103194.871799125,2.916180182791344,1.514765865945024,-0.07451234794984495,-0.02788692153990269,0.03565806895494461,-0.04079714044928551,-0.02020883560180664,0.01080086827278137,-0.003289699554443359,2,-0.6852335101137276,0.05032052605818849,0.7186472199391871,0.1070940251462528,0.9956603646278381,0.07444341480731964,-0.05584576353430748,42.17881774902344,33.15734481811523,-18.73333740234375,2,103194.696720125,4,2,1582550306.855217,0,0,0,0,0,0,0,0,0,103191.903178,0,-3.144363,99.13443
1582550307.046525,74,0,1582550305.248905,41.20731444146253,29.07237511545815,161.2861,-1,-1,15.9981050491333,65,-9999,103194.886906125,0.9657135009765625,0.0970001220703125,-0.06103515625,103194.881840125,2.916457584467787,1.515425490277872,-0.07488460006419283,-0.02968482114374638,0.06671691685914993,-0.03508545830845833,-0.02233868837356567,0.01628896594047546,-0.006069064140319824,2,-0.6854878997105951,0.05012597778612388,0.7184166546920653,0.1071042288704293,0.9956692457199097,0.07481463253498077,-0.05518745258450508,42.17881774902344,33.15734481811523,-18.73333740234375,2,103194.696720125,4,2,1582550306.855217,0,0,0,0,0,0,0,0,0,103191.903178,0,-3.144363,99.13443
1582550307.056563,75,0,1582550305.248905,41.20731444146253,29.07237511545815,161.2861,-1,-1,15.9981050491333,65,-9999,103194.896946125,0.9699859619140625,0.0995025634765625,-0.051788330078125,103194.891910125,2.916775961574705,1.516145115873044,-0.07519643689480503,-0.03444264829158783,0.068026103079319,-0.02840172499418259,-0.0295722484588623,0.02263081073760986,-0.00799262523651123,2,-0.6857630272617444,0.04994245703142974,0.7181706520788195,0.1070778086072582,0.9956852197647095,0.07512558996677399,-0.05446964129805565,42.10865783691406,33.08977127075195,-18.56170654296875,2,103194.696720125,4,2,1582550306.855217,0,0,0,0,0,0,0,0,0,103191.903178,0,-3.144363,99.13443
1582550307.0666,76,0,1582550305.248905,41.20731444146253,29.07237511545815,161.2861,-1,-1,15.9981050491333,65,-9999,103194.906986125,0.979766845703125,0.0974884033203125,-0.0474090576171875,103194.901951125,2.917111199448129,1.516829033184097,-0.07541555659356193,-0.03502587974071503,0.06600210070610046,-0.01681697554886341,-0.02689206600189209,0.02267166972160339,0.0003587007522583008,2,-0.6860230220904097,0.04978478960974114,0.7179426502391273,0.1070148756233609,0.995705783367157,0.07534408569335938,-0.05378777533769608,42.10865783691406,33.08977127075195,-18.56170654296875,2,103194.696720125,4,2,1582550306.855217,0,0,0,0,0,0,0,0,0,103191.903178,0,-3.144363,99.13443
1582550307.076705,77,0,1582550305.248905,41.20731444146253,29.07237511545815,161.2861,-1,-1,15.9981050491333,65,-9999,103194.917026125,0.986907958984375,0.0841064453125,-0.0438232421875,103194.911991125,2.917488065989107,1.517348561646481,-0.07569622553951609,-0.04012639820575714,0.05187676846981049,-0.02505792863667011,-0.01855218410491943,0.02468058466911316,0.005333364009857178,2,-0.6862266238043762,0.04958174249698372,0.7177700157448953,0.1069621379237631,0.9957125186920166,0.07562395930290222,-0.05326934158802032,42.23770141601562,32.87506484985352,-18.68377685546875,2,103194.696720125,4,2,1582550306.855217,0,0,0,0,0,0,0,0,0,103191.903178,0,-3.144363,99.13443
1582550307.08674,78,0,1582550305.248905,41.20731444146253,29.07237511545815,161.2861,-1,-1,15.9981050491333,65,-9999,103194.927067125,0.982513427734375,0.0971221923828125,-0.036376953125,103194.922031125,2.917863289501555,1.517479872539587,-0.07598841920364355,-0.03876499086618423,0.006846975535154343,-0.02575700916349888,-0.009259819984436035,0.008962541818618774,0.007535815238952637,2,-0.6862910821199522,0.04935429214544279,0.7177297231009439,0.1069235778971808,0.9956973195075989,0.07591531425714493,-0.0531374104321003,42.23770141601562,32.87506484985352,-18.68377685546875,2,103194.696720125,4,2,1582550306.855217,0,0,0,0,0,0,0,0,0,103191.903178,0,-3.144363,99.13443
1582550307.096774,79,0,1582550305.248905,41.20731444146253,29.07237511545815,161.2861,-1,-1,15.9981050491333,65,-9999,103194.937107125,0.9732208251953125,0.1014556884765625,-0.0502777099609375,103194.932072125,2.918162478291947,1.517536627832025,-0.07626263535558218,-0.03042571432888508,-0.0003088153898715973,-0.02309557795524597,-0.01160722970962524,0.01738658547401428,0.01634353399276733,2,-0.6863263407275871,0.04915545611539895,0.7177120009961621,0.106908074116189,0.9956795573234558,0.07618873566389084,-0.05307979136705399,42.11268615722656,33.18807601928711,-18.26898193359375,2,103194.696720125,4,2,1582550306.855217,0,0,0,0,0,0,0,0,0,103191.903178,0,-3.144363,99.13443
1582550307.1084,80,0,1582550305.248905,41.20731444146253,29.07237511545815,161.2861,-1,-1,15.9981050491333,65,-9999,103194.947147125,0.971160888671875,0.093841552734375,-0.057861328125,103194.942112125,2.918408782202989,1.517883930494301,-0.07661596781890072,-0.02627144940197468,0.03397272527217865,-0.03310160711407661,-0.02086067199707031,0.02596065402030945,0.006215572357177734,2,-0.6864666573126506,0.04896168163039333,0.7175876594478687,0.1069313631336755,0.9956710934638977,0.07654103636741638,-0.05273256450891495,42.11268615722656,33.18807601928711,-18.26898193359375,2,103194.696720125,4,2,1582550306.855217,0,0,0,0,0,0,0,0,0,103191.903178,0,-3.144363,99.13443
1582550307.116834,81,0,1582550305.248905,41.20731444146253,29.07237511545815,161.2861,-1,-1,15.9981050491333,65,-9999,103194.957218125,0.9703521728515625,0.0981597900390625,-0.05731201171875,103194.952152125,2.91860176480468,1.518524310747598,-0.07705006761294467,-0.01898117735981941,0.06428195536136627,-0.04790990799665451,-0.02484357357025146,0.01762372255325317,-0.006188631057739258,2,-0.6867129160448737,0.04877266356833121,0.7173554025177316,0.1069941433041645,0.9956712126731873,0.07697385549545288,-0.05209319666028023,42.19290161132812,33.22656631469727,-18.3885498046875,2,103194.696720125,4,2,1582550306.855217,0,0,0,0,0,0,0,0,0,103191.903178,0,-3.144363,99.13443
1582550307.126966,82,0,1582550305.248905,41.20731444146253,29.07237511545815,161.2861,-1,-1,15.9981050491333,65,-9999,103194.967258125,0.9733428955078125,0.094940185546875,-0.06219482421875,103194.962192125,2.918789255054957,1.519580641915087,-0.0774402541005397,-0.01992899551987648,0.1081322282552719,-0.03738509491086006,-0.02389132976531982,0.01993551850318909,-0.005029559135437012,2,-0.6871068347850294,0.0486237156839503,0.716982218751183,0.1070339774883791,0.9956955313682556,0.07736287266016006,-0.05103986337780952,42.19290161132812,33.22656631469727,-18.3885498046875,2,103194.696720125,4,2,1582550306.855217,0,0,0,0,0,0,0,0,0,103191.903178,0,-3.144363,99.13443
1582550307.13691,83,0,1582550305.248905,41.20731444146253,29.07237511545815,161.2861,-1,-1,15.9981050491333,65,-9999,103194.977299125,0.9869384765625,0.08966064453125,-0.0507049560546875,103194.972233125,2.919002389205318,1.520871232049159,-0.07788591356870676,-0.0229191817343235,0.1296096593141556,-0.04148723930120468,-0.025096595287323,0.01854512095451355,-0.01309114694595337,2,-0.687586534080324,0.04845851164063042,0.7165268137550693,0.1070780407883231,0.9957260489463806,0.07780719548463821,-0.04975306242704391,42.15263366699219,33.14379501342773,-18.26739501953125,2,103194.696720125,4,2,1582550306.855217,0,0,0,0,0,0,0,0,0,103191.903178,0,-3.144363,99.13443
1582550307.147937,84,0,1582550305.248905,41.20731444146253,29.07237511545815,161.2861,-1,-1,15.9981050491333,65,-9999,103194.987339125,0.99224853515625,0.084320068359375,-0.04315185546875,103194.982273125,2.919224420645383,1.522132964826513,-0.07845836639893493,-0.02317191660404205,0.1235493496060371,-0.05294175446033478,-0.01089274883270264,0.0119776725769043,-0.004507899284362793,2,-0.6880591246232541,0.04824299664949311,0.7160748561376565,0.1071630947859853,0.9957433938980103,0.07837789505720139,-0.04849451035261154,42.15263366699219,33.14379501342773,-18.26739501953125,2,103194.696720125,4,2,1582550306.855217,0,0,0,0,0,0,0,0,0,103191.903178,0,-3.144363,99.13443
1582550307.158642,85,0,1582550305.248905,41.20731444146253,29.07237511545815,161.2861,-1,-1,15.9981050491333,65,-9999,103194.997379125,0.9937744140625,0.0782470703125,-0.04241943359375,103194.992313125,2.919500544097692,1.523332343435583,-0.07922952005896632,-0.03161314129829407,0.1203801110386848,-0.07247276604175568,-0.004236698150634766,0.006295502185821533,0.003205955028533936,2,-0.6885155617536878,0.04793393274168462,0.7156364913363504,0.1072983718153746,0.9957401752471924,0.07914665341377258,-0.04729731753468513,42.11225891113281,33.35037612915039,-18.1458740234375,2,103194.696720125,4,2,1582550306.855217,0,0,0,0,0,0,0,0,0,103191.903178,0,-3.144363,99.13443
1582550307.167045,86,0,1582550305.248905,41.20731444146253,29.07237511545815,161.2861,-1,-1,15.9981050491333,65,-9999,103195.007419125,0.9879913330078125,0.0816192626953125,-0.0417633056640625,103195.002384125,2.919841946347109,1.524335688898083,-0.08018242505934949,-0.03707821294665337,0.09570219367742538,-0.0937945693731308,-0.001888394355773926,-0.001002132892608643,0.003576755523681641,2,-0.6889077462277529,0.04752646989588266,0.7152593343875342,0.1074774071758944,0.9957114458084106,0.080096535384655,-0.04629470407962799,42.11225891113281,33.35037612915039,-18.1458740234375,2,103194.696720125,4,2,1582550306.855217,0,0,0,0,0,0,0,0,0,103191.903178,0,-3.144363,99.13443
1582550307.177136,87,0,1582550305.248905,41.20731444146253,29.07237511545815,161.2861,-1,-1,15.9981050491333,65,-9999,103195.017460125,0.9738616943359375,0.1016845703125,-0.037078857421875,103195.012424125,2.920244753665387,1.525123985282106,-0.08116245242001426,-0.0458168052136898,0.07484127581119537,-0.09533055871725082,-0.005492210388183594,-0.00147545337677002,0.003581881523132324,2,-0.6892247136165541,0.04707665173887116,0.7149577890586907,0.1076492245745012,0.9956687092781067,0.08107337355613708,-0.04550616443157196,42.21273803710938,33.37423324584961,-18.06060791015625,2,103194.696720125,4,2,1582550306.855217,0,0,0,0,0,0,0,0,0,103191.903178,0,-3.144363,99.13443
1582550307.187115,88,0,1582550305.248905,41.20731444146253,29.07237511545815,161.2861,-1,-1,15.9981050491333,65,-9999,103195.027500125,0.9657745361328125,0.1192474365234375,-0.0327911376953125,103195.022465125,2.920617570316366,1.525673382187614,-0.08198778357512333,-0.0421815924346447,0.05139933526515961,-0.0798615887761116,-0.01921308040618896,0.01520377397537231,0.00622105598449707,2,-0.6894511625874677,0.04668018479182368,0.714745000490823,0.1077848775300528,0.9956263899803162,0.08189596235752106,-0.04495611041784286,42.21273803710938,33.37423324584961,-18.06060791015625,2,103194.696720125,4,2,1582550306.855217,0,0,0,0,0,0,0,0,0,103191.903178,0,-3.144363,99.13443
1582550307.197193,89,0,1582550305.248905,41.20731444146253,29.07237511545815,161.2861,-1,-1,15.9981050491333,65,-9999,103195.037540125,0.9676513671875,0.123565673828125,-0.0314483642578125,103195.032505125,2.920915275490038,1.526074337977483,-0.08254197666501652,-0.0326615683734417,0.03792278096079826,-0.05055602267384529,-0.02945488691329956,0.03399950265884399,0.01112961769104004,2,-0.6896155913530039,0.0463993901367391,0.7145935087209286,0.1078584124208641,0.9955987930297852,0.08244828134775162,-0.04455486685037613,42.21900939941406,33.34833145141602,-17.9342041015625,2,103194.696720125,4,2,1582550306.855217,0,0,0,0,0,0,0,0,0,103191.903178,0,-3.144363,99.13443
1582550307.208753,90,0,1582550305.248905,41.20731444146253,29.07237511545815,161.2861,-1,-1,15.9981050491333,65,-9999,103195.047581125,0.9730224609375,0.11492919921875,-0.0351715087890625,103195.042545125,2.921121127984547,1.526406399291586,-0.08293575148555184,-0.02322598919272423,0.03193945810198784,-0.03519358113408089,-0.02888786792755127,0.04154160618782043,0.01302528381347656,2,-0.6897490422863963,0.0462044027818565,0.714469364854981,0.1079116888678479,0.9955810904502869,0.08284071087837219,-0.04422282427549362,42.28866577148438,33.66451644897461,-17.83935546875,2,103194.696720125,4,2,1582550306.855217,0,0,0,0,0,0,0,0,0,103191.903178,0,-3.144363,99.13443
1582550307.217246,91,0,1582550305.248905,41.20731444146253,29.07237511545815,161.2861,-1,-1,15.9981050491333,65,-9999,103195.057621125,0.976043701171875,0.10369873046875,-0.0432586669921875,103195.052585125,2.921228623227758,1.526817143145763,-0.08331330995906096,-0.01175349205732346,0.0403878390789032,-0.03461381420493126,-0.02345788478851318,0.03344437479972839,0.009501934051513672,2,-0.6899078403827941,0.04605343038920495,0.7143134182301615,0.1079927782652319,0.9955677390098572,0.08321696519851685,-0.04381250590085983,42.28866577148438,33.66451644897461,-17.83935546875,2,103194.696720125,4,2,1582550306.855217,0,0,0,0,0,0,0,0,0,103191.903178,0,-3.144363,99.13443
1582550307.22736,92,0,1582550305.248905,41.20731444146253,29.07237511545815,161.2861,-1,-1,15.9981050491333,65,-9999,103195.0676972917,0.973114013671875,0.099456787109375,-0.0518646240234375,103195.062626125,2.921314466289595,1.527569802468982,-0.08378863408873471,-0.01030499860644341,0.07465606927871704,-0.04702973738312721,-0.02012455463409424,0.02257943153381348,0.001548707485198975,2,-0.6901906119093999,0.04589323893279451,0.7140332395715432,0.1081072546381296,0.995560884475708,0.08369062840938568,-0.04306146129965782,42.20550537109375,33.58822250366211,-17.99896240234375,2,103194.696720125,4,2,1582550306.855217,0,0,0,0,0,0,0,0,0,103191.903178,0,-3.144363,99.13443
1582550307.237349,93,0,1582550305.248905,41.20731444146253,29.07237511545815,161.2861,-1,-1,15.9981050491333,65,-9999,103195.0777372917,0.9729766845703125,0.1061553955078125,-0.042572021484375,103195.0726712917,2.921376372860484,1.528578909490222,-0.08428093207928017,-0.009294214658439159,0.09964170306921005,-0.04981394112110138,-0.02172815799713135,0.01488664746284485,-0.009162187576293945,2,-0.6905646105214596,0.04574916032212062,0.713662127539645,0.1082303328058946,0.9955624938011169,0.08418118953704834,-0.04205506667494774,42.20550537109375,33.58822250366211,-17.99896240234375,2,103194.696720125,4,2,1582550306.855217,0,0,0,0,0,0,0,0,0,103191.903178,0,-3.144363,99.13443
1582550307.24743,94,0,1582550305.248905,41.20731444146253,29.07237511545815,161.2861,-1,-1,15.9981050491333,65,-9999,103195.0877772917,0.96600341796875,0.1109466552734375,-0.0429840087890625,103195.0827112917,2.921390053187636,1.529764107124937,-0.08471241555757865,-0.002594500547274947,0.1184265688061714,-0.04436484724283218,-0.02230536937713623,0.02022448182106018,-0.004026353359222412,2,-0.6909985337043028,0.04565330103269316,0.7132305869800721,0.108345956763631,0.9955753087997437,0.08461113274097443,-0.04087360575795174,42.23289489746094,33.49087142944336,-17.842529296875,2,103194.696720125,4,2,1582550306.855217,0,0,0,0,0,0,0,0,0,103191.903178,0,-3.144363,99.13443
1582550307.258498,95,0,1582550305.248905,41.20731444146253,29.07237511545815,161.2861,-1,-1,15.9981050491333,65,-9999,103195.0978182917,0.9683837890625,0.1114501953125,-0.0396881103515625,103195.0927522917,2.921405167559996,1.531124097440976,-0.08505425221854961,-0.002150401240214705,0.1374450623989105,-0.03439643606543541,-0.0283430814743042,0.02536183595657349,-0.002345085144042969,2,-0.6914922432515687,0.04559882167654072,0.7127432490018428,0.1084265551175999,0.9956011176109314,0.0849517360329628,-0.03951844945549965,42.23289489746094,33.49087142944336,-17.842529296875,2,103194.696720125,4,2,1582550306.855217,0,0,0,0,0,0,0,0,0,103191.903178,0,-3.144363,99.13443
1582550307.26798,96,0,1582550305.248905,41.20731444146253,29.07237511545815,161.2861,-1,-1,15.9981050491333,65,-9999,103195.1078582917,0.9777374267578125,0.110382080078125,-0.027130126953125,103195.1027922917,2.921408720252521,1.532374568684572,-0.08530236379556951,-0.0007051037391647696,0.1231257691979408,-0.02290995419025421,-0.02916383743286133,0.02645736932754517,-0.003926396369934082,2,-0.6919439945227639,0.04557620233166854,0.7122977017337906,0.1084817561958778,0.9956285953521729,0.08519895374774933,-0.03827263787388802,42.26451110839844,33.56734848022461,-17.64508056640625,2,103194.696720125,4,2,1582550306.855217,0,0,0,0,0,0,0,0,0,103191.903178,0,-3.144363,99.13443
1582550307.277562,97,0,1582550305.248905,41.20731444146253,29.07237511545815,161.2861,-1,-1,15.9981050491333,65,-9999,103195.1178982917,0.980377197265625,0.10516357421875,-0.025970458984375,103195.1128632917,2.921426009363236,1.533370230878397,-0.08550916877689684,-0.001744055422022939,0.09816821664571762,-0.01744887419044971,-0.01912814378738403,0.02536627650260925,0.008493959903717041,2,-0.6923040389274863,0.04554992115820838,0.7119429869773743,0.1085237754586087,0.9956485033035278,0.08540499955415726,-0.03728064522147179,42.26451110839844,33.56734848022461,-17.64508056640625,2,103194.696720125,4,2,1582550306.855217,0,0,0,0,0,0,0,0,0,103191.903178,0,-3.144363,99.13443
1582550307.287548,98,0,1582550305.248905,41.20731444146253,29.07237511545815,161.2861,-1,-1,15.9981050491333,65,-9999,103195.1279382917,0.9873504638671875,0.0948944091796875,-0.0287933349609375,103195.1229032917,2.921486082579102,1.534088045961402,-0.08577134484419034,-0.006820040289312601,0.06750617921352386,-0.02160420268774033,-0.01632487773895264,0.02104619145393372,0.01076877117156982,2,-0.6925673710657592,0.04547391379552546,0.7116837036203199,0.1085759382898143,0.9956525564193726,0.08566621690988541,-0.03656511753797531,42.15023803710938,33.54916000366211,-17.83111572265625,2,103194.696720125,4,2,1582550306.855217,0,0,0,0,0,0,0,0,0,103191.903178,0,-3.144363,99.13443
1582550307.297593,99,0,1582550305.248905,41.20731444146253,29.07237511545815,161.2861,-1,-1,15.9981050491333,65,-9999,103195.1379792917,0.9890899658203125,0.091522216796875,-0.0358734130859375,103195.1329432917,2.921593974312445,1.534822711527388,-0.08622052055696736,-0.0131822070106864,0.07498650997877121,-0.0433848649263382,-0.009309172630310059,0.01054307818412781,0.008357405662536621,2,-0.6928422689852189,0.04531517175618688,0.7114111138675603,0.1086749276968084,0.9956406354904175,0.08611373603343964,-0.03583225235342979,42.15023803710938,33.54916000366211,-17.83111572265625,2,103194.696720125,4,2,1582550306.855217,0,0,0,0,0,0,0,0,0,103191.903178,0,-3.144363,99.13443
1582550307.307706,100,0,1582550305.248905,41.20731444146253,29.07237511545815,161.2861,-1,-1,15.9981050491333,65,-9999,103195.1480192917,0.9922027587890625,0.0948486328125,-0.0333251953125,103195.1429842917,2.921745317105,1.535513620507255,-0.08677550323769655,-0.01419074647128582,0.06429977715015411,-0.05418984219431877,-0.007271647453308105,0.004802137613296509,-0.0008618831634521484,2,-0.6931050157049021,0.04510109837841447,0.7111502859588003,0.1087958936599068,0.9956172704696655,0.08666664361953735,-0.03514265641570091,42.29559326171875,33.50101852416992,-17.64215087890625,2,103194.696720125,4,2,1582550306.855217,0,0,0,0,0,0,0,0,0,103191.903178,0,-3.144363,99.13443
1582550307.317663,101,0,1582550305.248905,41.20731444146253,29.07237511545815,161.2861,-1,-1,15.9981050491333,65,-9999,103195.1580592917,0.986480712890625,0.1045989990234375,-0.0268402099609375,103195.1530242917,2.921902846178478,1.536148506788984,-0.08735647656176099,-0.01689286157488823,0.06499642133712769,-0.05694648623466492,-0.002742171287536621,0.006252706050872803,0.001296281814575195,2,-0.6933484359058654,0.04487258319437065,0.7109076534068023,0.1089249875287236,0.9955888986587524,0.08724541217088699,-0.03450879454612732,42.29559326171875,33.50101852416992,-17.64215087890625,2,103194.696720125,4,2,1582550306.855217,0,0,0,0,0,0,0,0,0,103191.903178,0,-3.144363,99.13443
1582550307.328127,102,0,1582550305.248905,41.20731444146253,29.07237511545815,161.2861,-1,-1,15.9981050491333,65,-9999,103195.1681002917,0.9855194091796875,0.1066741943359375,-0.025482177734375,103195.1630642917,2.922010027026173,1.53660856808282,-0.08791997540348608,-0.01264112535864115,0.04594843089580536,-0.05413631722331047,-0.009071648120880127,0.01535007357597351,0.004849374294281006,2,-0.693528008036988,0.04465833456985069,0.7107236499209295,0.1090700140563438,0.9955552816390991,0.08780674636363983,-0.03404907137155533,42.14193725585938,33.37852096557617,-17.55670166015625,2,103194.696720125,4,2,1582550306.855217,0,0,0,0,0,0,0,0,0,103191.903178,0,-3.144363,99.13443
1582550307.33778,103,0,1582550305.248905,41.20731444146253,29.07237511545815,161.2861,-1,-1,15.9981050491333,65,-9999,103195.1781702917,0.9813995361328125,0.10650634765625,-0.0273284912109375,103195.1731042917,2.922107191479716,1.536921333074833,-0.08845120377944828,-0.01093043014407158,0.02923483960330486,-0.05109352618455887,-0.009462952613830566,0.01823887228965759,0.00920557975769043,2,-0.6936541173968465,0.04445117839310908,0.7105920640907804,0.1092109306341739,0.9955193400382996,0.08833591639995575,-0.03373611718416214,42.14193725585938,33.37852096557617,-17.55670166015625,2,103194.696720125,4,2,1582550306.855217,0,0,0,0,0,0,0,0,0,103191.903178,0,-3.144363,99.13443
1582550307.347951,104,0,1582550305.248905,41.20731444146253,29.07237511545815,161.2861,-1,-1,15.9981050491333,65,-9999,103195.1882112917,0.9797515869140625,0.107086181640625,-0.027618408203125,103195.1831452917,2.922192747071362,1.537132223289142,-0.08895986155487158,-0.01029366813600063,0.02086958475410938,-0.04880800098180771,-0.01317882537841797,0.017701655626297,0.006155729293823242,2,-0.693743150409023,0.04425059497650224,0.7104961653389795,0.1093505053264334,0.9954813718795776,0.08884257078170776,-0.03352465108036995,42.27033996582031,33.53644943237305,-17.37060546875,2,103194.696720125,4,2,1582550306.855217,0,0,0,0,0,0,0,0,0,103191.903178,0,-3.144363,99.13443
1582550307.35796,105,0,1582550305.248905,41.20731444146253,29.07237511545815,161.2861,-1,-1,15.9981050491333,65,-9999,103195.1982512917,0.9856109619140625,0.1063690185546875,-0.024139404296875,103195.1931852917,2.922270012742455,1.537235510236995,-0.08946107568196175,-0.00919808354228735,0.01066087558865547,-0.04833581671118736,-0.01599085330963135,0.01770591735839844,0.005319178104400635,2,-0.6937935268879919,0.04404969407465742,0.7104375198850625,0.1094928807754201,0.9954401850700378,0.08934178948402405,-0.03342033177614212,42.27033996582031,33.53644943237305,-17.37060546875,2,103194.696720125,4,2,1582550306.855217,0,0,0,0,0,0,0,0,0,103191.903178,0,-3.144363,99.13443
1582550307.368007,106,0,1582550305.248905,41.20731444146253,29.07237511545815,161.2861,-1,-1,15.9981050491333,65,-9999,103195.2082912917,0.9940643310546875,0.1049652099609375,-0.0227813720703125,103195.2032252917,2.9223370739095,1.537136095772078,-0.08995174016994294,-0.00771177327260375,-0.01046438328921795,-0.0466388501226902,-0.01130491495132446,0.01665258407592773,0.008590459823608398,2,-0.6937713649874244,0.04384501774733346,0.7104491858585205,0.1096397218063144,0.995392918586731,0.08983048796653748,-0.03351781517267227,42.05158996582031,33.8411979675293,-17.58978271484375,2,103194.696720125,4,2,1582550306.855217,0,0,0,0,0,0,0,0,0,103191.903178,0,-3.144363,99.13443
1582550307.378765,107,0,1582550305.248905,41.20731444146253,29.07237511545815,161.2861,-1,-1,15.9981050491333,65,-9999,103195.2183312917,1.005905151367188,0.105316162109375,-0.0224456787109375,103195.2132662917,2.922413807283722,1.536837229001577,-0.09049617764454644,-0.01000897586345673,-0.02833258174359798,-0.05421581119298935,-0.003402829170227051,0.01537793874740601,0.01111412048339844,2,-0.6936797779326556,0.0436067298281585,0.7105276055070027,0.1098059098009,0.9953337907791138,0.09037270396947861,-0.03381363674998283,42.05158996582031,33.8411979675293,-17.58978271484375,2,103194.696720125,4,2,1582550306.855217,0,0,0,0,0,0,0,0,0,103191.903178,0,-3.144363,99.13443
1582550307.38806,108,0,1582550305.248905,41.20731444146253,29.07237511545815,161.2861,-1,-1,15.9981050491333,65,-9999,103195.2283722917,1.005050659179688,0.1120147705078125,-0.020660400390625,103195.2233362917,2.922517100833796,1.536245486604075,-0.09110038047085604,-0.012609020806849,-0.05934403091669083,-0.06194084882736206,0.008223056793212891,0.01347917318344116,0.01122832298278809,2,-0.6934860304362922,0.04332163655147003,0.7107058119119086,0.1099894536890414,0.9952589273452759,0.09097442030906677,-0.03440072387456894,42.15547180175781,33.86960983276367,-17.41156005859375,2,103194.696720125,4,2,1582550306.855217,0,0,0,0,0,0,0,0,0,103191.903178,0,-3.144363,99.13443
1582550307.398057,109,0,1582550305.248905,41.20731444146253,29.07237511545815,161.2861,-1,-1,15.9981050491333,65,-9999,103195.2384122917,0.9867706298828125,0.1148223876953125,-0.0263214111328125,103195.2333772917,2.922678398491141,1.535360903487307,-0.09162308140164081,-0.01784856244921684,-0.08993790298700333,-0.05136463046073914,0.01217734813690186,0.01951983571052551,0.01486885547637939,2,-0.6931873955969065,0.04302943788628621,0.7109928948059143,0.1101305308186071,0.9951803088188171,0.09149494022130966,-0.03527940437197685,42.15547180175781,33.86960983276367,-17.41156005859375,2,103194.696720125,4,2,1582550306.855217,0,0,0,0,0,0,0,0,0,103191.903178,0,-3.144363,99.13443
1582550307.408219,110,0,1582550305.248905,41.20731444146253,29.07237511545815,161.2861,-1,-1,15.9981050491333,65,-9999,103195.2484522917,0.9673614501953125,0.117156982421875,-0.0369720458984375,103195.2434172917,2.92293670394778,1.534359263347996,-0.09199110007904752,-0.02747109718620777,-0.1045328229665756,-0.03524398431181908,-0.005117535591125488,0.02228143811225891,0.01096642017364502,2,-0.692845386889668,0.0427526171547189,0.7113341745458516,0.1101863485334454,0.9951106905937195,0.09186141192913055,-0.03627496585249901,42.08811950683594,33.87768936157227,-17.57305908203125,2,103194.696720125,4,2,1582550306.855217,0,0,0,0,0,0,0,0,0,103191.903178,0,-3.144363,99.13443
1582550307.418171,111,0,1582550305.248905,41.20731444146253,29.07237511545815,161.2861,-1,-1,15.9981050491333,65,-9999,103195.2584932917,0.9475555419921875,0.1179351806640625,-0.04449462890625,103195.2534572917,2.923345482042181,1.533497483728608,-0.0921187718985116,-0.0421864278614521,-0.08920003473758698,-0.01016752514988184,-0.02298814058303833,0.02496185898780823,0.003126204013824463,2,-0.6925505021963552,0.04251772883856358,0.7116483761096379,0.110103080876463,0.9950675368309021,0.09198854118585587,-0.03713208809494972,42.08811950683594,33.87768936157227,-17.57305908203125,2,103194.696720125,4,2,1582550306.855217,0,0,0,0,0,0,0,0,0,103192.844894,0,-3.210419,99.13519
1582550307.428291,112,0,1582550305.248905,41.20731444146253,29.07237511545815,161.2861,-1,-1,15.9981050491333,65,-9999,103195.2685332917,0.951202392578125,0.1183319091796875,-0.0285491943359375,103195.2634972917,2.923807585061658,1.532551718406247,-0.09200996571690705,-0.04484639316797256,-0.1001679971814156,0.01442223880439997,-0.04510283470153809,0.02589422464370728,-0.007147312164306641,2,-0.6922211632036961,0.04234482861813493,0.7120070681463784,0.1099213949144797,0.9950419068336487,0.0918801948428154,-0.03807355463504791,42.07650756835938,33.79712295532227,-17.64501953125,2,103194.696720125,4,2,1582550306.855217,0,0,0,0,0,0,0,0,0,103192.844894,0,-3.210419,99.13519
1582550307.439287,113,0,1582550305.248905,41.20731444146253,29.07237511545815,161.2861,-1,-1,15.9981050491333,65,-9999,103195.2785732917,0.9585723876953125,0.121337890625,-0.0207366943359375,103195.2735382917,2.924198545449749,1.531333164785346,-0.09173771457854409,-0.03524646162986755,-0.1302179396152496,0.02985059842467308,-0.04639267921447754,0.02650108933448792,0.006715774536132812,2,-0.6917891513039292,0.04224052794303473,0.7124647561693118,0.1097146932749938,0.9950196146965027,0.09160909056663513,-0.0392870157957077,42.07650756835938,33.79712295532227,-17.64501953125,2,103194.696720125,4,2,1582550306.855217,0,0,0,0,0,0,0,0,0,103192.844894,0,-3.210419,99.13519
1582550307.455367,114,0,1582550305.248905,41.20731444146253,29.07237511545815,161.2861,-1,-1,15.9981050491333,65,-9999,103195.2886132917,0.96612548828125,0.11566162109375,-0.0352020263671875,103195.2835782917,2.92452413139701,1.530077993674962,-0.09139259044050589,-0.03018991835415363,-0.1294480264186859,0.03779826685786247,-0.03679144382476807,0.02962186932563782,0.02064645290374756,2,-0.6913407053054292,0.04218333158154219,0.7129352662782691,0.1095070666019248,0.9950010776519775,0.09126541763544083,-0.04053718969225883,42.06062316894531,33.96175003051758,-17.7379150390625,2,103194.696720125,4,2,1582550306.855217,0,0,0,0,0,0,0,0,0,103192.844894,0,-3.210419,99.13519
1582550307.458545,115,0,1582550305.248905,41.20731444146253,29.07237511545815,161.2861,-1,-1,15.9981050491333,65,-9999,103195.2986842917,0.986846923828125,0.107391357421875,-0.037994384765625,103195.2936182917,2.924810835245404,1.528877949423496,-0.09113847412449901,-0.02872421406209469,-0.1211624592542648,0.02641653642058372,-0.03197377920150757,0.02688431739807129,0.009222626686096191,2,-0.6909129113405761,0.04211008403896327,0.7133793432547059,0.1093432202772569,0.9949749112129211,0.09101235866546631,-0.04173218086361885,42.06062316894531,33.96175003051758,-17.7379150390625,2,103194.696720125,4,2,1582550306.855217,0,0,0,0,0,0,0,0,0,103192.844894,0,-3.210419,99.13519
1582550307.468292,116,0,1582550305.248905,41.20731444146253,29.07237511545815,161.2861,-1,-1,15.9981050491333,65,-9999,103195.3087252917,0.9879608154296875,0.1102142333984375,-0.0397186279296875,103195.3036592917,2.92508139568679,1.527661704311952,-0.09095225626407288,-0.02572602778673172,-0.1268267333507538,0.02037675306200981,-0.01146173477172852,0.0167548656463623,0.004406571388244629,2,-0.6904802983940018,0.0420172716929984,0.7138241701362947,0.1092086183189487,0.9949403405189514,0.09082691371440887,-0.04294301196932793,41.88063049316406,33.85514450073242,-17.8614501953125,2,103194.696720125,4,2,1582550306.855217,0,0,0,0,0,0,0,0,0,103192.844894,0,-3.210419,99.13519
1582550307.478456,117,0,1582550305.248905,41.20731444146253,29.07237511545815,161.2861,-1,-1,15.9981050491333,65,-9999,103195.3187652917,0.9818267822265625,0.1105194091796875,-0.0449981689453125,103195.3136992917,2.925360188523562,1.526521391755141,-0.09078582719380625,-0.02522259019315243,-0.1178329214453697,0.01953724026679993,-0.005506455898284912,0.01913312077522278,0.005343794822692871,2,-0.6900751528216729,0.0419188017547264,0.7142418544240501,0.109076158512023,0.9949057698249817,0.09066116809844971,-0.04407819360494614,41.88063049316406,33.85514450073242,-17.8614501953125,2,103194.696720125,4,2,1582550306.855217,0,0,0,0,0,0,0,0,0,103192.844894,0,-3.210419,99.13519
1582550307.488483,118,0,1582550305.248905,41.20731444146253,29.07237511545815,161.2861,-1,-1,15.9981050491333,65,-9999,103195.3288052917,0.99151611328125,0.1114349365234375,-0.0395355224609375,103195.3237392917,2.925673146745459,1.525366507636734,-0.09064749791339403,-0.0311404000967741,-0.116233691573143,0.01708020642399788,-0.01385962963104248,0.02018645405769348,0.001153051853179932,2,-0.6896659166204986,0.04179778935905981,0.7146646921942489,0.1089413095098162,0.9948667883872986,0.09052340686321259,-0.04522773623466492,41.90530395507812,33.85224533081055,-17.77874755859375,2,103194.696720125,4,2,1582550306.855217,0,0,0,0,0,0,0,0,0,103192.844894,0,-3.210419,99.13519
1582550307.499295,119,0,1582550305.248905,41.20731444146253,29.07237511545815,161.2861,-1,-1,15.9981050491333,65,-9999,103195.3388452917,0.9938201904296875,0.1186370849609375,-0.03057861328125,103195.3337792917,2.92595197885346,1.52398185613216,-0.09055400504129668,-0.02772348932921886,-0.1429356783628464,0.01292068045586348,-0.004832267761230469,0.01988282799720764,0.004179000854492188,2,-0.6891745981945908,0.04166001960991617,0.7151621651392477,0.1088386297557064,0.9948116540908813,0.09043029695749283,-0.04660563170909882,41.90530395507812,33.85224533081055,-17.77874755859375,2,103194.696720125,4,2,1582550306.855217,0,0,0,0,0,0,0,0,0,103192.844894,0,-3.210419,99.13519
1582550307.511937,120,0,1582550305.248905,41.20731444146253,29.07237511545815,161.2861,-1,-1,15.9981050491333,65,-9999,103195.3488862917,1.0113525390625,0.11590576171875,-0.034820556640625,103195.3438502917,2.926240855810377,1.522308412839429,-0.09050378844956453,-0.02709924429655075,-0.1665802896022797,0.009144850075244904,-0.001415789127349854,0.02739444375038147,0.017547607421875,2,-0.6885807868924794,0.04148762970161446,0.7157570504468175,0.1087529720809491,0.994736909866333,0.09038028866052628,-0.04827055335044861,41.88703918457031,33.98755264282227,-18.078125,2,103194.696720125,4,2,1582550306.855217,0,0,0,0,0,0,0,0,0,103192.844894,0,-3.210419,99.13519
1582550307.518524,121,0,1582550305.248905,41.20731444146253,29.07237511545815,161.2861,-1,-1,15.9981050491333,65,-9999,103195.3589262917,1.022903442382812,0.1183929443359375,-0.0286102294921875,103195.3538912917,2.926623396555953,1.520081973360079,-0.09045515226279038,-0.03572100773453712,-0.2270055562257767,0.009205043315887451,0.01101887226104736,0.02654260396957397,0.01549005508422852,2,-0.6877903308964108,0.04125256765876445,0.7165464893554153,0.1086454754920937,0.994631290435791,0.09033185243606567,-0.05048537254333496,41.88703918457031,33.98755264282227,-18.078125,2,103194.696720125,4,2,1582550306.855217,0,0,0,0,0,0,0,0,0,103192.844894,0,-3.210419,99.13519
1582550307.52864,122,0,1582550305.248905,41.20731444146253,29.07237511545815,161.2861,-1,-1,15.9981050491333,65,-9999,103195.3689662917,1.021774291992188,0.12548828125,-0.0275115966796875,103195.3639312917,2.927124006517034,1.517129883993382,-0.09029951752431421,-0.04755263403058052,-0.2998283505439758,0.02134639397263527,0.02870583534240723,0.02657556533813477,0.02363014221191406,2,-0.686738560450786,0.04097661021741417,0.7175962492113264,0.1084737210299984,0.9944918155670166,0.09017685055732727,-0.05342213436961174,41.62614440917969,34.0670051574707,-18.12542724609375,2,103194.696720125,4,2,1582550306.855217,0,0,0,0,0,0,0,0,0,103192.844894,0,-3.210419,99.13519
1582550307.538603,123,0,1582550305.248905,41.20731444146253,29.07237511545815,161.2861,-1,-1,15.9981050491333,65,-9999,103195.3790062917,1.023834228515625,0.1309661865234375,-0.0319671630859375,103195.3739712917,2.927783631167994,1.513304508266098,-0.08992677137379505,-0.06379041075706482,-0.3899107575416565,0.04304655641317368,0.02690023183822632,0.03459137678146362,0.02938950061798096,2,-0.6853694587981147,0.04067824464300374,0.7189639807679057,0.1081883648310784,0.9943137168884277,0.08980561792850494,-0.0572279691696167,41.62614440917969,34.0670051574707,-18.12542724609375,2,103194.696720125,4,2,1582550306.855217,0,0,0,0,0,0,0,0,0,103192.844894,0,-3.210419,99.13519
1582550307.548642,124,0,1582550305.248905,41.20731444146253,29.07237511545815,161.2861,-1,-1,15.9981050491333,65,-9999,103195.3890472917,1.049652099609375,0.1343841552734375,-0.03631591796875,103195.3840112917,2.928563024883912,1.508709479079478,-0.08929377046286029,-0.07838266342878342,-0.4589430689811707,0.07438904047012329,0.02965015172958374,0.04117280244827271,0.03184068202972412,2,-0.6837166841946241,0.04039325558562396,0.7206121070692718,0.1077865269709036,0.9940967559814453,0.08917515724897385,-0.06179976090788841,41.43736267089844,34.16475296020508,-18.38568115234375,2,103194.696720125,4,2,1582550306.855217,0,0,0,0,0,0,0,0,0,103192.844894,0,-3.210419,99.13519
1582550307.565288,125,0,1582550305.248905,41.20731444146253,29.07237511545815,161.2861,-1,-1,15.9981050491333,65,-9999,103195.3990872917,1.047943115234375,0.0702056884765625,-0.05816650390625,103195.3940522917,2.929680013155564,1.502667751898692,-0.08861736831192772,-0.1002812683582306,-0.6250679492950439,0.07558166980743408,0.04522538185119629,0.0484689474105835,0.03020584583282471,2,-0.6815430576675152,0.03993344339595745,0.7227698380635869,0.1072762777841764,0.9937653541564941,0.08850143104791641,-0.06780876219272614,41.43736267089844,34.16475296020508,-18.38568115234375,2,103194.696720125,4,2,1582550306.855217,0,0,0,0,0,0,0,0,0,103192.844894,0,-3.210419,99.13519
1582550307.568823,126,0,1582550305.248905,41.20731444146253,29.07237511545815,161.2861,-1,-1,15.9981050491333,65,-9999,103195.4091582917,1.030303955078125,0.0847930908203125,-0.063568115234375,103195.4040922917,2.931499904233901,1.495656274394942,-0.08775670702139338,-0.178186446428299,-0.718676745891571,0.09530210494995117,0.06385332345962524,-0.003224968910217285,0.0256575345993042,2,-0.6790205306018049,0.0392540423861239,0.7252965036180268,0.1064664056705077,0.9933409094810486,0.08764410763978958,-0.07478047907352448,41.27540588378906,33.92584609985352,-18.754150390625,2,103194.696720125,4,2,1582550306.855217,0,0,0,0,0,0,0,0,0,103192.844894,0,-3.210419,99.13519
1582550307.579325,127,0,1582550305.248905,41.20731444146253,29.07237511545815,161.2861,-1,-1,15.9981050491333,65,-9999,103195.4191982917,1.016006469726562,0.0848846435546875,-0.0295562744140625,103195.4141322917,2.933552307117183,1.488160786081175,-0.086648363280225,-0.1828596591949463,-0.7815647721290588,0.1253717243671417,0.03437721729278564,-0.01426669955253601,0.009748339653015137,2,-0.6763110351498582,0.03856754590777123,0.7280018828539894,0.1054947084497308,0.9928487539291382,0.08653997629880905,-0.08223185688257217,41.27540588378906,33.92584609985352,-18.754150390625,2,103194.696720125,4,2,1582550306.855217,0,0,0,0,0,0,0,0,0,103192.844894,0,-3.210419,99.13519
1582550307.588846,128,0,1582550305.248905,41.20731444146253,29.07237511545815,161.2861,-1,-1,15.9981050491333,65,-9999,103195.4292382917,0.9852752685546875,0.0077056884765625,-0.1129913330078125,103195.4241722917,2.937629913133381,1.482423387669736,-0.0850340969473356,-0.3667418658733368,-0.6510341763496399,0.1914010792970657,0.03536844253540039,0.01598250865936279,0.06281936168670654,2,-0.6742591517006631,0.03748420437471023,0.7302337027427865,0.1035774708855184,0.9924985766410828,0.08493165671825409,-0.0879390612244606,40.69355773925781,34.00907516479492,-18.79730224609375,2,103194.696720125,4,2,1582550306.855217,0,0,0,0,0,0,0,0,0,103192.844894,0,-3.210419,99.13519
1582550307.598887,129,0,1582550305.248905,41.20731444146253,29.07237511545815,161.2861,-1,-1,15.9981050491333,65,-9999,103195.4392792917,1.2305908203125,0.1239471435546875,0.0703277587890625,103195.4342132917,2.946867980315172,1.481622428665457,-0.08315816537057738,-0.8367029428482056,-0.08503900468349457,0.3075043261051178,-0.02770602703094482,-0.09091269969940186,-0.01472550630569458,2,-0.6740916772353482,0.03502009503775427,0.7310647309671875,0.09959050977808864,0.9925846457481384,0.08306235820055008,-0.08874800801277161,40.69355773925781,34.00907516479492,-18.79730224609375,2,103194.696720125,4,2,1582550306.855217,0,0,0,0,0,0,0,0,0,103192.844894,0,-3.210419,99.13519
1582550307.609451,130,0,1582550305.248905,41.20731444146253,29.07237511545815,161.2861,-1,-1,15.9981050491333,65,-9999,103195.4493192917,0.954010009765625,-0.0053863525390625,0.1750640869140625,103195.4442532917,2.965126873283189,1.481819111625012,-0.08324564224775928,-1.845874190330505,-0.1834257543087006,0.1460847854614258,0.2143493294715881,0.04945731163024902,0.1085679531097412,2,-0.6744568934835142,0.02884154264426841,0.7318731429336729,0.09293865274199464,0.9925947785377502,0.08314952999353409,-0.08855212479829788,40.80313110351562,33.92673873901367,-18.42852783203125,2,103194.696720125,4,2,1582550306.855217,0,0,0,0,0,0,0,0,0,103192.844894,0,-3.210419,99.13519
1582550307.626084,131,0,1582550305.248905,41.20731444146253,29.07237511545815,161.2861,-1,-1,15.9981050491333,65,-9999,103195.4593592917,0.8411407470703125,0.132568359375,0.3035430908203125,103195.4543242917,2.990574037069692,1.485079483473321,-0.08462508870066772,-2.537978410720825,0.1113036498427391,0.07837738841772079,0.03344082832336426,-0.08411955833435059,0.2498220205307007,2,-0.6759820680147773,0.01988648874900451,0.7318390713919731,0.08404922511440516,0.9927630424499512,0.08452411741018295,-0.08530554175376892,40.80313110351562,33.92673873901367,-18.42852783203125,2,103194.696720125,4,2,1582550306.855217,0,0,0,0,0,0,0,0,0,103192.844894,0,-3.210419,99.13519
1582550307.629094,132,0,1582550305.248905,41.20731444146253,29.07237511545815,161.2861,-1,-1,15.9981050491333,65,-9999,103195.4694002917,0.7447357177734375,0.232452392578125,0.4373626708984375,103195.4643642917,3.019209726786382,1.493025194082803,-0.0863017777228557,-2.874037981033325,0.5699405074119568,0.06328392028808594,-0.1492224931716919,0.01403278112411499,0.3467320203781128,2,-0.6791174558424998,0.009883178070867804,0.7302142131787415,0.07408759833405099,0.9932668805122375,0.08619468659162521,-0.07740360498428345,40.81185913085938,34.61193466186523,-16.803466796875,2,103194.696720125,4,2,1582550306.855217,0,0,0,0,0,0,0,0,0,103192.844894,0,-3.210419,99.13519
1582550307.639047,133,0,1582550305.248905,41.20731444146253,29.07237511545815,161.2861,-1,-1,15.9981050491333,65,-9999,103195.4794402917,0.74945068359375,0.2993927001953125,0.42578125,103195.4744042917,3.046977104167194,1.504223552023321,-0.08760207853144499,-2.778012752532959,0.8835763931274414,0.07864230871200562,-0.222607433795929,0.1315879225730896,0.4866729974746704,2,-0.6832756606741239,0.0003371859334587168,0.7273164570256764,0.06438145207367707,0.9939587116241455,0.08749007433652878,-0.06626851856708527,40.81185913085938,34.61193466186523,-16.803466796875,2,103194.696720125,4,2,1582550306.855217,0,0,0,0,0,0,0,0,0,103192.844894,0,-3.210419,99.13519
1582550307.649095,134,0,1582550305.248905,41.20731444146253,29.07237511545815,161.2861,-1,-1,15.9981050491333,65,-9999,103195.4894802917,0.887786865234375,0.348968505859375,0.3272247314453125,103195.4844452917,3.071289978653595,1.51629443287737,-0.08932501995371576,-2.42081880569458,1.001770734786987,-0.02861836552619934,-0.2690966129302979,0.1948740184307098,0.492971658706665,2,-0.6876066637395846,-0.008258953915148914,0.7238600980585489,0.05617283124562689,0.9945341944694519,0.0892062783241272,-0.05425773188471794,41.07962036132812,35.55705642700195,-14.0618896484375,2,103194.696720125,4,2,1582550306.855217,0,0,0,0,0,0,0,0,0,103192.844894,0,-3.210419,99.13519
1582550307.659203,135,0,1582550305.248905,41.20731444146253,29.07237511545815,161.2861,-1,-1,15.9981050491333,65,-9999,103195.4995202917,0.9011688232421875,0.284881591796875,0.2006988525390625,103195.4944852917,3.090968569694136,1.527428863257742,-0.09121249121307205,-1.960584998130798,0.936127781867981,-0.09948135912418365,-0.1255786418914795,0.2561959624290466,0.393202543258667,2,-0.6915020067764012,-0.01543218657159084,0.7204918139364012,0.04978187908792986,0.9949066042900085,0.09108606725931168,-0.0431736446917057,41.07962036132812,35.55705642700195,-14.0618896484375,2,103194.696720125,4,2,1582550306.855217,0,0,0,0,0,0,0,0,0,103192.844894,0,-3.210419,99.13519
1582550307.669156,136,0,1582550305.248905,41.20731444146253,29.07237511545815,161.2861,-1,-1,15.9981050491333,65,-9999,103195.5095612917,0.9242706298828125,0.1619873046875,0.0824432373046875,103195.5045252917,3.105735359880591,1.536618023222813,-0.09233289897476041,-1.46433424949646,0.7862211465835571,-0.06192173436284065,-0.09308540821075439,0.2129354476928711,0.2608699798583984,2,-0.6946632241089512,-0.02073552266385753,0.7176301458678715,0.04494327981325813,0.9951586723327637,0.09220176190137863,-0.03402608633041382,41.36422729492188,36.28569412231445,-11.4859619140625,2,103194.696720125,4,2,1582550306.855217,0,0,0,0,0,0,0,0,0,103192.844894,0,-3.210419,99.13519
1582550307.685716,137,0,1582550305.248905,41.20731444146253,29.07237511545815,161.2861,-1,-1,15.9981050491333,65,-9999,103195.5196312917,0.9586029052734375,0.0292205810546875,-0.007843017578125,103195.5145662917,3.116024718006777,1.542971717991547,-0.09185395868066247,-1.009690046310425,0.540988028049469,0.07913781702518463,-0.07904350757598877,0.09657579660415649,0.1306151151657104,2,-0.6968298419832764,-0.02400630771553158,0.7156519199597818,0.04116107334954999,0.995398998260498,0.09172485023736954,-0.02770373784005642,41.42674255371094,36.54670333862305,-9.58172607421875,2,103194.696720125,4,2,1582550306.855217,0,0,0,0,0,0,0,0,0,103192.844894,0,-3.210419,99.13519
1582550307.689331,138,0,1582550305.248905,41.20731444146253,29.07237511545815,161.2861,-1,-1,15.9981050491333,65,-9999,103195.5296722917,0.983612060546875,-0.0805511474609375,-0.08587646484375,103195.5246062917,3.122838765641139,1.54605095022515,-0.0898015728202073,-0.6612409949302673,0.2464858889579773,0.2281640470027924,-0.04258251190185547,-0.0344214141368866,0.03471964597702026,2,-0.6978708713221717,-0.02558656576406143,0.7147544143922719,0.03804765599348392,0.9956655502319336,0.08968092501163483,-0.02464314922690392,41.42674255371094,36.54670333862305,-9.58172607421875,2,103194.696720125,4,2,1582550306.855217,0,0,0,0,0,0,0,0,0,103192.844894,0,-3.210419,99.13519
1582550307.699327,139,0,1582550305.248905,41.20731444146253,29.07237511545815,161.2861,-1,-1,15.9981050491333,65,-9999,103195.5397122917,0.9810791015625,-0.119842529296875,-0.0941162109375,103195.5346462917,3.127413054906624,1.545839588709559,-0.08715403265967708,-0.4385363459587097,-0.06786389648914337,0.2841669321060181,-0.01705431938171387,-0.1501617431640625,-0.04975032806396484,2,-0.6977691405632611,-0.02623948419214006,0.7149617613295698,0.03548686918005139,0.995894193649292,0.08704373985528946,-0.02485943213105202,41.69558715820312,36.5085334777832,-8.812713623046875,2,103194.696720125,4,2,1582550306.855217,0,0,0,0,0,0,0,0,0,103192.844894,0,-3.210419,99.13519
1582550307.709441,140,0,1582550305.248905,41.20731444146253,29.07237511545815,161.2861,-1,-1,15.9981050491333,65,-9999,103195.5497522917,0.951202392578125,-0.0872039794921875,-0.054443359375,103195.5446862917,3.130840492091784,1.5431090639079,-0.08539788548409839,-0.330958753824234,-0.3096698522567749,0.1902294903993607,-0.01090842485427856,-0.2036182880401611,-0.07050991058349609,2,-0.696769327685165,-0.02685300041218441,0.7160039144942383,0.03361257189182282,0.9959739446640015,0.08529412746429443,-0.02758284099400043,41.69558715820312,36.5085334777832,-8.812713623046875,2,103194.696720125,4,2,1582550306.855217,0,0,0,0,0,0,0,0,0,103192.844894,0,-3.210419,99.13519
1582550307.719865,141,0,1582550305.248905,41.20731444146253,29.07237511545815,161.2861,-1,-1,15.9981050491333,65,-9999,103195.5597932917,0.8850860595703125,-0.0205230712890625,0.0107421875,103195.5547272917,3.133831534959922,1.539222456885949,-0.08579125186166311,-0.2948417961597443,-0.4268117249011993,-0.02776320651173592,-0.03721892833709717,-0.1836550235748291,-0.03412365913391113,2,-0.6953302585340713,-0.02809933596630299,0.7173993507476204,0.03262418111000415,0.9958255290985107,0.08568605035543442,-0.03145251795649529,41.51025390625,36.23793411254883,-8.4886474609375,2,103194.696720125,4,2,1582550306.855217,0,0,0,0,0,0,0,0,0,103192.844894,0,-3.210419,99.13519
1582550307.729511,142,0,1582550305.248905,41.20731444146253,29.07237511545815,161.2861,-1,-1,15.9981050491333,65,-9999,103195.5698332917,0.7967529296875,0.040283203125,0.054534912109375,103195.5647972917,3.136908969487055,1.536118976506736,-0.08876381467678772,-0.3114013373851776,-0.3449117839336395,-0.2915682196617126,-0.09400177001953125,-0.1229264140129089,0.03318226337432861,2,-0.6941295228177918,-0.03028620273912525,0.7184776894942612,0.03250645251910261,0.9954641461372375,0.08864729851484299,-0.03453390300273895,41.51025390625,36.23793411254883,-8.4886474609375,2,103194.696720125,4,2,1582550306.855217,0,0,0,0,0,0,0,0,0,103192.844894,0,-3.210419,99.13519
1582550307.746799,143,0,1582550305.248905,41.20731444146253,29.07237511545815,161.2861,-1,-1,15.9981050491333,65,-9999,103195.5798732917,0.7164154052734375,0.077423095703125,0.0615386962890625,103195.5748382917,3.140487367252668,1.535518182294243,-0.09360555465455303,-0.3671945929527283,-0.09720499813556671,-0.4742411673069,-0.1802254915237427,-0.06422606110572815,0.08269965648651123,2,-0.6937826773612599,-0.03327743870431227,0.7186628913235759,0.03289099027536363,0.9950026869773865,0.09346891939640045,-0.03511641547083855,41.56785583496094,36.42673110961914,-8.162994384765625,2,103194.696720125,4,2,1582550306.855217,0,0,0,0,0,0,0,0,0,103192.844894,0,-3.210419,99.13519
1582550307.750117,144,0,1582550305.248905,41.20731444146253,29.07237511545815,161.2861,-1,-1,15.9981050491333,65,-9999,103195.5899132917,1.242385864257812,0.3114776611328125,-0.3253173828125,103195.5848782917,-3.13927881281948,1.533018010580189,-0.09839279986448614,-0.4647626876831055,0.1771003156900406,-0.5607067942619324,-0.2659796476364136,-0.02515316009521484,0.1030839681625366,2,-0.692744117835461,-0.03622514285432149,0.7195039318745667,0.03327769297980143,0.9944532513618469,0.09823411703109741,-0.03758665174245834,41.56785583496094,36.42673110961914,-8.162994384765625,2,103194.696720125,4,2,1582550306.855217,0,0,0,0,0,0,0,0,0,103192.844894,0,-3.210419,99.13519
1582550307.759691,145,0,1582550305.248905,41.20731444146253,29.07237511545815,161.2861,-1,-1,15.9981050491333,65,-9999,103195.5999542917,2.667434692382812,0.1916046142578125,-1.145278930664062,103195.5949182917,-3.137946620962201,1.505295532302237,-0.09826928446143721,0.001331922598183155,-3.075973987579346,0.1764442324638367,-0.04284220933914185,0.1178377866744995,-0.0782853364944458,2,-0.6826822433138926,-0.03709263930812773,0.7290606049493558,0.03224460218670228,0.9930413961410522,0.09811119735240936,-0.06513818353414536,40.81192016601562,36.98408889770508,-8.781463623046875,2,103194.696720125,4,2,1582550306.855217,0,0,0,0,0,0,0,0,0,103192.844894,0,-3.210419,99.13519
1582550307.769615,146,0,1582550305.248905,41.20731444146253,29.07237511545815,161.2861,-1,-1,15.9981050491333,65,-9999,103195.6099942917,-0.2519378662109375,0.4140625,-0.2710723876953125,103195.6049592917,-3.137176949542774,1.487581111077959,-0.09811612548836825,-0.1914215534925461,-1.848106503486633,0.00162023026496172,1.722856998443604,0.2012268602848053,-1.022387742996216,2,-0.6761863436533702,-0.03758071851832218,0.7350934077751821,0.03158012664144677,0.9917466640472412,0.09795878082513809,-0.08271943777799606,40.81192016601562,36.98408889770508,-8.781463623046875,2,103194.696720125,4,2,1582550306.855217,0,0,0,0,0,0,0,0,0,103192.844894,0,-3.210419,99.13519
1582550307.779699,147,0,1582550305.248905,41.20731444146253,29.07237511545815,161.2861,-1,-1,15.9981050491333,65,-9999,103195.6200342917,-0.173004150390625,0.840850830078125,0.1980438232421875,103195.6149992917,3.138161459476724,1.489148275984268,-0.09454979518016807,0.856677234172821,0.376175731420517,0.3729813396930695,-0.6399332284927368,0.154682457447052,-0.440189003944397,2,-0.6769602123245168,-0.03359056249909798,0.7344989533043593,0.03328446592963114,0.9922170639038086,0.09440898150205612,-0.08119308948516846,40.9949951171875,36.8184700012207,-9.51080322265625,2,103194.696720125,4,2,1582550306.855217,0,0,0,0,0,0,0,0,0,103192.844894,0,-3.210419,99.13519
1582550307.78975,148,0,1582550305.248905,41.20731444146253,29.07237511545815,161.2861,-1,-1,15.9981050491333,65,-9999,103195.6301052917,1.516067504882812,0.1040191650390625,-0.65118408203125,103195.6250392917,3.129160192879556,1.490904045239095,-0.09089316146774681,1.051819801330566,0.3323225378990173,0.3253672122955322,-1.550476551055908,0.7683547735214233,0.3471578359603882,2,-0.6777980768469545,-0.02916904961207445,0.7338168329562234,0.03537822122819612,0.9926953911781311,0.09076806157827377,-0.07947786897420883,40.9949951171875,36.8184700012207,-9.51080322265625,2,103194.696720125,4,2,1582550306.855217,0,0,0,0,0,0,0,0,0,103192.844894,0,-3.210419,99.13519
1582550307.810715,149,0,1582550305.248905,41.20731444146253,29.07237511545815,161.2861,-1,-1,15.9981050491333,65,-9999,103195.6401452917,1.059280395507812,-0.336181640625,-0.6378173828125,103195.6350792917,3.1259996239895,1.490365411168775,-0.08776476863510684,0.3100172281265259,-0.05367797240614891,0.2793507874011993,0.3882836103439331,0.1937427222728729,-0.424425482749939,2,-0.6776840913670915,-0.0269589235463315,0.7340021230224388,0.03547104625477177,0.9929305911064148,0.08765213936567307,-0.08003497868776321,40.83512878417969,36.32995223999023,-9.8043212890625,2,103194.696720125,4,2,1582550306.855217,0,0,0,0,0,0,0,0,0,103192.844894,0,-3.210419,99.13519
1582550307.811582,150,0,1582550305.248905,41.20731444146253,29.07237511545815,161.2861,-1,-1,15.9981050491333,65,-9999,103195.6501862917,0.9814605712890625,-0.1014556884765625,-0.2731781005859375,103195.6451202917,3.126224280071916,1.488822243506138,-0.08482435642739831,-0.04158209264278412,-0.2374507337808609,0.3153862655162811,0.1843897700309753,-0.3985424339771271,-0.6321314573287964,2,-0.6771491728842262,-0.0259817339482038,0.7345830887766156,0.03437291897030736,0.9930585026741028,0.08472267538309097,-0.08158789575099945,40.83512878417969,36.32995223999023,-9.8043212890625,2,103194.696720125,4,2,1582550306.855217,0,0,0,0,0,0,0,0,0,103192.844894,0,-3.210419,99.13519
1582550307.819881,151,0,1582550305.248905,41.20731444146253,29.07237511545815,161.2861,-1,-1,15.9981050491333,65,-9999,103195.6602262917,0.92425537109375,0.111572265625,-0.137969970703125,103195.6551602917,3.125580347309394,1.49125286752831,-0.08348019573434161,0.1259592771530151,0.2789754867553711,0.0993071123957634,-0.0329134464263916,-0.2632917165756226,-0.2551727294921875,2,-0.6780649657907745,-0.02522817967299684,0.7337729097952587,0.03418533679161118,0.993366539478302,0.08338326960802078,-0.07918288558721542,41.23422241210938,36.18486404418945,-9.95721435546875,2,103194.696720125,4,2,1582550306.855217,0,0,0,0,0,0,0,0,0,103192.844894,0,-3.210419,99.13519
1582550307.83,152,0,1582550305.248905,41.20731444146253,29.07237511545815,161.2861,-1,-1,15.9981050491333,65,-9999,103195.6702662917,0.9197540283203125,0.035186767578125,-0.1942291259765625,103195.6652002917,3.12511328301002,1.496003929929053,-0.08254280171028866,0.05125094577670097,0.4960995614528656,0.08376410603523254,-0.03680431842803955,0.0275748074054718,-0.0630643367767334,2,-0.6798224017458929,-0.02464476276311045,0.7321690191617114,0.03409775721209057,0.9938091635704041,0.08244910091161728,-0.07446827739477158,41.23422241210938,36.18486404418945,-9.95721435546875,2,103194.696720125,4,2,1582550306.855217,0,0,0,0,0,0,0,0,0,103192.844894,0,-3.210419,99.13519
1582550307.839985,153,0,1582550305.248905,41.20731444146253,29.07237511545815,161.2861,-1,-1,15.9981050491333,65,-9999,103195.6803072917,1.00860595703125,0.060516357421875,-0.10797119140625,103195.6752412917,3.125341227334226,1.501414233145917,-0.08189132430475046,-0.04594257101416588,0.526837944984436,0.06839932501316071,-0.1029504537582397,-0.03482517600059509,-0.1207766532897949,2,-0.6818049333397871,-0.02439209125462732,0.7303428594596082,0.03385913154902431,0.9942509531974792,0.08179982751607895,-0.06909411400556564,41.42411804199219,36.04211044311523,-9.7210693359375,2,103194.696720125,4,2,1582550306.855217,0,0,0,0,0,0,0,0,0,103192.844894,0,-3.210419,99.13519
1582550307.850022,154,0,1582550305.248905,41.20731444146253,29.07237511545815,161.2861,-1,-1,15.9981050491333,65,-9999,103195.6903472917,0.99981689453125,0.101776123046875,-0.0527496337890625,103195.6853112917,3.125264894651052,1.50727458485819,-0.08168972926737647,0.01759619079530239,0.5966079831123352,0.01813269220292568,0.01535868644714355,-0.03596705198287964,-0.07090926170349121,2,-0.6839451859866854,-0.0241932095313987,0.7283441030790132,0.03388936866234976,0.9946550726890564,0.0815989077091217,-0.06326734274625778,41.42411804199219,36.04211044311523,-9.7210693359375,2,103194.696720125,4,2,1582550306.855217,0,0,0,0,0,0,0,0,0,103192.844894,0,-3.210419,99.13519
1582550307.877564,155,0,1582550305.248905,41.20731444146253,29.07237511545815,161.2861,-1,-1,15.9981050491333,65,-9999,103195.7003872917,1.05889892578125,0.08868408203125,-0.0316619873046875,103195.6953522917,3.125205548244998,1.512708719147114,-0.0818067069435808,0.004071428906172514,0.5509841442108154,-0.01349913328886032,-0.00302731990814209,0.02179288864135742,0.005501329898834229,2,-0.685921041594868,-0.02412320500766535,0.7264800233089589,0.03401662525486138,0.994974672794342,0.08171549439430237,-0.05786079168319702,41.6461181640625,36.2202033996582,-9.35052490234375,2,103194.696720125,4,2,1582550306.855217,0,0,0,0,0,0,0,0,0,103192.844894,0,-3.210419,99.13519
1582550307.87882,156,0,1582550305.248905,41.20731444146253,29.07237511545815,161.2861,-1,-1,15.9981050491333,65,-9999,103195.7104272917,1.059860229492188,0.1300201416015625,0.0426025390625,103195.7053922917,3.125166471774067,1.516355920533275,-0.08194123241157815,-0.0005235889693722129,0.3632432818412781,-0.01160429418087006,0.05587649345397949,0.004019707441329956,0.01030927896499634,2,-0.6872436875358076,-0.02409651631797061,0.7252249376326823,0.03412092225970481,0.995168149471283,0.08184956759214401,-0.0542309433221817,41.6461181640625,36.2202033996582,-9.35052490234375,2,103194.696720125,4,2,1582550306.855217,0,0,0,0,0,0,0,0,0,103192.844894,0,-3.210419,99.13519
1582550307.88026,157,0,1582550305.248905,41.20731444146253,29.07237511545815,161.2861,-1,-1,15.9981050491333,65,-9999,103195.7204682917,1.02764892578125,0.1315460205078125,0.0284576416015625,103195.7154322917,3.124838765375193,1.518165817524195,-0.0820777808066971,0.03515253216028214,0.1760057806968689,-0.01673967763781548,0.06815069913864136,0.04059621691703796,0.0840686559677124,2,-0.6879021205397593,-0.02400241770305789,0.7245946560378121,0.03430837529136144,0.9952534437179565,0.08198565244674683,-0.05242911353707314,41.81913757324219,36.12836837768555,-9.14202880859375,2,103194.696720125,4,2,1582550306.855217,0,0,0,0,0,0,0,0,0,103192.844894,0,-3.210419,99.13519
1582550307.890842,158,0,1582550305.248905,41.20731444146253,29.07237511545815,161.2861,-1,-1,15.9981050491333,65,-9999,103195.7305082917,1.00189208984375,0.1151885986328125,-0.0084381103515625,103195.7254732917,3.124324725800169,1.518888180014782,-0.08220158431283553,0.05046544224023819,0.07358060777187347,-0.01538359653204679,0.039681077003479,0.05295452475547791,0.09000229835510254,2,-0.6881685642577386,-0.02385801926829118,0.7243351763940979,0.03454577759222349,0.9952809810638428,0.08210904151201248,-0.05170964449644089,41.81913757324219,36.12836837768555,-9.14202880859375,2,103194.696720125,4,2,1582550306.855217,0,0,0,0,0,0,0,0,0,103192.844894,0,-3.210419,99.13519
1582550307.900389,159,0,1582550305.248905,41.20731444146253,29.07237511545815,161.2861,-1,-1,15.9981050491333,65,-9999,103195.7405482917,1.023834228515625,0.1084442138671875,-0.009979248046875,103195.7355132917,3.123675955734267,1.518664055502605,-0.08239101322452839,0.06464164704084396,-0.01469022873789072,-0.02207551151514053,0.008412361145019531,0.03463825583457947,0.04684352874755859,2,-0.6880930288597845,-0.02370734404231634,0.7243975314657132,0.03484321473374313,0.9952536821365356,0.08229783177375793,-0.05193189159035683,41.80601501464844,35.93204879760742,-9.11248779296875,2,103194.696720125,4,2,1582550306.855217,0,0,0,0,0,0,0,0,0,103192.844894,0,-3.210419,99.13519
1582550307.910367,160,0,1582550305.248905,41.20731444146253,29.07237511545815,161.2861,-1,-1,15.9981050491333,65,-9999,103195.7506192917,1.016525268554688,0.1063079833984375,-0.008331298828125,103195.7455532917,3.122953120275399,1.517366082398688,-0.08272273863239461,0.06979912519454956,-0.1264638900756836,-0.03608107566833496,0.02323275804519653,0.02724283933639526,0.0424426794052124,2,-0.6876277024236263,-0.02360174061184184,0.724825318159633,0.03520374938920739,0.9951581954956055,0.08262842148542404,-0.05322220176458359,41.80601501464844,35.93204879760742,-9.11248779296875,2,103194.696720125,4,2,1582550306.855217,0,0,0,0,0,0,0,0,0,103192.844894,0,-3.210419,99.13519
1582550307.94601,161,0,1582550305.248905,41.20731444146253,29.07237511545815,161.2861,-1,-1,15.9981050491333,65,-9999,103195.7606592917,1.010101318359375,0.1016387939453125,-0.0272064208984375,103195.7555932917,3.122181888917128,1.515326376237233,-0.08325039514204646,0.07320277392864227,-0.1985015422105789,-0.05694327130913734,0.02605748176574707,0.02317690849304199,0.04819357395172119,2,-0.6868915290800801,-0.02356430893767897,0.7255029810342646,0.03564049831930943,0.9950039982795715,0.08315426856279373,-0.05524950101971626,41.72702026367188,36.23543167114258,-9.16412353515625,2,103194.696720125,4,2,1582550306.855217,0,0,0,0,0,0,0,0,0,103192.844894,0,-3.210419,99.13519
1582550307.947375,162,0,1582550305.248905,41.20731444146253,29.07237511545815,161.2861,-1,-1,15.9981050491333,65,-9999,103195.7707002917,0.9882965087890625,0.0972900390625,-0.053253173828125,103195.7656342917,3.121408517586883,1.512997852479433,-0.08392887288611353,0.07364671677350998,-0.2309462875127792,-0.07210864126682281,0.01519817113876343,0.01894545555114746,0.03450071811676025,2,-0.6860482266278414,-0.02358708217681321,0.7262756400949872,0.03612641646185488,0.99481600522995,0.08383037149906158,-0.05756296217441559,41.72702026367188,36.23543167114258,-9.16412353515625,2,103194.696720125,4,2,1582550306.855217,0,0,0,0,0,0,0,0,0,103192.844894,0,-3.210419,99.13519
1582550307.948236,163,0,1582550305.248905,41.20731444146253,29.07237511545815,161.2861,-1,-1,15.9981050491333,65,-9999,103195.7807402917,0.952301025390625,0.0955963134765625,-0.0831298828125,103195.7756742917,3.120745838588995,1.511034240839227,-0.08460916856097446,0.06196064874529839,-0.191548615694046,-0.07002013176679611,0.001210153102874756,0.01292696595191956,0.01246404647827148,2,-0.6853353772395865,-0.02364292812862162,0.7269240540153987,0.0365770039420828,0.9946439862251282,0.0845082551240921,-0.05951286479830742,41.81442260742188,36.00559616088867,-9.331787109375,2,103194.696720125,4,2,1582550306.855217,0,0,0,0,0,0,0,0,0,103192.844894,0,-3.210419,99.13519
1582550307.950601,164,0,1582550305.248905,41.20731444146253,29.07237511545815,161.2861,-1,-1,15.9981050491333,65,-9999,103195.7907802917,0.9556732177734375,0.0858612060546875,-0.0965423583984375,103195.7857142917,3.120262345097212,1.509852602511176,-0.08533720277675863,0.04339948296546936,-0.1122870966792107,-0.07592276483774185,-0.0377042293548584,0.01169800758361816,-0.01749205589294434,2,-0.6849037070938475,-0.02376393964841145,0.7273061169722224,0.03698793382944099,0.9945113658905029,0.0852336660027504,-0.06068437546491623,41.81442260742188,36.00559616088867,-9.331787109375,2,103194.696720125,4,2,1582550306.855217,0,0,0,0,0,0,0,0,0,103192.844894,0,-3.210419,99.13519
1582550307.960672,165,0,1582550305.248905,41.20731444146253,29.07237511545815,161.2861,-1,-1,15.9981050491333,65,-9999,103195.8008202917,0.9671783447265625,0.091278076171875,-0.0873565673828125,103195.7957852917,3.119889767164444,1.509487426819025,-0.08615482516037111,0.03277098387479782,-0.03045553714036942,-0.08324892073869705,-0.04157954454421997,0.00107187032699585,-0.03454369306564331,2,-0.6847665430716694,-0.0239407648059613,0.7274083499024702,0.03739877325641094,0.9944190979003906,0.08604828268289566,-0.06104324385523796,41.66584777832031,36.01570510864258,-9.5721435546875,2,103194.696720125,4,2,1582550306.855217,0,0,0,0,0,0,0,0,0,103192.844894,0,-3.210419,99.13519
1582550307.970613,166,0,1582550305.248905,41.20731444146253,29.07237511545815,161.2861,-1,-1,15.9981050491333,65,-9999,103195.8108612917,0.9758758544921875,0.0971221923828125,-0.07086181640625,103195.8058252917,3.119635010395711,1.509613245413028,-0.08705097953639648,0.01897341385483742,0.009851405397057533,-0.08836565166711807,-0.02936404943466187,0.002437293529510498,-0.02972996234893799,2,-0.6848056373969262,-0.0241773830803283,0.7273430072072917,0.03779946730969869,0.9943494200706482,0.08694107830524445,-0.06091338768601418,41.66584777832031,36.01570510864258,-9.5721435546875,2,103194.696720125,4,2,1582550306.855217,0,0,0,0,0,0,0,0,0,103192.844894,0,-3.210419,99.13519
1582550308.00456,167,0,1582550305.248905,41.20731444146253,29.07237511545815,161.2861,-1,-1,15.9981050491333,65,-9999,103195.8209012917,0.97845458984375,0.1018524169921875,-0.064453125,103195.8158662917,3.119456122462658,1.509967072988144,-0.08799132239251783,0.0121053708717227,0.03436586633324623,-0.09278017282485962,-0.01981258392333984,0.008473753929138184,-0.01305806636810303,2,-0.6849261559206878,-0.02445165752724654,0.727199885295605,0.0381904937632202,0.9942888021469116,0.08787782490253448,-0.0605565533041954,41.60224914550781,36.20004653930664,-9.54266357421875,2,103194.696720125,4,2,1582550306.855217,0,0,0,0,0,0,0,0,0,103192.844894,0,-3.210419,99.13519
1582550308.00598,168,0,1582550305.248905,41.20731444146253,29.07237511545815,161.2861,-1,-1,15.9981050491333,65,-9999,103195.8309412917,0.9758758544921875,0.10894775390625,-0.059539794921875,103195.8259062917,3.119327145122251,1.510401312750292,-0.08887625604295041,0.007286913692951202,0.04052282869815826,-0.0869571715593338,-0.0158088207244873,0.01172736287117004,-0.005544662475585938,2,-0.6850757787198837,-0.02472117288830716,0.727031204686345,0.03854549397819784,0.9942371845245361,0.08875929564237595,-0.06012008339166641,41.60224914550781,36.20004653930664,-9.54266357421875,2,103194.696720125,4,2,1582550306.855217,0,0,0,0,0,0,0,0,0,103192.844894,0,-3.210419,99.13519
1582550308.007018,169,0,1582550305.248905,41.20731444146253,29.07237511545815,161.2861,-1,-1,15.9981050491333,65,-9999,103195.8409822917,0.9703826904296875,0.116455078125,-0.0564117431640625,103195.8359462917,3.119253478365207,1.510915797099791,-0.08958515282303744,0.001076460583135486,0.04930367320775986,-0.0677950531244278,-0.01817226409912109,0.01825377345085144,-0.0003077387809753418,2,-0.6852557345053323,-0.02494388953455257,0.7268391507766903,0.03882126018390802,0.9942046999931335,0.08946537226438522,-0.05960476025938988,41.43489074707031,36.42831039428711,-9.5550537109375,2,103194.696720125,4,2,1582550306.855217,0,0,0,0,0,0,0,0,0,103192.844894,0,-3.210419,99.13519
1582550308.010866,170,0,1582550305.248905,41.20731444146253,29.07237511545815,161.2861,-1,-1,15.9981050491333,65,-9999,103195.8510222917,0.9801483154296875,0.1148834228515625,-0.0472259521484375,103195.8459862917,3.119198110154815,1.511342072898321,-0.09017047437966765,0.0009515583515167236,0.04318799078464508,-0.05848304554820061,-0.02279913425445557,0.02523916959762573,0.00144726037979126,2,-0.6854046911214917,-0.02512951341020725,0.7266802546518284,0.03904707000146879,0.9941776394844055,0.09004833549261093,-0.05917783454060555,41.43489074707031,36.42831039428711,-9.5550537109375,2,103194.696720125,4,2,1582550306.855217,0,0,0,0,0,0,0,0,0,103192.844894,0,-3.210419,99.13519
1582550308.020839,171,0,1582550305.248905,41.20731444146253,29.07237511545815,161.2861,-1,-1,15.9981050491333,65,-9999,103195.8610932917,0.9831085205078125,0.1163177490234375,-0.041107177734375,103195.8560272917,3.119124222151962,1.511434141736685,-0.09065841855898497,0.005883554928004742,0.008454708382487297,-0.04863221198320389,-0.01639783382415771,0.02472260594367981,0.009180665016174316,2,-0.6854335048857571,-0.02527984449027271,0.726637263922763,0.03924212121453424,0.9941389560699463,0.09053428471088409,-0.05908367782831192,41.57319641113281,36.47654342651367,-9.36260986328125,2,103194.696720125,4,2,1582550306.855217,0,0,0,0,0,0,0,0,0,103192.844894,0,-3.210419,99.13519
1582550308.030928,172,0,1582550305.248905,41.20731444146253,29.07237511545815,161.2861,-1,-1,15.9981050491333,65,-9999,103195.8711332917,0.9810333251953125,0.11676025390625,-0.0437164306640625,103195.8660672917,3.119027875753348,1.511239835691725,-0.09107151628845794,0.007477456703782082,-0.01518750376999378,-0.04056975990533829,-0.01055055856704712,0.02511993050575256,0.01832872629165649,2,-0.6853593812962697,-0.02540088257808093,0.7266936964020255,0.03941607566937538,0.9940902590751648,0.09094567596912384,-0.05927462875843048,41.57319641113281,36.47654342651367,-9.36260986328125,2,103194.696720125,4,2,1582550306.855217,0,0,0,0,0,0,0,0,0,103192.844894,0,-3.210419,99.13519
1582550308.066344,173,0,1582550305.248905,41.20731444146253,29.07237511545815,161.2861,-1,-1,15.9981050491333,65,-9999,103195.8811732917,0.9803009033203125,0.114776611328125,-0.0461273193359375,103195.8761072917,3.118918349037318,1.510760031119561,-0.09140036065736039,0.009692585095763206,-0.04487501829862595,-0.03353641554713249,-0.01297920942306519,0.02547904849052429,0.01634740829467773,2,-0.6851826316234854,-0.0254924417672967,0.7268492210848256,0.03956232123619985,0.9940318465232849,0.09127315133810043,-0.0597497932612896,41.40126037597656,36.33100509643555,-9.32666015625,2,103194.696720125,4,2,1582550306.855217,0,0,0,0,0,0,0,0,0,103192.844894,0,-3.210419,99.13519
1582550308.067692,174,0,1582550305.248905,41.20731444146253,29.07237511545815,161.2861,-1,-1,15.9981050491333,65,-9999,103195.8912142917,0.973236083984375,0.11395263671875,-0.0533447265625,103195.8861482917,3.118824015550684,1.510145914544473,-0.09163381292781536,0.008028110489249229,-0.05810054391622543,-0.02351627312600613,-0.0128142237663269,0.02355283498764038,0.01500344276428223,2,-0.684957924037005,-0.02555723081939859,0.7270529148533658,0.03966864878389359,0.9939736723899841,0.09150563180446625,-0.06035894155502319,41.40126037597656,36.33100509643555,-9.32666015625,2,103194.696720125,4,2,1582550306.855217,0,0,0,0,0,0,0,0,0,103192.844894,0,-3.210419,99.13519
1582550308.068595,175,0,1582550305.248905,41.20731444146253,29.07237511545815,161.2861,-1,-1,15.9981050491333,65,-9999,103195.9012542917,0.9676971435546875,0.1124420166015625,-0.05841064453125,103195.8961882917,3.118749695404893,1.509533722086259,-0.09178898983494774,0.006071361247450113,-0.06038161367177963,-0.01593579724431038,-0.01946163177490234,0.02254381775856018,0.009125947952270508,2,-0.6847345029430486,-0.02560041029885246,0.727257831969673,0.03974091835503735,0.9939222931861877,0.09166015684604645,-0.06096655875444412,41.29629516601562,36.42271041870117,-9.54437255859375,2,103194.696720125,4,2,1582550306.855217,0,0,0,0,0,0,0,0,0,103192.844894,0,-3.210419,99.13519
1582550308.071102,176,0,1582550305.248905,41.20731444146253,29.07237511545815,161.2861,-1,-1,15.9981050491333,65,-9999,103195.9112942917,0.9596099853515625,0.111572265625,-0.0611724853515625,103195.9062592917,3.11868720808535,1.509052320508911,-0.09184065803872199,0.006411446724087,-0.04748312383890152,-0.005157983396202326,-0.0252106785774231,0.02087485790252686,0.00354611873626709,2,-0.6845596377926719,-0.02560739920116961,0.7274202157017297,0.0397751500413413,0.9938879609107971,0.09171160310506821,-0.0614447258412838,41.29629516601562,36.42271041870117,-9.54437255859375,2,103194.696720125,4,2,1582550306.855217,0,0,0,0,0,0,0,0,0,103192.844894,0,-3.210419,99.13519
