loggingTime,loggingSample,identifierForVendor,locationTimestamp_since1970,locationLatitude,locationLongitude,locationAltitude,locationSpeed,locationCourse,locationVerticalAccuracy,locationHorizontalAccuracy,locationFloor,accelerometerTimestamp_sinceReboot,accelerometerAccelerationX,accelerometerAccelerationY,accelerometerAccelerationZ,motionTimestamp_sinceReboot,motionYaw,motionRoll,motionPitch,motionRotationRateX,motionRotationRateY,motionRotationRateZ,motionUserAccelerationX,motionUserAccelerationY,motionUserAccelerationZ,motionAttitudeReferenceFrame,motionQuaternionX,motionQuaternionY,motionQuaternionZ,motionQuaternionW,motionGravityX,motionGravityY,motionGravityZ,motionMagneticFieldX,motionMagneticFieldY,motionMagneticFieldZ,motionMagneticFieldCalibrationAccuracy,activityTimestamp_sinceReboot,activity,activityActivityConfidence,activityActivityStartDate,pedometerStartDate,pedometerNumberofSteps,pedometerAverageActivePace,pedometerCurrentPace,pedometerCurrentCadence,pedometerDistance,pedometerFloorAscended,pedometerFloorDescended,pedometerEndDate,altimeterTimestamp_sinceReboot,altimeterReset,altimeterRelativeAltitude,altimeterPressure
1582550217.073679,1,0,1582550216.935356,41.20732995451319,29.07232162814989,161.337,-1,-1,21.01150894165039,65,-9999,103104.8725070417,0.5385589599609375,-0.0396575927734375,-0.82489013671875,103104.8674710417,0.1062445699475237,0.6174227976632136,0.03135229370078786,-0.03340725973248482,0.05255226045846939,-0.01161136757582426,-0.03364741802215576,0.004492223262786865,-0.006197631359100342,2,-0.001217244527877276,0.3041583097794898,0.05533694963403429,0.9510121042351072,0.5786511898040771,-0.03134715929627419,-0.814972460269928,22.41522216796875,-34.79479598999023,-28.1429443359375,2,103102.784571,1,2,1582550214.943068,0,0,0,0,0,0,0,0,0,103101.533992,0,0.2906494,99.09388
1582550217.075584,2,0,1582550216.935356,41.20732995451319,29.07232162814989,161.337,-1,-1,21.01150894165039,65,-9999,103104.8825470417,0.5395355224609375,-0.0254058837890625,-0.82568359375,103104.8775120417,0.1061548929008449,0.6179695712883689,0.03125805960568884,0.0006060326704755425,0.05671560764312744,-0.01326187141239643,-0.04219704866409302,-0.01040297746658325,-0.007152557373046875,2,-0.001263550870200941,0.3044161811789818,0.05527970574959029,0.9509329001641442,0.5790984034538269,-0.03125296905636787,-0.8146584033966064,22.37425231933594,-34.8477897644043,-28.182861328125,2,103102.784571,1,2,1582550214.943068,0,0,0,0,0,0,0,0,0,103102.475174,0,0.2642212,99.09419
1582550217.07627,3,0,1582550216.935356,41.20732995451319,29.07232162814989,161.337,-1,-1,21.01150894165039,65,-9999,103104.8925870417,0.531280517578125,-0.03515625,-0.824493408203125,103104.8875520417,0.1061095666034162,0.6186209140272344,0.03110046472226628,-0.01475188508629799,0.06686650961637497,-0.01352472417056561,-0.03836637735366821,0.004606753587722778,-0.01300382614135742,2,-0.001349610655968336,0.3047222774532753,0.05523385466391811,0.9508374107471526,0.5796317458152771,-0.03109545074403286,-0.8142850399017334,22.37425231933594,-34.8477897644043,-28.182861328125,2,103102.784571,1,2,1582550214.943068,0,0,0,0,0,0,0,0,0,103102.475174,0,0.2642212,99.09419
1582550217.077076,4,0,1582550216.935356,41.20732995451319,29.07232162814989,161.337,-1,-1,21.01150894165039,65,-9999,103104.9026580417,0.5390625,-0.0327301025390625,-0.824951171875,103104.8975920417,0.1060537946473119,0.6193793210656746,0.03098711123025385,-0.004597784951329231,0.07828407734632492,-0.01194696500897408,-0.04881250858306885,-0.001762688159942627,-0.009626150131225586,2,-0.001415960213951739,0.3050802611000291,0.05518962478684691,0.9507250843976572,0.5802512168884277,-0.03098215162754059,-0.813848078250885,22.15696716308594,-34.886474609375,-28.0111083984375,2,103102.784571,1,2,1582550214.943068,0,0,0,0,0,0,0,0,0,103102.475174,0,0.2642212,99.09419
1582550217.077832,5,0,1582550216.935356,41.20732995451319,29.07232162814989,161.337,-1,-1,21.01150894165039,65,-9999,103104.9126980417,0.5406951904296875,-0.0294036865234375,-0.822998046875,103104.9076320417,0.1060016128115372,0.620204998249791,0.03085753647457405,-0.009244201704859734,0.08369668573141098,-0.01227400079369545,-0.04339843988418579,-0.003707975149154663,-0.01242160797119141,2,-0.001492395840616306,0.3054698208204509,0.0551445471755676,0.9506024246398134,0.5809252858161926,-0.03085264004766941,-0.8133718967437744,22.15696716308594,-34.886474609375,-28.0111083984375,2,103102.784571,1,2,1582550214.943068,0,0,0,0,0,0,0,0,0,103102.475174,0,0.2642212,99.09419
1582550217.095669,6,0,1582550216.935356,41.20732995451319,29.07232162814989,161.337,-1,-1,21.01150894165039,65,-9999,103104.9227390417,0.5420379638671875,-0.0326690673828125,-0.822509765625,103104.9176730417,0.1059257618641395,0.6210902490561954,0.03075114322481011,-0.004228207748383284,0.08969920873641968,-0.01244299206882715,-0.0407785177230835,0.00175514817237854,-0.009820759296417236,2,-0.001555788919484324,0.3058881600269964,0.05509164068192957,0.9504709345397977,0.5816470384597778,-0.03074629604816437,-0.8128600120544434,22.33221435546875,-34.61809539794922,-28.05181884765625,2,103102.784571,1,2,1582550214.943068,0,0,0,0,0,0,0,0,0,103102.475174,0,0.2642212,99.09419
1582550217.096657,7,0,1582550216.935356,41.20732995451319,29.07232162814989,161.337,-1,-1,21.01150894165039,65,-9999,103104.9327790417,0.5481109619140625,-0.03106689453125,-0.8203582763671875,103104.9277130417,0.1058626518289131,0.6219967213661949,0.03064029206452898,-0.005536618642508984,0.09187634289264679,-0.0120624266564846,-0.04115092754364014,-0.001605808734893799,-0.01065075397491455,2,-0.001623791992918733,0.3063164288450393,0.05504404871034391,0.9503356676598222,0.5823855996131897,-0.03063549846410751,-0.812335193157196,22.33221435546875,-34.61809539794922,-28.05181884765625,2,103102.784571,1,2,1582550214.943068,0,0,0,0,0,0,0,0,0,103102.475174,0,0.2642212,99.09419
1582550217.102904,8,0,1582550216.935356,41.20732995451319,29.07232162814989,161.337,-1,-1,21.01150894165039,65,-9999,103104.9428190417,0.5536041259765625,-0.0313873291015625,-0.8188323974609375,103104.9377530417,0.1058191405219743,0.6229145125071318,0.03052203540699127,-0.006170869804918766,0.09293730556964874,-0.00973452627658844,-0.03642058372497559,-0.0008237361907958984,-0.008603990077972412,2,-0.001698593511570451,0.3067498594425179,0.05500458368601241,0.9501979156573247,0.5831330418586731,-0.03051729686558247,-0.8118032813072205,22.482421875,-34.75579071044922,-27.99798583984375,2,103102.784571,1,2,1582550214.943068,0,0,0,0,0,0,0,0,0,103102.475174,0,0.2642212,99.09419
1582550217.112896,9,0,1582550216.935356,41.20732995451319,29.07232162814989,161.337,-1,-1,21.01150894165039,65,-9999,103104.9528600417,0.5673370361328125,-0.031280517578125,-0.8163299560546875,103104.9477940417,0.1057739748773733,0.6237555203752688,0.03041920788223686,-0.005805217660963535,0.08684665709733963,-0.009184849448502064,-0.03142869472503662,-0.0008807480335235596,-0.008085131645202637,2,-0.001763658799972229,0.3071470863985222,0.05496669641792207,0.9500716635380815,0.5838173627853394,-0.0304145161062479,-0.81131511926651,22.482421875,-34.75579071044922,-27.99798583984375,2,103102.784571,1,2,1582550214.943068,0,0,0,0,0,0,0,0,0,103102.475174,0,0.2642212,99.09419
1582550217.123354,10,0,1582550216.935356,41.20732995451319,29.07232162814989,161.337,-1,-1,21.01150894165039,65,-9999,103104.9629000417,0.5818939208984375,-0.03271484375,-0.8141937255859375,103104.9578640417,0.1056965773488722,0.6244247589853948,0.0303298170815868,-0.003417303320020437,0.06823229789733887,-0.01230279542505741,-0.02060532569885254,-0.0009243190288543701,-0.005681455135345459,2,-0.001812634547186498,0.3074630122736226,0.05491566662120118,0.9499723278411399,0.5843617916107178,-0.03032516688108444,-0.8109264373779297,22.38008117675781,-34.94956207275391,-28.04791259765625,2,103102.784571,1,2,1582550214.943068,0,0,0,0,0,0,0,0,0,103102.475174,0,0.2642212,99.09419
1582550217.132913,11,0,1582550216.935356,41.20732995451319,29.07232162814989,161.337,-1,-1,21.01150894165039,65,-9999,103104.9729400417,0.5846710205078125,-0.033599853515625,-0.8123779296875,103104.9679050417,0.1056152524624053,0.6248906844826861,0.0302272545855066,-0.002274274593219161,0.04777362942695618,-0.01224393956363201,-0.004825830459594727,-0.002140730619430542,-0.003998160362243652,2,-0.001861654424322096,0.3076820517151519,0.05486091772651114,0.949904463828293,0.5847413539886475,-0.03022265248000622,-0.8106566071510315,22.38008117675781,-34.94956207275391,-28.04791259765625,2,103102.784571,1,2,1582550214.943068,0,0,0,0,0,0,0,0,0,103102.475174,0,0.2642212,99.09419
1582550217.156396,12,0,1582550216.935356,41.20732995451319,29.07232162814989,161.337,-1,-1,21.01150894165039,65,-9999,103104.9829800417,0.5804290771484375,-0.0299835205078125,-0.8142852783203125,103104.9779450417,0.1055530710896387,0.6251433849587064,0.03014611464224199,-0.003907052334398031,0.02511005848646164,-0.008912798948585987,-4.249811172485352e-05,-0.003701925277709961,-0.001961946487426758,2,-0.001897572696483302,0.3078002825672257,0.05481872466919657,0.9498685124480899,0.5849476456642151,-0.0301415491849184,-0.8105107545852661,22.62480163574219,-34.81206512451172,-27.91107177734375,2,103102.784571,1,2,1582550214.943068,0,0,0,0,0,0,0,0,0,103102.475174,0,0.2642212,99.09419
1582550217.157556,13,0,1582550216.935356,41.20732995451319,29.07232162814989,161.337,-1,-1,21.01150894165039,65,-9999,103104.993004875,0.5668182373046875,-0.0296173095703125,-0.8174591064453125,103104.987968875,0.1054853094124498,0.6252978367041935,0.03009334537241695,-0.0003911468666046858,0.01751259341835976,-0.009558615274727345,-0.003143906593322754,-0.0005350410938262939,-0.003195405006408691,2,-0.0019164460391283,0.3078724746978084,0.05477830793485428,0.9498475123127572,0.5850737690925598,-0.03008880279958248,-0.8104217052459717,22.62480163574219,-34.81206512451172,-27.91107177734375,2,103102.784571,1,2,1582550214.943068,0,0,0,0,0,0,0,0,0,103102.475174,0,0.2642212,99.09419
1582550217.163071,14,0,1582550216.935356,41.20732995451319,29.07232162814989,161.337,-1,-1,21.01150894165039,65,-9999,103105.003044875,0.55657958984375,-0.0310821533203125,-0.818145751953125,103104.998009875,0.1054501831041574,0.6254047039981376,0.03004421829492803,-0.001057487446814775,0.01293821819126606,-0.005345447454601526,-0.01504170894622803,0.0006365478038787842,-0.006445825099945068,2,-0.001937311014214183,0.3079221645708197,0.05475400126928959,0.9498326755899016,0.5851612091064453,-0.03003969788551331,-0.8103603720664978,22.51333618164062,-34.78484344482422,-27.94354248046875,2,103102.784571,1,2,1582550214.943068,0,0,0,0,0,0,0,0,0,103102.475174,0,0.2642212,99.09419
1582550217.173023,15,0,1582550216.935356,41.20732995451319,29.07232162814989,161.337,-1,-1,21.01150894165039,65,-9999,103105.013084875,0.550811767578125,-0.0315399169921875,-0.8169708251953125,103105.008049875,0.1054405898424509,0.6254870637134496,0.02999973690162601,-0.003122502472251654,0.009897151961922646,-0.002599461935460567,-0.02740776538848877,-0.0009795725345611572,-0.008049368858337402,2,-0.00195922429010259,0.3079602765599759,0.0547425500260314,0.9498209284984391,0.5852287411689758,-0.02999523654580116,-0.8103132843971252,22.51333618164062,-34.78484344482422,-27.94354248046875,2,103102.784571,1,2,1582550214.943068,0,0,0,0,0,0,0,0,0,103102.475174,0,0.2642212,99.09419
1582550217.183092,16,0,1582550216.935356,41.20732995451319,29.07232162814989,161.337,-1,-1,21.01150894165039,65,-9999,103105.023125875,0.5449981689453125,-0.0317535400390625,-0.8178863525390625,103105.018089875,0.1054328989557726,0.6255617103138792,0.02994805475615878,-0.004237373825162649,0.008475532755255699,-0.004201333969831467,-0.03311491012573242,-0.001473754644393921,-0.00676429271697998,2,-0.001984639974421748,0.307994559561233,0.05473090467867553,0.9498104236955076,0.5852901339530945,-0.02994357794523239,-0.8102708458900452,22.40263366699219,-34.63120269775391,-28.13360595703125,2,103102.784571,1,2,1582550214.943068,0,0,0,0,0,0,0,0,0,103102.475174,0,0.2642212,99.09419
1582550217.193002,17,0,1582550216.935356,41.20732995451319,29.07232162814989,161.337,-1,-1,21.01150894165039,65,-9999,103105.033195875,0.5420684814453125,-0.0307159423828125,-0.81866455078125,103105.028129875,0.1054476485362992,0.6256631004658421,0.02991784213033791,-0.002852796344086528,0.01214190572500229,-0.001037765294313431,-0.03924012184143066,-0.001824378967285156,-0.007326424121856689,2,-0.002004042158456593,0.3080420118585834,0.05473317878882378,0.9497948441415186,0.5853728055953979,-0.02991337887942791,-0.8102121949195862,22.40263366699219,-34.63120269775391,-28.13360595703125,2,103102.784571,1,2,1582550214.943068,0,0,0,0,0,0,0,0,0,103102.475174,0,0.2642212,99.09419
1582550217.218063,18,0,1582550216.935356,41.20732995451319,29.07232162814989,161.337,-1,-1,21.01150894165039,65,-9999,103105.043236875,0.545379638671875,-0.027252197265625,-0.8162078857421875,103105.038170875,0.1055144343133291,0.6257816753243536,0.02991238055204163,-0.003928447142243385,0.01429800316691399,0.00530295493081212,-0.04339498281478882,-0.001341581344604492,-0.008524775505065918,2,-0.002020168487334134,0.3080981165841757,0.05476393539467417,0.9497748980911737,0.5854690074920654,-0.02990791946649551,-0.8101429343223572,22.52919006347656,-34.76256561279297,-28.16070556640625,2,103105.034691875,2,0,1582550217.193189,0,0,0,0,0,0,0,0,0,103102.475174,0,0.2642212,99.09419
1582550217.21949,19,0,1582550216.935356,41.20732995451319,29.07232162814989,161.337,-1,-1,21.01150894165039,65,-9999,103105.053276875,0.551361083984375,-0.0281524658203125,-0.8167572021484375,103105.048210875,0.1056288394282358,0.6258758911396152,0.0299315543207838,-0.005657299421727657,0.009622583165764809,0.01111688185483217,-0.04112124443054199,0.002080321311950684,-0.006459534168243408,2,-0.002031267095760403,0.3081431947521432,0.05482111182737043,0.9497568865850037,0.5855449438095093,-0.0299270860850811,-0.810087263584137,22.52919006347656,-34.76256561279297,-28.16070556640625,2,103105.034691875,2,0,1582550217.193189,0,0,0,0,0,0,0,0,0,103102.475174,0,0.2642212,99.09419
1582550217.223367,20,0,1582550216.935356,41.20732995451319,29.07232162814989,161.337,-1,-1,21.01150894165039,65,-9999,103105.063316875,0.5562744140625,-0.0305633544921875,-0.8173980712890625,103105.058250875,0.1057499449302403,0.6259483017207846,0.02997688018316202,-0.003237889613956213,0.007254317402839661,0.01280795410275459,-0.03530442714691162,0.00221717357635498,-0.006350398063659668,2,-0.002030378163595331,0.3081784939482737,0.05488549833758954,0.9497417089405695,0.5856028199195862,-0.02997239120304585,-0.8100438117980957,22.57362365722656,-34.78788375854492,-28.0762939453125,2,103105.034691875,2,0,1582550217.193189,0,0,0,0,0,0,0,0,0,103102.475174,0,0.2642212,99.09419
1582550217.233286,21,0,1582550216.935356,41.20732995451319,29.07232162814989,161.337,-1,-1,21.01150894165039,65,-9999,103105.073356875,0.5635528564453125,-0.03167724609375,-0.8162994384765625,103105.068291875,0.1058759390329152,0.6260003927648436,0.03001772310389042,-0.004640576429665089,0.007718240842223167,0.0131877213716507,-0.03041732311248779,-0.0002444684505462646,-0.00743478536605835,2,-0.002031817119934137,0.3082040238373331,0.05495153638439498,0.9497296520165617,0.5856443047523499,-0.03001321479678154,-0.8100122809410095,22.57362365722656,-34.78788375854492,-28.0762939453125,2,103105.034691875,2,0,1582550217.193189,0,0,0,0,0,0,0,0,0,103102.475174,0,0.2642212,99.09419
1582550217.243487,22,0,1582550216.935356,41.20732995451319,29.07232162814989,161.337,-1,-1,21.01150894165039,65,-9999,103105.083397875,0.5718536376953125,-0.0333251953125,-0.8157958984375,103105.078361875,0.105979373210117,0.6259701737945025,0.03003616834933445,-0.004525386262685061,-0.002159593626856804,0.009149378165602684,-0.02366340160369873,-0.001370400190353394,-0.006257832050323486,2,-0.002038160755182178,0.3081899816890776,0.05500351096585271,0.9497312239215012,0.5856195092201233,-0.03003165312111378,-0.8100295662879944,22.63465881347656,-34.71111679077148,-28.1265869140625,2,103105.034691875,2,0,1582550217.193189,0,0,0,0,0,0,0,0,0,103102.475174,0,0.2642212,99.09419
1582550217.253398,23,0,1582550216.935356,41.20732995451319,29.07232162814989,161.337,-1,-1,21.01150894165039,65,-9999,103105.093437875,0.5738677978515625,-0.0320587158203125,-0.815338134765625,103105.088402875,0.1060730244866753,0.6258341246568664,0.03005137195050513,-0.004110199399292469,-0.01280930731445551,0.009250311180949211,-0.01506906747817993,-0.003170996904373169,-0.005705535411834717,2,-0.002041625502315375,0.3081256410351634,0.05505045563606414,0.9497493203646102,0.5855090022087097,-0.0300468485802412,-0.8101088404655457,22.63465881347656,-34.71111679077148,-28.1265869140625,2,103105.034691875,2,0,1582550217.193189,0,0,0,0,0,0,0,0,0,103102.475174,0,0.2642212,99.09419
1582550217.283771,24,0,1582550216.935356,41.20732995451319,29.07232162814989,161.337,-1,-1,21.01150894165039,65,-9999,103105.103477875,0.5670013427734375,-0.0325469970703125,-0.816070556640625,103105.098442875,0.1061397818274104,0.6256118700558951,0.03006935549248722,-0.00273169600404799,-0.02109148353338242,0.005700739100575447,-0.01105868816375732,-0.002161204814910889,-0.005179166793823242,2,-0.002037245681474842,0.3080204484045943,0.05508514243480017,0.9497814049703179,0.5853286385536194,-0.03006482496857643,-0.8102384805679321,22.68983459472656,-34.74343872070312,-27.98486328125,2,103105.034691875,2,0,1582550217.193189,0,0,0,0,0,0,0,0,0,103102.475174,0,0.2642212,99.09419
1582550217.285192,25,0,1582550216.935356,41.20732995451319,29.07232162814989,161.337,-1,-1,21.01150894165039,65,-9999,103105.113518875,0.559051513671875,-0.0325164794921875,-0.816864013671875,103105.108482875,0.1061893995381951,0.6253435085590142,0.03008989210201203,-0.00138067442458123,-0.02555946819484234,0.00478567648679018,-0.01656293869018555,-0.002216964960098267,-0.005419313907623291,2,-0.00202773305050416,0.3078934119972885,0.05511212270711008,0.949821099396966,0.5851108431816101,-0.03008535131812096,-0.8103950619697571,22.68983459472656,-34.74343872070312,-27.98486328125,2,103105.034691875,2,0,1582550217.193189,0,0,0,0,0,0,0,0,0,103102.475174,0,0.2642212,99.09419
1582550217.286814,26,0,1582550216.935356,41.20732995451319,29.07232162814989,161.337,-1,-1,21.01150894165039,65,-9999,103105.123558875,0.5544891357421875,-0.030975341796875,-0.8169708251953125,103105.118522875,0.1062302961569375,0.6250559077453474,0.03010504834338604,-0.001616364112123847,-0.02669663727283478,0.004085531458258629,-0.02426427602767944,-0.002476513385772705,-0.006395936012268066,2,-0.002018900816373875,0.3077571431802459,0.05513416026947759,0.9498639480626631,0.5848774313926697,-0.03010050021111965,-0.8105629086494446,22.49150085449219,-34.60865783691406,-28.02490234375,2,103105.034691875,2,0,1582550217.193189,0,0,0,0,0,0,0,0,0,103102.475174,0,0.2642212,99.09419
1582550217.293561,27,0,1582550216.935356,41.20732995451319,29.07232162814989,161.337,-1,-1,21.01150894165039,65,-9999,103105.133598875,0.5494232177734375,-0.0309906005859375,-0.818206787109375,103105.128563875,0.1062747339273825,0.6247569754960022,0.03012005145282375,-0.001138326711952686,-0.0282447338104248,0.004268224351108074,-0.0296369194984436,-0.001042455434799194,-0.006221413612365723,2,-0.002010364308270673,0.3076154583264455,0.05515786166527792,0.949908520921647,0.5846348404884338,-0.03011549822986126,-0.8107373714447021,22.49150085449219,-34.60865783691406,-28.02490234375,2,103105.034691875,2,0,1582550217.193189,0,0,0,0,0,0,0,0,0,103102.475174,0,0.2642212,99.09419
1582550217.30379,28,0,1582550216.935356,41.20732995451319,29.07232162814989,161.337,-1,-1,21.01150894165039,65,-9999,103105.143638875,0.5458221435546875,-0.0309600830078125,-0.819122314453125,103105.138603875,0.1063372814821495,0.6244840487349201,0.03013629294132164,-0.00145338976290077,-0.02560829371213913,0.00616375869140029,-0.03388619422912598,-0.0006142258644104004,-0.00700831413269043,2,-0.00200473362496853,0.3074861264667995,0.05519032615187874,0.9499485689136864,0.5844132900238037,-0.03013173118233681,-0.8108965158462524,22.48080444335938,-34.74726867675781,-28.18719482421875,2,103105.034691875,2,0,1582550217.193189,0,0,0,0,0,0,0,0,0,103102.475174,0,0.2642212,99.09419
1582550217.313743,29,0,1582550216.935356,41.20732995451319,29.07232162814989,161.337,-1,-1,21.01150894165039,65,-9999,103105.153709875,0.544647216796875,-0.0308380126953125,-0.8199615478515625,103105.148643875,0.1063784245598329,0.6242775831580587,0.03015006582413211,-0.000320747378282249,-0.01979141682386398,0.004355472046881914,-0.03800618648529053,-0.0009666681289672852,-0.008017182350158691,2,-0.001998815599034226,0.3073883442112757,0.05521218379119408,0.9499789149633446,0.5842456221580505,-0.03014549799263477,-0.8110167980194092,22.48080444335938,-34.74726867675781,-28.18719482421875,2,103105.034691875,2,0,1582550217.193189,0,0,0,0,0,0,0,0,0,103102.475174,0,0.2642212,99.09419
1582550217.344134,30,0,1582550216.935356,41.20732995451319,29.07232162814989,161.337,-1,-1,21.01150894165039,65,-9999,103105.163750875,0.5464019775390625,-0.032806396484375,-0.8210296630859375,103105.158684875,0.1063978544092533,0.624136600438122,0.03014991198299644,-0.001134491642005742,-0.01341648865491152,0.0007637529633939266,-0.03949403762817383,-0.0004175007343292236,-0.008377313613891602,2,-0.001997982121025366,0.3073213536965412,0.05522152988811535,0.950000053635777,0.5841312408447266,-0.03014534525573254,-0.8110991716384888,22.46150207519531,-34.59367370605469,-28.31683349609375,2,103105.034691875,2,0,1582550217.193189,0,0,0,0,0,0,0,0,0,103102.475174,0,0.2642212,99.09419
1582550217.345532,31,0,1582550216.935356,41.20732995451319,29.07232162814989,161.337,-1,-1,21.01150894165039,65,-9999,103105.173790875,0.54901123046875,-0.03173828125,-0.820159912109375,103105.168724875,0.1064351206121772,0.6240494184530794,0.03014615702184944,-0.003403771203011274,-0.008028381504118443,0.002258851192891598,-0.03818744421005249,-0.002313375473022461,-0.009958982467651367,2,-0.002003085330229415,0.3072798201041161,0.05523874494791936,0.9500124696619909,0.5840606093406677,-0.03014159202575684,-0.8111501932144165,22.46150207519531,-34.59367370605469,-28.31683349609375,2,103105.034691875,2,0,1582550217.193189,0,0,0,0,0,0,0,0,0,103102.475174,0,0.2642212,99.09419
1582550217.346698,32,0,1582550216.935356,41.20732995451319,29.07232162814989,161.337,-1,-1,21.01150894165039,65,-9999,103105.183830875,0.550994873046875,-0.0306396484375,-0.819793701171875,103105.178764875,0.1064768406612022,0.6239928564827205,0.03015126010244982,-0.002068955916911364,-0.005930012091994286,0.003328202292323112,-0.03556275367736816,-0.002262502908706665,-0.009193658828735352,2,-0.002005507738478379,0.3072530325184074,0.05525940001505464,0.9500199094601232,0.5840146541595459,-0.03014669194817543,-0.8111830949783325,22.57539367675781,-34.63894271850586,-28.20147705078125,2,103105.034691875,2,0,1582550217.193189,0,0,0,0,0,0,0,0,0,103102.475174,0,0.2642212,99.09419
1582550217.35406,33,0,1582550216.935356,41.20732995451319,29.07232162814989,161.337,-1,-1,21.01150894165039,65,-9999,103105.193870875,0.5510101318359375,-0.03131103515625,-0.8201446533203125,103105.188804875,0.1065410761770727,0.6239603739684335,0.03015590680639853,-0.004018656443804502,-0.002451658248901367,0.005337823182344437,-0.03314065933227539,-0.0003046989440917969,-0.008610248565673828,2,-0.002012269616454232,0.307237645116599,0.05529065543394351,0.950023054261713,0.5839881896972656,-0.03015133738517761,-0.8112019896507263,22.57539367675781,-34.63894271850586,-28.20147705078125,2,103105.034691875,2,0,1582550217.193189,0,0,0,0,0,0,0,0,0,103102.475174,0,0.2642212,99.09419
1582550217.363953,34,0,1582550216.935356,41.20732995451319,29.07232162814989,161.337,-1,-1,21.01150894165039,65,-9999,103105.203911875,0.5504608154296875,-0.0307769775390625,-0.8214874267578125,103105.198875875,0.1066049790352575,0.6239561329747051,0.03015680320071942,-0.00396345928311348,0.0008351318538188934,0.004553560633212328,-0.03312182426452637,-0.001234561204910278,-0.008561968803405762,2,-0.002021539706575565,0.307235563101856,0.05532114618819028,0.9500220329515451,0.5839847922325134,-0.03015223331749439,-0.8112044334411621,22.52537536621094,-34.60965728759766,-28.17327880859375,2,103105.034691875,2,0,1582550217.193189,0,0,0,0,0,0,0,0,0,103102.475174,0,0.2642212,99.09419
1582550217.373927,35,0,1582550216.935356,41.20732995451319,29.07232162814989,161.337,-1,-1,21.01150894165039,65,-9999,103105.213951875,0.5531005859375,-0.0320587158203125,-0.81982421875,103105.208916875,0.1066478186921301,0.6239913008234972,0.03016578309724366,-0.0005916310474276543,0.00490444153547287,0.004728264641016722,-0.03351640701293945,-0.0005237162113189697,-0.0103985071182251,2,-0.002024827347541475,0.3072524413518473,0.05534283456489403,0.9500152636417691,0.5840131640434265,-0.03016120754182339,-0.8111836910247803,22.52537536621094,-34.60965728759766,-28.17327880859375,2,103105.034691875,2,0,1582550217.193189,0,0,0,0,0,0,0,0,0,103102.475174,0,0.2642212,99.09419
1582550217.40429,36,0,1582550216.935356,41.20732995451319,29.07232162814989,161.337,-1,-1,21.01150894165039,65,-9999,103105.223991875,0.5594024658203125,-0.032012939453125,-0.819122314453125,103105.218956875,0.106674240973294,0.6240230057964032,0.03015564224078679,-0.003158279694616795,0.004769559949636459,0.001520946156233549,-0.03178751468658447,-0.001464635133743286,-0.008967161178588867,2,-0.002034584105960802,0.3072672453592692,0.05535380393553652,0.9500097965838493,0.584039032459259,-0.03015107288956642,-0.8111653923988342,22.34719848632812,-34.55914306640625,-28.14263916015625,2,103105.034691875,2,0,1582550217.193189,0,0,0,0,0,0,0,0,0,103102.475174,0,0.2642212,99.09419
1582550217.405578,37,0,1582550216.935356,41.20732995451319,29.07232162814989,161.337,-1,-1,21.01150894165039,65,-9999,103105.234032875,0.566650390625,-0.029327392578125,-0.81719970703125,103105.228996875,0.10669282579494,0.6239892967826408,0.03015245706034318,-0.001689812750555575,-0.001357307657599449,0.0008269264362752438,-0.02606868743896484,-0.00223076343536377,-0.008123457431793213,2,-0.002038020919496036,0.3072511475333394,0.05536218066943321,0.9500144800031755,0.5840117335319519,-0.03014788776636124,-0.8111851811408997,22.34719848632812,-34.55914306640625,-28.14263916015625,2,103105.034691875,2,0,1582550217.193189,0,0,0,0,0,0,0,0,0,103102.475174,0,0.2642212,99.09419
1582550217.406774,38,0,1582550216.935356,41.20732995451319,29.07232162814989,161.337,-1,-1,21.01150894165039,65,-9999,103105.244072875,0.5666046142578125,-0.030242919921875,-0.816436767578125,103105.239036875,0.1066966934576256,0.6238746433079065,0.03014225640628222,-0.0009287189459428191,-0.009508403018116951,-0.0005796430632472038,-0.01859056949615479,0.0003682971000671387,-0.006576180458068848,2,-0.002040288485373076,0.3071964411367198,0.05536257443063552,0.9500321665537392,0.5839189291000366,-0.03013769164681435,-0.8112523555755615,22.47674560546875,-34.58462142944336,-28.01190185546875,2,103105.034691875,2,0,1582550217.193189,0,0,0,0,0,0,0,0,0,103102.475174,0,0.2642212,99.09419
1582550217.414126,39,0,1582550216.935356,41.20732995451319,29.07232162814989,161.337,-1,-1,21.01150894165039,65,-9999,103105.254112875,0.5584259033203125,-0.032623291015625,-0.818328857421875,103105.249077875,0.1066799045249942,0.6236965728821967,0.03011682399667859,-0.001156685524620116,-0.01750081591308117,-0.003132282989099622,-0.01621878147125244,0.0003581643104553223,-0.004884600639343262,2,-0.002044867675956935,0.307111277148557,0.05535089325117765,0.9500604008963767,0.5837749242782593,-0.03011227212846279,-0.8113569617271423,22.46182250976562,-34.74652099609375,-27.9306640625,2,103105.034691875,2,0,1582550217.193189,0,0,0,0,0,0,0,0,0,103102.475174,0,0.2642212,99.09419
1582550217.42413,40,0,1582550216.935356,41.20732995451319,29.07232162814989,161.337,-1,-1,21.01150894165039,65,-9999,103105.264152875,0.5494384765625,-0.0322723388671875,-0.8193206787109375,103105.259117875,0.1066392226602081,0.6235278884706679,0.03007849850223179,-0.0004160951357334852,-0.01544519513845444,-0.006452635396271944,-0.02348309755325317,-0.002243638038635254,-0.006524741649627686,2,-0.002052168941473476,0.3070302984160543,0.05532588442985809,0.9500880370768364,0.5836387276649475,-0.03007396310567856,-0.8114563822746277,22.46182250976562,-34.74652099609375,-27.9306640625,2,103105.034691875,2,0,1582550217.193189,0,0,0,0,0,0,0,0,0,103102.475174,0,0.2642212,99.09419
1582550217.434777,41,0,1582550216.935356,41.20732995451319,29.07232162814989,161.337,-1,-1,21.01150894165039,65,-9999,103105.274223875,0.5420684814453125,-0.03033447265625,-0.8191680908203125,103105.269157875,0.1065908031216028,0.6233849046669852,0.03004408353041543,0.0008510368643328547,-0.01329123042523861,-0.006824412848800421,-0.03249239921569824,-0.002583205699920654,-0.007584869861602783,2,-0.002057139054164187,0.30696162656474,0.05529777240751671,0.9501118681484995,0.5835232734680176,-0.03003956377506256,-0.8115406632423401,22.23381042480469,-34.65206146240234,-28.11151123046875,2,103105.034691875,2,0,1582550217.193189,0,0,0,0,0,0,0,0,0,103102.475174,0,0.2642212,99.09419
1582550217.462814,42,0,1582550216.935356,41.20732995451319,29.07232162814989,161.337,-1,-1,21.01150894165039,65,-9999,103105.284263875,0.5377349853515625,-0.029510498046875,-0.820556640625,103105.279198875,0.1065863837818924,0.6232963491563498,0.03002898939509469,-0.001209218171425164,-0.007472066208720207,-0.0005929977633059025,-0.03982138633728027,-0.0008435547351837158,-0.007563352584838867,2,-0.002061187231364475,0.3069192174631289,0.05529345985772943,0.950125796529574,0.5834516882896423,-0.03002447634935379,-0.811592698097229,22.23381042480469,-34.65206146240234,-28.11151123046875,2,103105.034691875,2,0,1582550217.193189,0,0,0,0,0,0,0,0,0,103102.475174,0,0.2642212,99.09419
1582550217.464322,43,0,1582550216.935356,41.20732995451319,29.07232162814989,161.337,-1,-1,21.01150894165039,65,-9999,103105.294304875,0.537994384765625,-0.0298919677734375,-0.8217315673828125,103105.289238875,0.1065907377352676,0.62329401882782,0.0300272107988562,-0.0004403635393828154,0.002153396606445312,-0.000262766145169735,-0.04534316062927246,0.0003143548965454102,-0.008660554885864258,2,-0.002062636011740088,0.3069180625411068,0.05529525855902634,0.9501260718517712,0.5834498405456543,-0.03002269938588142,-0.8115940690040588,22.32194519042969,-34.69090270996094,-28.1514892578125,2,103105.034691875,2,0,1582550217.193189,0,0,0,0,0,0,0,0,0,103102.475174,0,0.2642212,99.09419
1582550217.465939,44,0,1582550216.935356,41.20732995451319,29.07232162814989,161.337,-1,-1,21.01150894165039,65,-9999,103105.304344875,0.5449066162109375,-0.0324859619140625,-0.8217010498046875,103105.299278875,0.1065979651673844,0.6233720918651541,0.03004015636428407,0.001169641851447523,0.0100045632570982,0.001626938115805387,-0.04610824584960938,0.0003273189067840576,-0.009850859642028809,2,-0.002059750218975004,0.3069554391076129,0.05530058762592305,0.9501137093264425,0.5835129618644714,-0.03003563918173313,-0.8115482330322266,22.32194519042969,-34.69090270996094,-28.1514892578125,2,103105.034691875,2,0,1582550217.193189,0,0,0,0,0,0,0,0,0,103102.475174,0,0.2642212,99.09419
1582550217.474395,45,0,1582550216.935356,41.20732995451319,29.07232162814989,161.337,-1,-1,21.01150894165039,65,-9999,103105.314384875,0.5568695068359375,-0.033294677734375,-0.819610595703125,103105.309318875,0.106617695025638,0.623452996647717,0.0300195102978564,-0.003613928100094199,0.009524928405880928,-0.0003081150352954865,-0.04046761989593506,-0.002027958631515503,-0.01058423519134521,2,-0.002074832349895167,0.3069934031800762,0.05530672923827118,0.950100941833845,0.5835789442062378,-0.03001500107347965,-0.8115015029907227,22.21736145019531,-34.61025238037109,-28.115478515625,2,103105.034691875,2,0,1582550217.193189,0,0,0,0,0,0,0,0,0,103102.475174,0,0.2642212,99.09419
1582550217.488061,46,0,1582550216.935356,41.20732995451319,29.07232162814989,161.337,-1,-1,21.01150894165039,65,-9999,103105.324425875,0.567626953125,-0.0310821533203125,-0.8162689208984375,103105.319389875,0.1066615246930483,0.6234604096010508,0.03000833894642278,-0.003509942907840014,0.002089656889438629,0.003328310791403055,-0.0293501615524292,-0.003351360559463501,-0.008680939674377441,2,-0.002087074218938001,0.3069966171514844,0.05532583560525095,0.9500987823445529,0.5835851430892944,-0.03000383451581001,-0.8114974498748779,22.21736145019531,-34.61025238037109,-28.115478515625,2,103105.034691875,2,0,1582550217.193189,0,0,0,0,0,0,0,0,0,103102.475174,0,0.2642212,99.09419
1582550217.494391,47,0,1582550216.935356,41.20732995451319,29.07232162814989,161.337,-1,-1,21.01150894165039,65,-9999,103105.334465875,0.570709228515625,-0.031494140625,-0.8171234130859375,103105.329429875,0.1067184331895604,0.6233431496517317,0.03000576957598772,-0.003186901565641165,-0.01109139248728752,0.004431392531841993,-0.01736843585968018,-0.00138556957244873,-0.005164027214050293,2,-0.002093785732244058,0.3069407955619099,0.05535260076619852,0.9501152357795619,0.5834900736808777,-0.03000126779079437,-0.8115659356117249,22.22550964355469,-34.67576599121094,-28.204345703125,2,103105.034691875,2,0,1582550217.193189,0,0,0,0,0,0,0,0,0,103102.475174,0,0.2642212,99.09419
1582550217.52359,48,0,1582550216.935356,41.20732995451319,29.07232162814989,161.337,-1,-1,21.01150894165039,65,-9999,103105.344505875,0.5646209716796875,-0.0344085693359375,-0.8195953369140625,103105.339470875,0.1068012546614335,0.623153059451926,0.02997778213036743,-0.007097361143678427,-0.01757675781846046,0.005534862168133259,-0.01251494884490967,-0.001001536846160889,-0.004976093769073486,2,-0.002114533365654425,0.306849748565333,0.05538787118186,0.9501425784901181,0.5833362340927124,-0.02997329272329807,-0.8116775155067444,22.22550964355469,-34.67576599121094,-28.204345703125,2,103105.034691875,2,0,1582550217.193189,0,0,0,0,0,0,0,0,0,103102.475174,0,0.2642212,99.09419
1582550217.524974,49,0,1582550216.935356,41.20732995451319,29.07232162814989,161.337,-1,-1,21.01150894165039,65,-9999,103105.354545875,0.5572509765625,-0.0324859619140625,-0.8214874267578125,103105.349510875,0.1068516872977142,0.6229521713503302,0.02991133424968202,-0.009497135877609253,-0.0196409747004509,0.0002029477618634701,-0.01679348945617676,-0.004257023334503174,-0.007207274436950684,2,-0.002148292444443284,0.3067527392468139,0.05540190606903994,0.9501729319773291,0.5831743478775024,-0.0299068745225668,-0.8117963075637817,22.47378540039062,-34.61155700683594,-28.02850341796875,2,103105.034691875,2,0,1582550217.193189,0,0,0,0,0,0,0,0,0,103102.475174,0,0.2642212,99.09419
1582550217.52607,50,0,1582550216.935356,41.20732995451319,29.07232162814989,161.337,-1,-1,21.01150894165039,65,-9999,103105.364586875,0.5484771728515625,-0.0340423583984375,-0.8224029541015625,103105.359550875,0.106870845998078,0.622807961057442,0.02981977433793936,-0.009057345800101757,-0.01331529207527637,-0.003302376950159669,-0.02452099323272705,-0.003432989120483398,-0.009516596794128418,2,-0.002190758257302139,0.3066820908166717,0.0553971933769109,0.9501959006217645,0.5830588340759277,-0.02981535531580448,-0.8118826150894165,22.47378540039062,-34.61155700683594,-28.02850341796875,2,103105.034691875,2,0,1582550217.193189,0,0,0,0,0,0,0,0,0,103102.475174,0,0.2642212,99.09419
1582550217.534652,51,0,1582550216.935356,41.20732995451319,29.07232162814989,161.337,-1,-1,21.01150894165039,65,-9999,103105.374626875,0.5355987548828125,-0.03369140625,-0.8233489990234375,103105.369591875,0.106868966931944,0.6227762806645133,0.02968567173323131,-0.01033007074147463,-0.001232797279953957,-0.007503246888518333,-0.03220319747924805,-0.00339922308921814,-0.01025772094726562,2,-0.002253333822459042,0.3066639112488454,0.05537586861262644,0.9502029784087491,0.5830354690551758,-0.02968131192028522,-0.8119043111801147,22.57830810546875,-34.580078125,-28.11773681640625,2,103105.355308875,1,2,1582550217.513805,0,0,0,0,0,0,0,0,0,103102.475174,0,0.2642212,99.09419
1582550217.544797,52,0,1582550216.935356,41.20732995451319,29.07232162814989,161.337,-1,-1,21.01150894165039,65,-9999,103105.384666875,0.522369384765625,-0.0354156494140625,-0.82708740234375,103105.379631875,0.1068544161562421,0.622925039777279,0.02951772913193282,-0.011533223092556,0.01627341844141483,-0.01110513135790825,-0.04508316516876221,-0.004803091287612915,-0.01104235649108887,2,-0.002335049785205989,0.3067307152999788,0.05534315764263659,0.9501831222207664,0.5831591486930847,-0.02951344288885593,-0.8118216395378113,22.57830810546875,-34.580078125,-28.11773681640625,2,103105.355308875,1,2,1582550217.513805,0,0,0,0,0,0,0,0,0,103102.475174,0,0.2642212,99.09419
1582550217.554695,53,0,1582550216.935356,41.20732995451319,29.07232162814989,161.337,-1,-1,21.01150894165039,65,-9999,103105.394737875,0.5182037353515625,-0.035491943359375,-0.827392578125,103105.389671875,0.1069211105454541,0.623344779813242,0.02931544036998943,-0.02224951796233654,0.04278331995010376,-0.005796919111162424,-0.05845850706100464,-0.005066275596618652,-0.01479196548461914,2,-0.002453051392730971,0.3069253829731899,0.05534346305894661,0.9501198336667933,0.5835033059120178,-0.02931124158203602,-0.8115816116333008,22.74586486816406,-34.49396514892578,-27.926513671875,2,103105.355308875,1,2,1582550217.513805,0,0,0,0,0,0,0,0,0,103102.475174,0,0.2642212,99.09419
1582550217.580996,54,0,1582550216.935356,41.20732995451319,29.07232162814989,161.337,-1,-1,21.01150894165039,65,-9999,103105.404777875,0.525115966796875,-0.0258331298828125,-0.82379150390625,103105.399711875,0.1069767635980934,0.6240085686014306,0.0291312015902857,-0.01553704403340816,0.06718290597200394,-0.007790119852870703,-0.06664490699768066,-0.008149623870849609,-0.01647210121154785,2,-0.002567527530600161,0.3072363582012014,0.05534091494531068,0.9500191847930033,0.5840450525283813,-0.02912708185613155,-0.8111984729766846,22.74586486816406,-34.49396514892578,-27.926513671875,2,103105.355308875,1,2,1582550217.513805,0,0,0,0,0,0,0,0,0,103102.475174,0,0.2642212,99.09419
1582550217.582459,55,0,1582550216.935356,41.20732995451319,29.07232162814989,161.337,-1,-1,21.01150894165039,65,-9999,103105.414818875,0.5294647216796875,-0.0294647216796875,-0.8231201171875,103105.409752875,0.1070471919151019,0.6248438921663134,0.02894177683809419,-0.01891286671161652,0.08470464497804642,-0.004980751313269138,-0.06056594848632812,0.002235382795333862,-0.01370561122894287,2,-0.002691484153836438,0.3076286163830763,0.05534428847406631,0.949891746712338,0.5847256779670715,-0.02893773652613163,-0.8107147812843323,22.44671630859375,-34.55060958862305,-28.12274169921875,2,103105.355308875,1,2,1582550217.513805,0,0,0,0,0,0,0,0,0,103102.475174,0,0.2642212,99.09419
1582550217.584751,56,0,1582550216.935356,41.20732995451319,29.07232162814989,161.337,-1,-1,21.01150894165039,65,-9999,103105.424858875,0.5408477783203125,-0.02935791015625,-0.8199005126953125,103105.419792875,0.1071119453180942,0.6257961102878237,0.02873990528903919,-0.0217882227152586,0.09559322893619537,-0.006145637948065996,-0.05726706981658936,-1.111626625061035e-05,-0.01303744316101074,2,-0.002823721909016058,0.3080760687958184,0.05534280594867647,0.9497463538328317,0.5855007767677307,-0.02873594872653484,-0.8101623058319092,22.44671630859375,-34.55060958862305,-28.12274169921875,2,103105.355308875,1,2,1582550217.513805,0,0,0,0,0,0,0,0,0,103102.475174,0,0.2642212,99.09419
1582550217.5949,57,0,1582550216.935356,41.20732995451319,29.07232162814989,161.337,-1,-1,21.01150894165039,65,-9999,103105.434898875,0.54608154296875,-0.030181884765625,-0.8192138671875,103105.429832875,0.10712671539381,0.6268604233218147,0.02853831421133021,-0.01676283776760101,0.1077923774719238,-0.01057394221425056,-0.04830551147460938,-0.001357048749923706,-0.01077234745025635,2,-0.002951209850754061,0.3085767079902331,0.05531734721789405,0.9495849976208972,0.5863661170005798,-0.02853444032371044,-0.8095434308052063,22.53486633300781,-34.70579528808594,-28.06109619140625,2,103105.355308875,1,2,1582550217.513805,0,0,0,0,0,0,0,0,0,103102.475174,0,0.2642212,99.09419
1582550217.604841,58,0,1582550216.935356,41.20732995451319,29.07232162814989,161.337,-1,-1,21.01150894165039,65,-9999,103105.444938875,0.5420684814453125,-0.031829833984375,-0.821380615234375,103105.439903875,0.1070978899870929,0.6280843819058674,0.02829543628693382,-0.01993097178637981,0.1243998259305954,-0.0175658967345953,-0.04063296318054199,-0.001264125108718872,-0.01060009002685547,2,-0.003095958567568696,0.3091521771973824,0.05526448105019088,0.9494003899385959,0.5873605608940125,-0.02829166129231453,-0.8088306784629822,22.53486633300781,-34.70579528808594,-28.06109619140625,2,103105.355308875,1,2,1582550217.513805,0,0,0,0,0,0,0,0,0,103102.475174,0,0.2642212,99.09419
1582550217.614922,59,0,1582550216.935356,41.20732995451319,29.07232162814989,161.337,-1,-1,21.01150894165039,65,-9999,103105.454979875,0.543060302734375,-0.031036376953125,-0.8223419189453125,103105.449943875,0.1070336879051581,0.6294626138115712,0.0280328595790844,-0.02091341279447079,0.137429341673851,-0.02128766477108002,-0.04631388187408447,-0.004013776779174805,-0.01314389705657959,2,-0.003248775143526644,0.3098003444012803,0.05519137878155445,0.9491928305198712,0.5884791612625122,-0.0280291885137558,-0.8080263733863831,22.71308898925781,-34.44357299804688,-28.03765869140625,2,103105.355308875,1,2,1582550217.513805,0,0,0,0,0,0,0,0,0,103102.475174,0,0.2642212,99.09419
1582550217.642589,60,0,1582550216.935356,41.20732995451319,29.07232162814989,161.337,-1,-1,21.01150894165039,65,-9999,103105.465019875,0.548583984375,-0.028594970703125,-0.8172454833984375,103105.459984875,0.1068907194638753,0.630973500295872,0.02775800221231309,-0.0117321964353323,0.1521559208631516,-0.02892742678523064,-0.0475081205368042,-0.003830790519714355,-0.01495862007141113,2,-0.003398750401889278,0.3105111730092401,0.05507859538771109,0.948966536481668,0.5897037982940674,-0.02775443717837334,-0.8071424961090088,22.71308898925781,-34.44357299804688,-28.03765869140625,2,103105.355308875,1,2,1582550217.513805,0,0,0,0,0,0,0,0,0,103102.475174,0,0.2642212,99.09419
1582550217.643253,61,0,1582550216.935356,41.20732995451319,29.07232162814989,161.337,-1,-1,21.01150894165039,65,-9999,103105.475059875,0.5498504638671875,-0.0306243896484375,-0.818206787109375,103105.470024875,0.1067018783642533,0.6325838853400553,0.02744009387746451,-0.01265551429241896,0.162353441119194,-0.03449529781937599,-0.0428309440612793,-0.001020520925521851,-0.01207220554351807,2,-0.003564581342554274,0.3112681061859223,0.05493700317046357,0.9487261979536488,0.5910080671310425,-0.02743665128946304,-0.8061988949775696,22.69775390625,-34.47096252441406,-28.00177001953125,2,103105.355308875,1,2,1582550217.513805,0,0,0,0,0,0,0,0,0,103102.475174,0,0.2642212,99.09419
1582550217.644903,62,0,1582550216.935356,41.20732995451319,29.07232162814989,161.337,-1,-1,21.01150894165039,65,-9999,103105.485100875,0.5511627197265625,-0.0308074951171875,-0.817108154296875,103105.480064875,0.1064877107015171,0.6343179285275128,0.02709285414968429,-0.01489531062543392,0.1735968142747879,-0.0378267839550972,-0.04321134090423584,-0.003351271152496338,-0.01214462518692017,2,-0.003743542882382517,0.3120829016638755,0.05477838274111629,0.9484669579401541,0.5924107432365417,-0.02708953991532326,-0.8051804900169373,22.69775390625,-34.47096252441406,-28.00177001953125,2,103105.355308875,1,2,1582550217.513805,0,0,0,0,0,0,0,0,0,103102.475174,0,0.2642212,99.09419
1582550217.655004,63,0,1582550216.935356,41.20732995451319,29.07232162814989,161.337,-1,-1,21.01150894165039,65,-9999,103105.495140875,0.5528106689453125,-0.0264129638671875,-0.8154144287109375,103105.490105875,0.1062410170804786,0.6361580965689791,0.02670817828605277,-0.01554698683321476,0.1829074919223785,-0.04216107726097107,-0.04262292385101318,-0.004117310047149658,-0.01363980770111084,2,-0.003937799448472196,0.3129470193386936,0.05459802963976418,0.9481917819809016,0.5938975811004639,-0.02670500241219997,-0.8040972948074341,22.93359375,-34.41989898681641,-27.7821044921875,2,103105.355308875,1,2,1582550217.513805,0,0,0,0,0,0,0,0,0,103102.475174,0,0.2642212,99.09419
1582550217.665396,64,0,1582550216.935356,41.20732995451319,29.07232162814989,161.337,-1,-1,21.01150894165039,65,-9999,103105.505180875,0.549957275390625,-0.029571533203125,-0.815948486328125,103105.500145875,0.1059837690552208,0.6381531639568824,0.02630100147416723,-0.01897729560732841,0.1990089416503906,-0.0443844199180603,-0.04333233833312988,-0.001106381416320801,-0.01248311996459961,2,-0.004144954904738263,0.3138838298494848,0.05440852026439402,0.9478921109900069,0.595507025718689,-0.02629796974360943,-0.8029195070266724,22.93359375,-34.41989898681641,-27.7821044921875,2,103105.355308875,1,2,1582550217.513805,0,0,0,0,0,0,0,0,0,103102.475174,0,0.2642212,99.09419
1582550217.675022,65,0,1582550216.935356,41.20732995451319,29.07232162814989,161.337,-1,-1,21.01150894165039,65,-9999,103105.515251875,0.544769287109375,-0.030792236328125,-0.813232421875,103105.510185875,0.105711723719459,0.6403185813538288,0.02586162936834317,-0.0197962187230587,0.2151269316673279,-0.04896452277898788,-0.04617524147033691,-0.002445816993713379,-0.01461988687515259,2,-0.004369289538119464,0.3149004036703767,0.05420622126396107,0.947565409715744,0.5972511172294617,-0.02585874684154987,-0.8016372919082642,22.80079650878906,-34.27560043334961,-27.778564453125,2,103105.355308875,1,2,1582550217.513805,0,0,0,0,0,0,0,0,0,103102.475174,0,0.2642212,99.09419
1582550217.687884,66,0,1582550216.935356,41.20732995451319,29.07232162814989,161.337,-1,-1,21.01150894165039,65,-9999,103105.525291875,0.5420989990234375,-0.025299072265625,-0.81268310546875,103105.520225875,0.105423342565863,0.6426494856351108,0.02540391120727891,-0.01975839585065842,0.2327724546194077,-0.04984959959983826,-0.0532371997833252,-0.00618407130241394,-0.01341080665588379,2,-0.004603769955043108,0.3159946430643094,0.05399248650736516,0.9472122014157267,0.5991250872612,-0.02540117874741554,-0.800252377986908,22.80079650878906,-34.27560043334961,-27.778564453125,2,103105.355308875,1,2,1582550217.513805,0,0,0,0,0,0,0,0,0,103102.475174,0,0.2642212,99.09419
1582550217.695243,67,0,1582550216.935356,41.20732995451319,29.07232162814989,161.337,-1,-1,21.01150894165039,65,-9999,103105.535332875,0.54150390625,-0.028228759765625,-0.8128814697265625,103105.530266875,0.1051429300200678,0.6451805854239751,0.02494538877789514,-0.02014934830367565,0.253880649805069,-0.04949433356523514,-0.05859404802322388,-0.0008440911769866943,-0.01437127590179443,2,-0.004844787919115329,0.317183262530795,0.05378143365495769,0.9468257035412674,0.6011556386947632,-0.02494280226528645,-0.7987425923347473,22.76112365722656,-34.38276672363281,-27.54925537109375,2,103105.355308875,1,2,1582550217.513805,0,0,0,0,0,0,0,0,0,103102.475174,0,0.2642212,99.09419
1582550217.705218,68,0,1582550216.935356,41.20732995451319,29.07232162814989,161.337,-1,-1,21.01150894165039,65,-9999,103105.545372875,0.543914794921875,-0.032745361328125,-0.8184814453125,103105.540306875,0.1049086820933801,0.6478690585750018,0.024480279203367,-0.02162411063909531,0.2710946500301361,-0.04713590443134308,-0.06202799081802368,-0.003079116344451904,-0.01558446884155273,2,-0.005099967784775061,0.3184456658666772,0.05359025523893407,0.9464113563750025,0.6033077836036682,-0.02447783388197422,-0.797132670879364,22.76112365722656,-34.38276672363281,-27.54925537109375,2,103105.355308875,1,2,1582550217.513805,0,0,0,0,0,0,0,0,0,103102.475174,0,0.2642212,99.09419
1582550217.715198,69,0,1582550216.935356,41.20732995451319,29.07232162814989,161.337,-1,-1,21.01150894165039,65,-9999,103105.555412875,0.529541015625,-0.0272674560546875,-0.806671142578125,103105.550346875,0.1048047583824483,0.650863949274055,0.0240150308352792,-0.03455482423305511,0.3185977339744568,-0.0328696183860302,-0.06385505199432373,-0.005680471658706665,-0.01903390884399414,2,-0.005383734950737046,0.3198521476725956,0.05345928201457367,0.9459427194822251,0.6056992411613464,-0.0240127220749855,-0.7953312397003174,23.38569641113281,-34.32504272460938,-27.51055908203125,2,103105.355308875,1,2,1582550217.513805,0,0,0,0,0,0,0,0,0,103102.475174,0,0.2642212,99.09419
1582550217.725233,70,0,1582550216.935356,41.20732995451319,29.07232162814989,161.337,-1,-1,21.01150894165039,65,-9999,103105.565452875,0.55584716796875,-0.0083160400390625,-0.8000030517578125,103105.560386875,0.1045765894787801,0.6540712950956932,0.02353768192080436,-0.03499922528862953,0.3288412094116211,-0.05107665061950684,-0.07432907819747925,-0.00891953706741333,-0.02118539810180664,2,-0.005658541217233221,0.3213584252819137,0.05326629740987787,0.9454414063166809,0.6082539558410645,-0.02353550866246223,-0.7933934926986694,23.38569641113281,-34.32504272460938,-27.51055908203125,2,103105.355308875,1,2,1582550217.513805,0,0,0,0,0,0,0,0,0,103102.475174,0,0.2642212,99.09419
1582550217.735423,71,0,1582550216.935356,41.20732995451319,29.07232162814989,161.337,-1,-1,21.01150894165039,65,-9999,103105.575493875,0.5565032958984375,-0.029052734375,-0.805633544921875,103105.570457875,0.1042548737321176,0.6575397300844172,0.02309484105444583,-0.01936087571084499,0.3478687107563019,-0.05388921499252319,-0.06182479858398438,0.01387688517570496,-0.006095051765441895,2,-0.005908256252703026,0.3229883723074886,0.05303314795789604,0.9448974206726833,0.6110084056854248,-0.02309278771281242,-0.7912871837615967,23.644287109375,-34.27745819091797,-27.5146484375,2,103105.355308875,1,2,1582550217.513805,0,0,0,0,0,0,0,0,0,103102.475174,0,0.2642212,99.09419
1582550217.746118,72,0,1582550216.935356,41.20732995451319,29.07232162814989,161.337,-1,-1,21.01150894165039,65,-9999,103105.585533875,0.5591278076171875,-0.0289154052734375,-0.8021697998046875,103105.580498875,0.104020718646395,0.6612334448598369,0.02261292194407879,-0.0223716963082552,0.371202141046524,-0.04820558801293373,-0.05541181564331055,-0.001680582761764526,-0.01762598752975464,2,-0.006195805364407253,0.3247226598460878,0.05283361414524079,0.9443121524991575,0.613933801651001,-0.0226109940558672,-0.7890335917472839,23.644287109375,-34.27745819091797,-27.5146484375,2,103105.355308875,1,2,1582550217.513805,0,0,0,0,0,0,0,0,0,103102.475174,0,0.2642212,99.09419
1582550217.755468,73,0,1582550216.935356,41.20732995451319,29.07232162814989,161.337,-1,-1,21.01150894165039,65,-9999,103105.595573875,0.5609893798828125,-0.016937255859375,-0.7993621826171875,103105.590538875,0.1037901175438756,0.6651332455945033,0.02215040654966916,-0.02070961706340313,0.3883896470069885,-0.04621913656592369,-0.06012356281280518,-0.009726613759994507,-0.01580679416656494,2,-0.006479485031631649,0.3265535978905091,0.05263736243228373,0.9436895703991426,0.6170125603675842,-0.02214859612286091,-0.786641538143158,23.72352600097656,-34.20870971679688,-27.12335205078125,2,103105.355308875,1,2,1582550217.513805,0,0,0,0,0,0,0,0,0,103102.475174,0,0.2642212,99.09419
1582550217.765391,74,0,1582550216.935356,41.20732995451319,29.07232162814989,161.337,-1,-1,21.01150894165039,65,-9999,103105.605614875,0.55010986328125,-0.026702880859375,-0.8030242919921875,103105.600578875,0.1035195651521957,0.6693443664658145,0.02167733396581559,-0.0194129217416048,0.4202578663825989,-0.05154162645339966,-0.05817294120788574,0.004128426313400269,-0.01555055379867554,2,-0.006769002076515818,0.3285300473100735,0.05241857935219774,0.9430134811696491,0.6203261613845825,-0.02167563699185848,-0.7840443849563599,23.72352600097656,-34.20870971679688,-27.12335205078125,2,103105.355308875,1,2,1582550217.513805,0,0,0,0,0,0,0,0,0,103102.475174,0,0.2642212,99.09419
1582550217.775486,75,0,1582550216.935356,41.20732995451319,29.07232162814989,161.337,-1,-1,21.01150894165039,65,-9999,103105.615654875,0.5470123291015625,-0.0305633544921875,-0.80145263671875,103105.610618875,0.1032402234074713,0.6739710251198577,0.02111328413476824,-0.02715952321887016,0.4626647233963013,-0.05654171109199524,-0.07164323329925537,-0.002935737371444702,-0.02098309993743896,2,-0.007109899096873845,0.3306988911350394,0.05217820154136649,0.9422659199626314,0.6239545345306396,-0.02111171558499336,-0.7811753749847412,23.92991638183594,-34.17042541503906,-27.0986328125,2,103105.355308875,1,2,1582550217.513805,0,0,0,0,0,0,0,0,0,103102.475174,0,0.2642212,99.09419
1582550217.785617,76,0,1582550216.935356,41.20732995451319,29.07232162814989,161.337,-1,-1,21.01150894165039,65,-9999,103105.625694875,0.5635528564453125,-0.022674560546875,-0.795623779296875,103105.620659875,0.1028594166182115,0.6789786774993882,0.02047890696084566,-0.0252369549125433,0.501781165599823,-0.0689471960067749,-0.08167439699172974,-0.01077216863632202,-0.02436661720275879,2,-0.007475835503869821,0.3330442119911938,0.05187566133364702,0.9414534287957388,0.6278668642044067,-0.02047747559845448,-0.7780513167381287,23.92991638183594,-34.17042541503906,-27.0986328125,2,103105.355308875,1,2,1582550217.513805,0,0,0,0,0,0,0,0,0,103102.475174,0,0.2642212,99.09419
1582550217.795552,77,0,1582550216.935356,41.20732995451319,29.07232162814989,161.337,-1,-1,21.01150894165039,65,-9999,103105.635765875,0.582061767578125,-0.0253753662109375,-0.789093017578125,103105.630699875,0.1023730860840894,0.6842222926948658,0.01977693175294866,-0.02553016878664494,0.5244398713111877,-0.08171012997627258,-0.07247936725616455,-0.004042953252792358,-0.02224183082580566,2,-0.007860492489137672,0.3354974923856482,0.05150974974424827,0.9405989003180759,0.6319469213485718,-0.01977564208209515,-0.7747592926025391,24.28660583496094,-34.04383087158203,-26.92822265625,2,103105.355308875,1,2,1582550217.513805,0,0,0,0,0,0,0,0,0,103102.475174,0,0.2642212,99.09419
1582550217.806191,78,0,1582550216.935356,41.20732995451319,29.07232162814989,161.337,-1,-1,21.01150894165039,65,-9999,103105.645805875,0.59246826171875,-0.023529052734375,-0.7825469970703125,103105.640739875,0.1017822694988306,0.6896170563509986,0.01903135017961331,-0.01949651166796684,0.5388214588165283,-0.09384562075138092,-0.05718892812728882,-0.005520820617675781,-0.01930356025695801,2,-0.00824998704392324,0.3380191474883956,0.05108509799810462,0.9397154868915732,0.6361265778541565,-0.01903020218014717,-0.7713499665260315,24.28660583496094,-34.04383087158203,-26.92822265625,2,103105.355308875,1,2,1582550217.513805,0,0,0,0,0,0,0,0,0,103102.475174,0,0.2642212,99.09419
1582550217.81563,79,0,1582550216.935356,41.20732995451319,29.07232162814989,161.337,-1,-1,21.01150894165039,65,-9999,103105.655845875,0.598602294921875,-0.01898193359375,-0.7775115966796875,103105.650780875,0.1011395102440864,0.6951253406788533,0.01821947562604199,-0.02123928442597389,0.5493918061256409,-0.1008971408009529,-0.04949009418487549,-0.006119012832641602,-0.0156969428062439,2,-0.008662407973743846,0.3405906193700067,0.0506225675626536,0.9388079894986936,0.6403754353523254,-0.01821846701204777,-0.7678459882736206,24.74363708496094,-33.99713134765625,-26.60986328125,2,103105.355308875,1,2,1582550217.513805,0,0,0,0,0,0,0,0,0,103102.475174,0,0.2642212,99.09419
1582550217.825695,80,0,1582550216.935356,41.20732995451319,29.07232162814989,161.337,-1,-1,21.01150894165039,65,-9999,103105.665886875,0.59979248046875,-0.0177459716796875,-0.7752838134765625,103105.660820875,0.1004262510823156,0.7007306971136815,0.0174084288744995,-0.01671375147998333,0.5596426725387573,-0.106588751077652,-0.04692697525024414,-0.002535402774810791,-0.0140233039855957,2,-0.009062306278027316,0.3432057136149209,0.05012478495810174,0.937878011067298,0.6446786522865295,-0.01740754954516888,-0.7642554044723511,24.74363708496094,-33.99713134765625,-26.60986328125,2,103105.355308875,1,2,1582550217.513805,0,0,0,0,0,0,0,0,0,103102.475174,0,0.2642212,99.09419
1582550217.836304,81,0,1582550216.935356,41.20732995451319,29.07232162814989,161.337,-1,-1,21.01150894165039,65,-9999,103105.675926875,0.593994140625,-0.0187835693359375,-0.77398681640625,103105.670860875,0.09970007576885666,0.7064972254160586,0.01658421593908048,-0.01704265177249908,0.5751044750213623,-0.1089094281196594,-0.04876899719238281,-0.0007197558879852295,-0.01513367891311646,2,-0.009467423969048872,0.3458937078240826,0.04961605354338999,0.93691302797419,0.6490840911865234,-0.01658345572650433,-0.7605358362197876,25.15618896484375,-33.91423034667969,-26.55438232421875,2,103105.355308875,1,2,1582550217.513805,0,0,0,0,0,0,0,0,0,103102.475174,0,0.2642212,99.09419
1582550217.845857,82,0,1582550216.935356,41.20732995451319,29.07232162814989,161.337,-1,-1,21.01150894165039,65,-9999,103105.685966875,0.5948486328125,-0.0142822265625,-0.7704315185546875,103105.680900875,0.09895044242398147,0.7124998205060392,0.01575440449607112,-0.01270104385912418,0.5995197296142578,-0.1103591099381447,-0.05862593650817871,-0.003426223993301392,-0.01776695251464844,2,-0.009874014652825197,0.3486896070088351,0.0490922640460838,0.9358995490182528,0.6536463499069214,-0.01575375348329544,-0.7566361427307129,25.15618896484375,-33.91423034667969,-26.55438232421875,2,103105.355308875,1,2,1582550217.513805,0,0,0,0,0,0,0,0,0,103102.475174,0,0.2642212,99.09419
1582550217.855924,83,0,1582550216.935356,41.20732995451319,29.07232162814989,161.337,-1,-1,21.01150894165039,65,-9999,103105.696007875,0.5955047607421875,-0.01556396484375,-0.7678375244140625,103105.690971875,0.09811650033421017,0.7187790341482089,0.0149034564465059,-0.009596331045031548,0.6264768242835999,-0.1180346012115479,-0.06430351734161377,-0.0002335608005523682,-0.01858055591583252,2,-0.01027933134536971,0.3516119897090606,0.0485219239210069,0.9348310234878809,0.6583931446075439,-0.01490290462970734,-0.7525267004966736,25.61824035644531,-33.90669631958008,-26.1966552734375,2,103105.355308875,1,2,1582550217.513805,0,0,0,0,0,0,0,0,0,103102.475174,0,0.2642212,99.09419
1582550217.866409,84,0,1582550216.935356,41.20732995451319,29.07232162814989,161.337,-1,-1,21.01150894165039,65,-9999,103105.706047875,0.5936737060546875,-0.019317626953125,-0.766632080078125,103105.701011875,0.097227834458534,0.7253784659365164,0.01399836118498878,-0.01113442797213793,0.6611042022705078,-0.1261682510375977,-0.06743329763412476,-0.000741809606552124,-0.02000260353088379,2,-0.01070443760180456,0.3546799761098373,0.04791266518621323,0.9336979024063774,0.6633536815643311,-0.01399790402501822,-0.7481750845909119,26.00753784179688,-33.85838317871094,-26.17730712890625,2,103105.355308875,1,2,1582550217.513805,0,0,0,0,0,0,0,0,0,103102.475174,0,0.2642212,99.09419
1582550217.875977,85,0,1582550216.935356,41.20732995451319,29.07232162814989,161.337,-1,-1,21.01150894165039,65,-9999,103105.716087875,0.598419189453125,-0.01751708984375,-0.76239013671875,103105.711052875,0.0963164718617807,0.7323669380660575,0.01304545057397243,-0.01276135351508856,0.6998175382614136,-0.1327055245637894,-0.0755382776260376,-0.005570381879806519,-0.02307546138763428,2,-0.01115307485775438,0.3579249967441209,0.04727980868543796,0.932485904041817,0.6685746312141418,-0.01304508093744516,-0.7435306310653687,26.00753784179688,-33.85838317871094,-26.17730712890625,2,103105.355308875,1,2,1582550217.513805,0,0,0,0,0,0,0,0,0,103102.475174,0,0.2642212,99.09419
1582550217.886045,86,0,1582550216.935356,41.20732995451319,29.07232162814989,161.337,-1,-1,21.01150894165039,65,-9999,103105.726127875,0.5932464599609375,-0.0113525390625,-0.7575531005859375,103105.721092875,0.09552996701640813,0.7398015232528881,0.01214615115387986,-0.01687156595289707,0.743450403213501,-0.1198360323905945,-0.07577574253082275,-0.006500184535980225,-0.02518963813781738,2,-0.01160543508823403,0.3613742928481374,0.04670960179171019,0.9311777613055044,0.6740915775299072,-0.01214585267007351,-0.7385478615760803,26.52639770507812,-33.60899353027344,-25.83203125,2,103105.355308875,1,2,1582550217.513805,0,0,0,0,0,0,0,0,0,103102.475174,0,0.2642212,99.09419
1582550217.895983,87,0,1582550216.935356,41.20732995451319,29.07232162814989,161.337,-1,-1,21.01150894165039,65,-9999,103105.736168875,0.6012115478515625,-0.0059967041015625,-0.749298095703125,103105.731132875,0.09494813684194056,0.7476351387347636,0.01138528949827583,-0.01254925411194563,0.7789663076400757,-0.09405476599931717,-0.08565133810043335,-0.0007759928703308105,-0.0253136157989502,2,-0.0120358982877263,0.3650061684213664,0.04625463901696508,0.9297774479736951,0.6798624396324158,-0.01138504315167665,-0.7332512736320496,26.52639770507812,-33.60899353027344,-25.83203125,2,103105.355308875,1,2,1582550217.513805,0,0,0,0,0,0,0,0,0,103102.475174,0,0.2642212,99.09419
1582550217.906122,88,0,1582550216.935356,41.20732995451319,29.07232162814989,161.337,-1,-1,21.01150894165039,65,-9999,103105.746208875,0.6090087890625,-0.009735107421875,-0.742828369140625,103105.741173875,0.0945487750908211,0.7558552227236648,0.01065682375779115,-0.02349909767508507,0.8198521137237549,-0.0770656019449234,-0.08732783794403076,0.003637790679931641,-0.02330696582794189,2,-0.01249043763896646,0.3688116715745838,0.04588526152200451,0.9282868474529478,0.6858723163604736,-0.0106566222384572,-0.7276439070701599,26.89996337890625,-33.7133674621582,-25.19140625,2,103105.355308875,1,2,1582550217.513805,0,0,0,0,0,0,0,0,0,103102.475174,0,0.2642212,99.09419
1582550217.91606,89,0,1582550216.935356,41.20732995451319,29.07232162814989,161.337,-1,-1,21.01150894165039,65,-9999,103105.756279875,0.625640869140625,-0.0168304443359375,-0.7358551025390625,103105.751213875,0.09408656798555727,0.7644001853397717,0.009886738639912246,-0.02401388622820377,0.8547014594078064,-0.08537119626998901,-0.08463025093078613,0.002165853977203369,-0.02189499139785767,2,-0.0129571137845535,0.3727612495374331,0.04547395406219135,0.9267217492018756,0.6920703649520874,-0.009886577725410461,-0.7217622995376587,26.89996337890625,-33.7133674621582,-25.19140625,2,103105.355308875,1,2,1582550217.513805,0,0,0,0,0,0,0,0,0,103102.475174,0,0.2642212,99.09419
1582550217.926634,90,0,1582550216.935356,41.20732995451319,29.07232162814989,161.337,-1,-1,21.01150894165039,65,-9999,103105.766319875,0.6366424560546875,-0.0140228271484375,-0.729156494140625,103105.761253875,0.09345186653031233,0.7732777764725569,0.008983440976615286,-0.02476616948843002,0.8905057907104492,-0.1089955866336823,-0.07667320966720581,-0.007343411445617676,-0.02236974239349365,2,-0.01345711781515047,0.3768565046182477,0.04495239428169895,0.9250823453408328,0.6984564661979675,-0.00898332055658102,-0.7155961394309998,27.6552734375,-33.68521118164062,-24.9530029296875,2,103105.355308875,1,2,1582550217.513805,0,0,0,0,0,0,0,0,0,103102.475174,0,0.2642212,99.09419
1582550217.93637,91,0,1582550216.935356,41.20732995451319,29.07232162814989,161.337,-1,-1,21.01150894165039,65,-9999,103105.776359875,0.638885498046875,-0.019195556640625,-0.7279052734375,103105.771293875,0.09261213906825724,0.7824381772621313,0.007955729237525166,-0.01252042222768068,0.9214051365852356,-0.1307482868432999,-0.06936550140380859,-0.006784230470657349,-0.02052146196365356,2,-0.0139774172857321,0.3810741478340974,0.04430696728371508,0.9233763920950733,0.7049883604049683,-0.007955645211040974,-0.7091742753982544,27.6552734375,-33.68521118164062,-24.9530029296875,2,103105.355308875,1,2,1582550217.513805,0,0,0,0,0,0,0,0,0,103102.475174,0,0.2642212,99.09419
1582550217.946215,92,0,1582550216.935356,41.20732995451319,29.07232162814989,161.337,-1,-1,21.01150894165039,65,-9999,103105.786400875,0.6194305419921875,-0.0134429931640625,-0.7129058837890625,103105.781334875,0.09167258226308395,0.79206907229849,0.006817463168251871,-0.01230095140635967,0.9820977449417114,-0.1379264146089554,-0.07499372959136963,-0.009707719087600708,-0.02373701333999634,2,-0.0145340658729578,0.3854995534708403,0.04358699623940454,0.9215633481625549,0.7117915153503418,-0.006817410234361887,-0.7023577094078064,27.99295043945312,-33.26877212524414,-24.544677734375,2,103105.355308875,1,2,1582550217.513805,0,0,0,0,0,0,0,0,0,103102.475174,0,0.2642212,99.09419
1582550217.95634,93,0,1582550216.935356,41.20732995451319,29.07232162814989,161.337,-1,-1,21.01150894165039,65,-9999,103105.796440875,0.6191864013671875,-0.0039520263671875,-0.7125091552734375,103105.791374875,0.09060293912622208,0.802277146634005,0.005457560591274812,-0.02079776674509048,1.030328869819641,-0.1712851673364639,-0.09148597717285156,-0.01225778460502625,-0.02305352687835693,2,-0.01517302409041446,0.3901785130627735,0.04275528982222188,0.9196208070127166,0.7189300060272217,-0.005457533523440361,-0.6950610280036926,27.99295043945312,-33.26877212524414,-24.544677734375,2,103105.355308875,1,2,1582550217.513805,0,0,0,0,0,0,0,0,0,103102.475174,0,0.2642212,99.09419
1582550217.966264,94,0,1582550216.935356,41.20732995451319,29.07232162814989,161.337,-1,-1,21.01150894165039,65,-9999,103105.806480875,0.6106109619140625,-0.0115203857421875,-0.7157440185546875,103105.801414875,0.08929574103479972,0.8132155929247441,0.004023161592231467,-0.001594491885043681,1.0878826379776,-0.195251002907753,-0.11025071144104,2.54213809967041e-05,-0.02370643615722656,2,-0.01580642124120712,0.3951835075658922,0.0417886996802308,0.9175150608311136,0.7264946699142456,-0.004023150540888309,-0.687160313129425,28.6500244140625,-33.08561706542969,-23.960693359375,2,103105.355308875,1,2,1582550217.513805,0,0,0,0,0,0,0,0,0,103102.475174,0,0.2642212,99.09419
1582550217.976304,95,0,1582550216.935356,41.20732995451319,29.07232162814989,161.337,-1,-1,21.01150894165039,65,-9999,103105.816521875,0.608428955078125,-0.0145263671875,-0.7089691162109375,103105.811485875,0.08785933087802127,0.8251972819706932,0.002416442977944563,-0.005260332953184843,1.191367268562317,-0.2142236232757568,-0.1209075450897217,-0.006754010915756226,-0.03697341680526733,2,-0.01650397149748384,0.4006527041713644,0.04071421763688848,0.9151761491839353,0.7346795201301575,-0.002416440518572927,-0.6784100532531738,28.6500244140625,-33.08561706542969,-23.960693359375,2,103105.355308875,1,2,1582550217.513805,0,0,0,0,0,0,0,0,0,103102.475174,0,0.2642212,99.09419
1582550217.987955,96,0,1582550216.935356,41.20732995451319,29.07232162814989,161.337,-1,-1,21.01150894165039,65,-9999,103105.826561875,0.6401824951171875,-0.0135955810546875,-0.6926422119140625,103105.821525875,0.08641262009638717,0.8380244126094453,0.0006208252589371032,-0.01357943564653397,1.286677360534668,-0.2294713705778122,-0.1367228031158447,-0.01448535919189453,-0.04217875003814697,2,-0.01729008463571827,0.406490854338675,0.03958248428738226,0.9126331986078915,0.7433228492736816,-0.0006208252161741257,-0.6689324975013733,29.45834350585938,-32.94365692138672,-23.4078369140625,2,103105.355308875,1,2,1582550217.513805,0,0,0,0,0,0,0,0,0,103103.416197,0,0.2087402,99.09485
1582550217.996474,97,0,1582550216.935356,41.20732995451319,29.07232162814989,161.337,-1,-1,21.01150894165039,65,-9999,103105.836601875,0.6514129638671875,-0.0100860595703125,-0.677398681640625,103105.831566875,0.08507651490859598,0.8515845351381297,-0.001280883418730468,-0.02352500893175602,1.356755971908569,-0.2317363917827606,-0.1191285848617554,-0.01492229104042053,-0.03805303573608398,2,-0.01814753440061934,0.4126439099910262,0.0384641118821894,0.9098989808266117,0.7523245811462402,0.001280883094295859,-0.6587913632392883,29.45834350585938,-32.94365692138672,-23.4078369140625,2,103105.355308875,1,2,1582550217.513805,0,0,0,0,0,0,0,0,0,103103.416197,0,0.2087402,99.09485
1582550218.00655,98,0,1582550216.935356,41.20732995451319,29.07232162814989,161.337,-1,-1,21.01150894165039,65,-9999,103105.846641875,0.671783447265625,0.002838134765625,-0.6563262939453125,103105.841606875,0.08406119961343944,0.86572482375916,-0.003159394683818503,-0.04893136769533157,1.411633133888245,-0.2091847211122513,-0.1104211807250977,-0.01431357860565186,-0.03133398294448853,2,-0.01905813607572238,0.4190396965092015,0.03748073461672707,0.9069937534256006,0.761561393737793,0.003159389365464449,-0.6480850577354431,30.16799926757812,-32.65494155883789,-22.61956787109375,2,103105.355308875,1,2,1582550217.513805,0,0,0,0,0,0,0,0,0,103103.416197,0,0.2087402,99.09485
1582550218.016674,99,0,1582550216.935356,41.20732995451319,29.07232162814989,161.337,-1,-1,21.01150894165039,65,-9999,103105.856682875,0.6865997314453125,0.02545166015625,-0.6360931396484375,103105.851646875,0.08329828864228087,0.8802021556159368,-0.004784379974385924,-0.04836597666144371,1.446207880973816,-0.1724682599306107,-0.1047043204307556,-0.005959361791610718,-0.02547883987426758,2,-0.01990100194275282,0.4255701465550025,0.03665107802525802,0.9039638084172623,0.7708588242530823,0.00478436192497611,-0.6369879841804504,30.16799926757812,-32.65494155883789,-22.61956787109375,2,103105.355308875,1,2,1582550217.513805,0,0,0,0,0,0,0,0,0,103103.416197,0,0.2087402,99.09485
1582550218.02657,100,0,1582550216.935356,41.20732995451319,29.07232162814989,161.337,-1,-1,21.01150894165039,65,-9999,103105.866722875,0.695648193359375,0.02923583984375,-0.62823486328125,103105.861687875,0.08254255256455109,0.8949621564065664,-0.006133133621429427,-0.02530434913933277,1.465677976608276,-0.1510664969682693,-0.09625512361526489,0.01582422852516174,-0.01301991939544678,2,-0.02061503848813032,0.4322114525565611,0.03587120651568165,0.9008226625216547,0.780170738697052,0.006133095361292362,-0.6255365610122681,30.87789916992188,-32.54741668701172,-21.9906005859375,2,103105.355308875,1,2,1582550217.513805,0,0,0,0,0,0,0,0,0,103103.416197,0,0.2087402,99.09485
1582550218.036944,101,0,1582550216.935356,41.20732995451319,29.07232162814989,161.337,-1,-1,21.01150894165039,65,-9999,103105.876762875,0.70849609375,0.0109710693359375,-0.6191864013671875,103105.871727875,0.08159170337384326,0.9101678027069314,-0.007410733455614911,-0.002064007101580501,1.519533753395081,-0.1563858985900879,-0.09410345554351807,0.02281686663627625,-0.01505732536315918,2,-0.02125169002357763,0.4390332085869376,0.03500611468223624,0.8975370730526543,0.7895850539207458,0.007410665508359671,-0.6135964393615723,30.87789916992188,-32.54741668701172,-21.9906005859375,2,103105.355308875,1,2,1582550217.513805,0,0,0,0,0,0,0,0,0,103103.416197,0,0.2087402,99.09485
1582550218.051769,102,0,1582550216.935356,41.20732995451319,29.07232162814989,161.337,-1,-1,21.01150894165039,65,-9999,103105.886833875,0.709197998046875,-0.0004425048828125,-0.6136932373046875,103105.881767875,0.08040981881453416,0.9258287562947183,-0.0090163540441178,-0.00546713825315237,1.559119939804077,-0.1980593353509903,-0.09461790323257446,0.006150811910629272,-0.02100563049316406,2,-0.02197923278498146,0.446030130693273,0.03395195525120526,0.8941035918210494,0.7990867495536804,0.009016231633722782,-0.6011480689048767,31.808837890625,-32.49957275390625,-21.19873046875,2,103105.355308875,1,2,1582550217.513805,0,0,0,0,0,0,0,0,0,103103.416197,0,0.2087402,99.09485
1582550218.05656,103,0,1582550216.935356,41.20732995451319,29.07232162814989,161.337,-1,-1,21.01150894165039,65,-9999,103105.896873875,0.70660400390625,-0.0080413818359375,-0.6071624755859375,103105.891807875,0.07882386546893247,0.9422525168394938,-0.01102057346439918,0.00754826283082366,1.634380340576172,-0.2547780275344849,-0.09763765335083008,-0.01005923748016357,-0.02550941705703735,2,-0.02278993273140825,0.4533373305979548,0.03260957118380625,0.8904506820742595,0.8088353872299194,0.01102035026997328,-0.587931752204895,31.808837890625,-32.49957275390625,-21.19873046875,2,103105.355308875,1,2,1582550217.513805,0,0,0,0,0,0,0,0,0,103103.416197,0,0.2087402,99.09485
1582550218.066756,104,0,1582550216.935356,41.20732995451319,29.07232162814989,161.337,-1,-1,21.01150894165039,65,-9999,103105.906914875,0.7026824951171875,-0.009307861328125,-0.59381103515625,103105.901848875,0.07684680639951363,0.9595812409162877,-0.01341766147719619,0.02475506067276001,1.722588300704956,-0.3106978535652161,-0.1128222346305847,-0.02002456784248352,-0.03586125373840332,2,-0.02367813836081764,0.4610137568513583,0.0309814812209368,0.8865358487428555,0.818877637386322,0.01341725885868073,-0.5738113522529602,32.72663879394531,-32.3291015625,-20.23773193359375,2,103105.355308875,1,2,1582550217.513805,0,0,0,0,0,0,0,0,0,103103.416197,0,0.2087402,99.09485
1582550218.076833,105,0,1582550216.935356,41.20732995451319,29.07232162814989,161.337,-1,-1,21.01150894165039,65,-9999,103105.916954875,0.7158050537109375,-0.001556396484375,-0.575653076171875,103105.911888875,0.07487626139103193,0.9779718953045192,-0.01619796659615913,0.002024713438004255,1.843277931213379,-0.3404269814491272,-0.1242700219154358,-0.02651247382164001,-0.03727692365646362,2,-0.02472593835111528,0.469118771880495,0.02924030401494315,0.88230441818759,0.8292571306228638,0.01619725860655308,-0.5586324334144592,32.72663879394531,-32.3291015625,-20.23773193359375,2,103105.355308875,1,2,1582550217.513805,0,0,0,0,0,0,0,0,0,103103.416197,0,0.2087402,99.09485
1582550218.086948,106,0,1582550216.935356,41.20732995451319,29.07232162814989,161.337,-1,-1,21.01150894165039,65,-9999,103105.926994875,0.7526092529296875,0.007293701171875,-0.5421295166015625,103105.921928875,0.07299544379033283,0.9968991276196201,-0.01910038478861815,0.001301526208408177,1.891247510910034,-0.3446241021156311,-0.1313860416412354,-0.02227333188056946,-0.03868007659912109,2,-0.02582604602558913,0.477418082196118,0.02748578052307171,0.8778664885989484,0.839638352394104,0.01909922435879707,-0.5428099632263184,33.80401611328125,-32.06225967407227,-18.93804931640625,2,103105.355308875,1,2,1582550217.513805,0,0,0,0,0,0,0,0,0,103103.416197,0,0.2087402,99.09485
1582550218.096848,107,0,1582550216.935356,41.20732995451319,29.07232162814989,161.337,-1,-1,21.01150894165039,65,-9999,103105.937034875,0.7727813720703125,0.020111083984375,-0.522186279296875,103105.931999875,0.07142304630458324,1.016307601893726,-0.02210978954916557,-0.03078716807067394,1.932745099067688,-0.3365533947944641,-0.1020520925521851,-0.01678308844566345,-0.02111363410949707,2,-0.0270229180261064,0.4858803840184971,0.02581524367854993,0.8732260003005836,0.8499619960784912,0.02210798859596252,-0.5263800024986267,33.80401611328125,-32.06225967407227,-18.93804931640625,2,103105.355308875,1,2,1582550217.513805,0,0,0,0,0,0,0,0,0,103103.416197,0,0.2087402,99.09485
1582550218.109105,108,0,1582550216.935356,41.20732995451319,29.07232162814989,161.337,-1,-1,21.01150894165039,65,-9999,103105.947075875,0.8192901611328125,0.0314483642578125,-0.495208740234375,103105.942039875,0.06993753990224949,1.035755568606908,-0.02504642138283688,-0.0247611477971077,1.942118525505066,-0.3264020383358002,-0.09268975257873535,-0.007832318544387817,-0.01682764291763306,2,-0.02818009177948486,0.4943154949394798,0.0241792964337062,0.8684890900202471,0.8599779605865479,0.02504380233585835,-0.5097161531448364,34.671142578125,-31.62250900268555,-17.8067626953125,2,103105.355308875,1,2,1582550217.513805,0,0,0,0,0,0,0,0,0,103103.416197,0,0.2087402,99.09485
1582550218.116933,109,0,1582550216.935356,41.20732995451319,29.07232162814989,161.337,-1,-1,21.01150894165039,65,-9999,103105.957115875,0.8562469482421875,0.032135009765625,-0.470550537109375,103105.952080875,0.06843610213475206,1.054913944371868,-0.0279159358717491,-0.01189434994012117,1.913415312767029,-0.3243378102779388,-0.06097108125686646,0.001918137073516846,-0.007661581039428711,2,-0.02927167952554097,0.5025813140216505,0.02253759284416379,0.8637402614624476,0.8695188760757446,0.02791230939328671,-0.4931103885173798,34.671142578125,-31.62250900268555,-17.8067626953125,2,103105.355308875,1,2,1582550217.513805,0,0,0,0,0,0,0,0,0,103103.416197,0,0.2087402,99.09485
1582550218.127016,110,0,1582550216.935356,41.20732995451319,29.07232162814989,161.337,-1,-1,21.01150894165039,65,-9999,103105.967155875,0.8751373291015625,0.030975341796875,-0.4516143798828125,103105.962120875,0.0672281081030454,1.073693834951828,-0.03070667500781364,-0.03026879206299782,1.877452254295349,-0.3030740022659302,-0.02691519260406494,0.002180308103561401,0.001854062080383301,2,-0.0303714869788248,0.5106364966777113,0.0210291729279028,0.8590026576924226,0.878553569316864,0.03070184960961342,-0.4766558706760406,35.61393737792969,-31.25693130493164,-16.537841796875,2,103105.355308875,1,2,1582550217.513805,0,0,0,0,0,0,0,0,0,103103.416197,0,0.2087402,99.09485
1582550218.137141,111,0,1582550216.935356,41.20732995451319,29.07232162814989,161.337,-1,-1,21.01150894165039,65,-9999,103105.977196875,0.8895416259765625,0.04534912109375,-0.433807373046875,103105.972160875,0.06634293375717058,1.092033992352069,-0.03327200371849295,-0.04364904761314392,1.830496430397034,-0.2686968445777893,-0.01596599817276001,-0.003206640481948853,0.005353569984436035,2,-0.03142863230330126,0.5184585120106069,0.01970548518407145,0.8542977270514107,0.8870744705200195,0.0332658663392067,-0.4604260325431824,35.61393737792969,-31.25693130493164,-16.537841796875,2,103105.355308875,1,2,1582550217.513805,0,0,0,0,0,0,0,0,0,103103.416197,0,0.2087402,99.09485
1582550218.147151,112,0,1582550216.935356,41.20732995451319,29.07232162814989,161.337,-1,-1,21.01150894165039,65,-9999,103105.987254875,0.8937835693359375,0.0558013916015625,-0.420318603515625,103105.982200875,0.06557329027583506,1.10990624869356,-0.03543071614710213,-0.03114083595573902,1.785664558410645,-0.2204369604587555,-0.007278323173522949,0.006186842918395996,0.007139444351196289,2,-0.03231744304248801,0.5260441165125722,0.01852805048457723,0.849640974520556,0.8950948119163513,0.03542330488562584,-0.4444663524627686,36.57322692871094,-31.15207862854004,-15.44976806640625,2,103105.355308875,1,2,1582550217.513805,0,0,0,0,0,0,0,0,0,103103.416197,0,0.2087402,99.09485
1582550218.157203,113,0,1582550216.935356,41.20732995451319,29.07232162814989,161.337,-1,-1,21.01150894165039,65,-9999,103105.997294875,0.87725830078125,0.0496673583984375,-0.409515380859375,103105.992259875,0.06480680902549357,1.127385422306675,-0.03744128762926031,-0.01435679476708174,1.741484522819519,-0.2136227190494537,-0.009000003337860107,0.0173458456993103,0.006104588508605957,2,-0.03312254139053167,0.5334245332500747,0.01738379614821134,0.8450201092719245,0.9026604890823364,0.03743254020810127,-0.4287223219871521,36.57322692871094,-31.15207862854004,-15.44976806640625,2,103105.355308875,1,2,1582550217.513805,0,0,0,0,0,0,0,0,0,103103.416197,0,0.2087402,99.09485
1582550218.178176,114,0,1582550216.935356,41.20732995451319,29.07232162814989,161.337,-1,-1,21.01150894165039,65,-9999,103106.007365875,0.8718109130859375,0.0423126220703125,-0.4013824462890625,103106.002299875,0.06420802356834852,1.14474408642448,-0.03949446112125178,-0.03523379564285278,1.730527639389038,-0.2097763121128082,-0.02822732925415039,0.01228812336921692,0.00236278772354126,2,-0.03397229711094957,0.5407101125069123,0.01628789446218787,0.8403649141590293,0.9098942875862122,0.03948419541120529,-0.4129569232463837,37.34599304199219,-30.95483779907227,-14.12603759765625,2,103105.355308875,1,2,1582550217.513805,0,0,0,0,0,0,0,0,0,103103.416197,0,0.2087402,99.09485
1582550218.179893,115,0,1582550216.935356,41.20732995451319,29.07232162814989,161.337,-1,-1,21.01150894165039,65,-9999,103106.017405875,0.87628173828125,0.0373077392578125,-0.395050048828125,103106.012339875,0.06349513396029476,1.162153869796538,-0.04165403705490612,-0.02182557620108128,1.734709739685059,-0.2244322150945663,-0.04606270790100098,0.001783758401870728,-0.006815671920776367,2,-0.0348190029301565,0.5479762989945365,0.01510081646213934,0.8356323683753979,0.9168650507926941,0.04164199158549309,-0.397019237279892,37.34599304199219,-30.95483779907227,-14.12603759765625,2,103105.355308875,1,2,1582550217.513805,0,0,0,0,0,0,0,0,0,103103.416197,0,0.2087402,99.09485
1582550218.187459,116,0,1582550216.935356,41.20732995451319,29.07232162814989,161.337,-1,-1,21.01150894165039,65,-9999,103106.027446875,0.8896026611328125,0.0347900390625,-0.381072998046875,103106.022380875,0.06263524778012249,1.1798187671477,-0.04404166553200344,-0.01232145540416241,1.763464689254761,-0.252580463886261,-0.0482146143913269,-0.005957573652267456,-0.01516234874725342,2,-0.03570314048524698,0.5553051943209267,0.01377122547736159,0.8307657881382708,0.9236404895782471,0.044027429074049,-0.380722850561142,37.86543273925781,-30.53859710693359,-13.06158447265625,2,103105.355308875,1,2,1582550217.513805,0,0,0,0,0,0,0,0,0,103103.416197,0,0.2087402,99.09485
1582550218.197409,117,0,1582550216.935356,41.20732995451319,29.07232162814989,161.337,-1,-1,21.01150894165039,65,-9999,103106.037486875,0.906646728515625,0.0311431884765625,-0.3634185791015625,103106.032420875,0.0617476884423811,1.19762249787568,-0.04662117266615206,-0.01425997074693441,1.779291868209839,-0.2725136876106262,-0.04455971717834473,-0.01131150126457214,-0.02081429958343506,2,-0.03663866312610325,0.562644971084826,0.01235919206306368,0.8257937800997444,0.9301630854606628,0.04660428687930107,-0.364176481962204,37.86543273925781,-30.53859710693359,-13.06158447265625,2,103105.355308875,1,2,1582550217.513805,0,0,0,0,0,0,0,0,0,103103.416197,0,0.2087402,99.09485
1582550218.207501,118,0,1582550216.935356,41.20732995451319,29.07232162814989,161.337,-1,-1,21.01150894165039,65,-9999,103106.047526875,0.9174041748046875,0.0345458984375,-0.341339111328125,103106.042460875,0.06104043843505784,1.215467053491978,-0.04924000404094975,-0.02440768294036388,1.784701466560364,-0.2692593932151794,-0.03225290775299072,-0.0173911452293396,-0.0192793607711792,2,-0.03761951139615788,0.5699526961662605,0.01099365846899869,0.8207421764188358,0.9363955855369568,0.04922010749578476,-0.3474774062633514,38.50517272949219,-30.20251083374023,-12.02264404296875,2,103105.355308875,1,2,1582550217.513805,0,0,0,0,0,0,0,0,0,103103.416197,0,0.2087402,99.09485
1582550218.217528,119,0,1582550216.935356,41.20732995451319,29.07232162814989,161.337,-1,-1,21.01150894165039,65,-9999,103106.057566875,0.93701171875,0.0515899658203125,-0.313934326171875,103106.052531875,0.06067814344003163,1.233121436313405,-0.05187077220939675,-0.0559842512011528,1.753858923912048,-0.2583889067173004,-0.02786195278167725,-0.01910305023193359,-0.01552277803421021,2,-0.03868229657587308,0.5771303016318576,0.009752574533895608,0.8156771069027979,0.9422584772109985,0.05184751376509666,-0.3308486044406891,38.50517272949219,-30.20251083374023,-12.02264404296875,2,103105.355308875,1,2,1582550217.513805,0,0,0,0,0,0,0,0,0,103103.416197,0,0.2087402,99.09485
1582550218.242172,120,0,1582550216.935356,41.20732995451319,29.07232162814989,161.337,-1,-1,21.01150894165039,65,-9999,103106.067607875,0.9501190185546875,0.06585693359375,-0.2987518310546875,103106.062571875,0.06039784968393603,1.250322473236554,-0.05441101511080941,-0.05527511239051819,1.714141011238098,-0.2470334321260452,-0.01386058330535889,-0.006991356611251831,-0.003531575202941895,2,-0.0397113520256705,0.5840787221361879,0.008562379064891157,0.8106797529289043,0.9476816058158875,0.05438417196273804,-0.3145501017570496,39.086181640625,-29.8615894317627,-10.69744873046875,2,103105.355308875,1,2,1582550217.513805,0,0,0,0,0,0,0,0,0,103103.416197,0,0.2087402,99.09485
1582550218.243473,121,0,1582550216.935356,41.20732995451319,29.07232162814989,161.337,-1,-1,21.01150894165039,65,-9999,103106.077647875,0.9521331787109375,0.061279296875,-0.281951904296875,103106.072612875,0.06003444873673064,1.267126028348141,-0.05697322211125419,-0.04260272905230522,1.674744367599487,-0.2540503442287445,-0.004655063152313232,0.007677555084228516,-0.002986907958984375,2,-0.0407054993011427,0.5908243154769584,0.007323364279098243,0.8057393914092161,0.9526970386505127,0.0569424033164978,-0.2985393702983856,39.086181640625,-29.8615894317627,-10.69744873046875,2,103105.355308875,1,2,1582550217.513805,0,0,0,0,0,0,0,0,0,103103.416197,0,0.2087402,99.09485
1582550218.247649,122,0,1582550216.935356,41.20732995451319,29.07232162814989,161.337,-1,-1,21.01150894165039,65,-9999,103106.087687875,0.941986083984375,0.0521392822265625,-0.2739410400390625,103106.082652875,0.05969410087227196,1.283682563727113,-0.05968391539433155,-0.04878241568803787,1.650428175926208,-0.2696745097637177,-0.004097163677215576,0.003735482692718506,-0.002671241760253906,2,-0.04174702667457963,0.5974250110433137,0.006038222524102133,0.8008146125310778,0.9573575258255005,0.05964848771691322,-0.2826810777187347,39.75730895996094,-29.63233757019043,-9.54107666015625,2,103105.355308875,1,2,1582550217.513805,0,0,0,0,0,0,0,0,0,103103.416197,0,0.2087402,99.09485
1582550218.257777,123,0,1582550216.935356,41.20732995451319,29.07232162814989,161.337,-1,-1,21.01150894165039,65,-9999,103106.097727875,0.9344635009765625,0.0453948974609375,-0.2685394287109375,103106.092692875,0.05944401887592946,1.300198175355104,-0.06244191001480635,-0.04916511103510857,1.645623326301575,-0.2731800079345703,-0.01775002479553223,-0.008722007274627686,-0.008097946643829346,2,-0.04281589838962879,0.6039646824021818,0.00475887036942424,0.7958459707451049,0.9617332220077515,0.06240133941173553,-0.2667869329452515,39.75730895996094,-29.63233757019043,-9.54107666015625,2,103105.355308875,1,2,1582550217.513805,0,0,0,0,0,0,0,0,0,103103.416197,0,0.2087402,99.09485
1582550218.267952,124,0,1582550216.935356,41.20732995451319,29.07232162814989,161.337,-1,-1,21.01150894165039,65,-9999,103106.107768875,0.9320068359375,0.048553466796875,-0.2548370361328125,103106.102732875,0.05959978834844776,1.316761548972231,-0.06503421595772728,-0.08180669695138931,1.649677872657776,-0.2459046095609665,-0.03014737367630005,-0.0184502899646759,-0.01919186115264893,2,-0.04392489894455054,0.6104757097486002,0.003672463938950488,0.7908075399983223,0.9658601880073547,0.0649883821606636,-0.2507800161838531,40.29263305664062,-29.36753463745117,-8.440887451171875,2,103105.355308875,1,2,1582550217.513805,0,0,0,0,0,0,0,0,0,103103.416197,0,0.2087402,99.09485
1582550218.277709,125,0,1582550216.935356,41.20732995451319,29.07232162814989,161.337,-1,-1,21.01150894165039,65,-9999,103106.117808875,0.9346466064453125,0.0667572021484375,-0.2346038818359375,103106.112773875,0.06013718377027828,1.333290579266807,-0.06732596514122133,-0.1095653623342514,1.642978191375732,-0.207661360502243,-0.03752279281616211,-0.02061495184898376,-0.02367532253265381,2,-0.04501847642930634,0.6169281219485065,0.002811702268682881,0.7857257321667497,0.9697257280349731,0.06727511435747147,-0.234746053814888,40.29263305664062,-29.36753463745117,-8.440887451171875,2,103105.355308875,1,2,1582550217.513805,0,0,0,0,0,0,0,0,0,103103.416197,0,0.2087402,99.09485
1582550218.306278,126,0,1582550216.935356,41.20732995451319,29.07232162814989,161.337,-1,-1,21.01150894165039,65,-9999,103106.127879875,0.942718505859375,0.0760650634765625,-0.2134246826171875,103106.122813875,0.06082573171102423,1.349769094942036,-0.06926623757698092,-0.1085716560482979,1.636325836181641,-0.1728284060955048,-0.0403212308883667,-0.006437420845031738,-0.02001619338989258,2,-0.04601076304145663,0.6233216475383125,0.00210314015820795,0.7806078835014023,0.9733331203460693,0.06921086460351944,-0.2187062650918961,40.50254821777344,-29.13677787780762,-7.466278076171875,2,103105.355308875,1,2,1582550217.513805,0,0,0,0,0,0,0,0,0,103103.416197,0,0.2087402,99.09485
1582550218.307578,127,0,1582550216.935356,41.20732995451319,29.07232162814989,161.337,-1,-1,21.01150894165039,65,-9999,103106.137919875,0.9459075927734375,0.0709228515625,-0.2002716064453125,103106.132853875,0.06177956036065051,1.366215468316765,-0.07075700043141742,-0.1226520538330078,1.632880687713623,-0.1241229176521301,-0.03440713882446289,0.00524371862411499,-0.01455962657928467,2,-0.04690381137014699,0.6296632648737983,0.001623940172849336,0.7754491861112638,0.9766960740089417,0.07069797068834305,-0.2026484161615372,40.50254821777344,-29.13677787780762,-7.466278076171875,2,103105.355308875,1,2,1582550217.513805,0,0,0,0,0,0,0,0,0,103103.416197,0,0.2087402,99.09485
1582550218.308735,128,0,1582550216.935356,41.20732995451319,29.07232162814989,161.337,-1,-1,21.01150894165039,65,-9999,103106.147959875,0.9810333251953125,0.0718841552734375,-0.1814422607421875,103106.142893875,0.06303482983479808,1.382487632057082,-0.0719071288417595,-0.1460003703832626,1.609475612640381,-0.08423358201980591,-0.0361519455909729,0.0006175041198730469,-0.01575422286987305,2,-0.04775675346563796,0.6358948817249563,0.001359061201997414,0.7702954248092977,0.9797836542129517,0.07184517383575439,-0.1867139786481857,41.04254150390625,-29.02540016174316,-5.829681396484375,2,103105.355308875,1,2,1582550217.513805,0,0,0,0,0,0,0,0,0,103103.416197,0,0.2087402,99.09485
1582550218.318059,129,0,1582550216.935356,41.20732995451319,29.07232162814989,161.337,-1,-1,21.01150894165039,65,-9999,103106.158000875,1.06854248046875,0.091583251953125,-0.147125244140625,103106.152934875,0.06413889581207781,1.398373796775995,-0.07293561487740192,-0.1279334872961044,1.580044507980347,-0.08245938271284103,-0.01346933841705322,-0.00364309549331665,-0.01537913084030151,2,-0.04851317213157946,0.6419422162261933,0.001071082123976219,0.7652160198314399,0.9825528860092163,0.07287096977233887,-0.1711133271455765,41.43272399902344,-28.69368171691895,-4.82733154296875,2,103105.355308875,1,2,1582550217.513805,0,0,0,0,0,0,0,0,0,103103.416197,0,0.2087402,99.09485
1582550218.32795,130,0,1582550216.935356,41.20732995451319,29.07232162814989,161.337,-1,-1,21.01150894165039,65,-9999,103106.168040875,1.074417114257812,0.0898895263671875,-0.1229095458984375,103106.162974875,0.06501028888049158,1.41332104978059,-0.07389939459301509,-0.1027929410338402,1.483991384506226,-0.07953561097383499,0.07004427909851074,0.01407244801521301,0.001001656055450439,2,-0.0491676787924083,0.647598602813897,0.0007268324444833496,0.7603932491270748,0.984930694103241,0.07383215427398682,-0.1563971787691116,41.43272399902344,-28.69368171691895,-4.82733154296875,2,103105.355308875,1,2,1582550217.513805,0,0,0,0,0,0,0,0,0,103103.416197,0,0.2087402,99.09485
1582550218.338038,131,0,1582550216.935356,41.20732995451319,29.07232162814989,161.337,-1,-1,21.01150894165039,65,-9999,103106.178080875,1.108551025390625,0.084228515625,-0.1099700927734375,103106.173045875,0.06565835526155753,1.427090329137752,-0.0750471941568908,-0.08112146705389023,1.36248767375946,-0.1055025011301041,0.08892744779586792,0.0178716778755188,0.01745760440826416,2,-0.04981594913399795,0.6527740682806366,0.0002575647563041183,0.7559128469063867,0.9869062900543213,0.07497677206993103,-0.1428087800741196,41.74977111816406,-28.62643432617188,-3.69415283203125,2,103105.355308875,1,2,1582550217.513805,0,0,0,0,0,0,0,0,0,103103.416197,0,0.2087402,99.09485
1582550218.366074,132,0,1582550216.935356,41.20732995451319,29.07232162814989,161.337,-1,-1,21.01150894165039,65,-9999,103106.188121875,1.103729248046875,0.1027374267578125,-0.083709716796875,103106.183085875,0.0659616124156875,1.439394010565231,-0.07633856175519556,-0.0465504415333271,1.221563816070557,-0.1254554390907288,0.1112829446792603,0.00692516565322876,0.01653718948364258,2,-0.05040068779643908,0.6573722859499789,-0.0003605675163981248,0.7518784731900883,0.9884917736053467,0.07626444101333618,-0.1306428909301758,41.74977111816406,-28.62643432617188,-3.69415283203125,2,103105.355308875,1,2,1582550217.513805,0,0,0,0,0,0,0,0,0,103103.416197,0,0.2087402,99.09485
1582550218.367496,133,0,1582550216.935356,41.20732995451319,29.07232162814989,161.337,-1,-1,21.01150894165039,65,-9999,103106.198161875,1.090057373046875,0.1139373779296875,-0.081939697265625,103106.193125875,0.06597191071397732,1.450266641019937,-0.07760656445736182,-0.01534511893987656,1.080239653587341,-0.1263396143913269,0.1200274229049683,0.02064496278762817,0.03196966648101807,2,-0.05087473758715938,0.6614179304231931,-0.001051254036377902,0.7482893651162522,0.9897570610046387,0.0775286853313446,-0.1198761612176895,41.91871643066406,-28.46203804016113,-3.013519287109375,2,103105.355308875,1,2,1582550217.513805,0,0,0,0,0,0,0,0,0,103103.416197,0,0.2087402,99.09485
1582550218.369126,134,0,1582550216.935356,41.20732995451319,29.07232162814989,161.337,-1,-1,21.01150894165039,65,-9999,103106.208201875,1.074996948242188,0.102783203125,-0.0880584716796875,103106.203166875,0.06579748132534352,1.459914604966174,-0.07859167761333798,0.006945297587662935,0.9651165008544922,-0.1025209352374077,0.09982812404632568,0.0354250967502594,0.02982193231582642,2,-0.0511772332744253,0.6649995146398515,-0.001690145464655068,0.7450862455638331,0.9907909631729126,0.07851079851388931,-0.1103130728006363,41.91871643066406,-28.46203804016113,-3.013519287109375,2,103105.355308875,1,2,1582550217.513805,0,0,0,0,0,0,0,0,0,103103.416197,0,0.2087402,99.09485
1582550218.378158,135,0,1582550216.935356,41.20732995451319,29.07232162814989,161.337,-1,-1,21.01150894165039,65,-9999,103106.218241875,1.225723266601562,0.10321044921875,-0.10491943359375,103106.213206875,0.06551998402460275,1.4680345569529,-0.07909435524426532,0.01016958616673946,0.8234863877296448,-0.0582839697599411,0.08600401878356934,0.02610450983047485,0.01543688774108887,2,-0.05126341053932815,0.6680134040670211,-0.002169288399453517,0.7423782852626344,0.9916148781776428,0.07901190966367722,-0.1022603064775467,41.92391967773438,-28.32277679443359,-2.082275390625,2,103105.355308875,1,2,1582550217.513805,0,0,0,0,0,0,0,0,0,103103.416197,0,0.2087402,99.09485
1582550218.388261,136,0,1582550216.935356,41.20732995451319,29.07232162814989,161.337,-1,-1,21.01150894165039,65,-9999,103106.228282875,1.244186401367188,0.1303863525390625,-0.0123443603515625,103106.223246875,0.06481743112484216,1.473423758115081,-0.07888320247407153,0.08086991310119629,0.5499390959739685,0.0208476185798645,0.1826491355895996,0.02300375699996948,-0.008996069431304932,2,-0.05094401561755219,0.6700346906377055,-0.002496626820295444,0.7405753611277028,0.9921680092811584,0.07880141586065292,-0.09691644459962845,41.92391967773438,-28.32277679443359,-2.082275390625,2,103105.355308875,1,2,1582550217.513805,0,0,0,0,0,0,0,0,0,103103.416197,0,0.2087402,99.09485
1582550218.399203,137,0,1582550216.935356,41.20732995451319,29.07232162814989,161.337,-1,-1,21.01150894165039,65,-9999,103106.238322875,1.084320068359375,0.1029205322265625,-0.021484375,103106.233287875,0.06415495661451961,1.475968993864043,-0.07834196003041095,0.06882123649120331,0.2452793568372726,0.05311554297804832,0.2834528684616089,0.04865935444831848,0.06299090385437012,2,-0.05051881774636879,0.671007023216307,-0.002624390529127829,0.7397231585155475,0.9924536943435669,0.0782618448138237,-0.09439484775066376,42.01144409179688,-28.39093208312988,-1.676544189453125,2,103105.355308875,1,2,1582550217.513805,0,0,0,0,0,0,0,0,0,103103.416197,0,0.2087402,99.09485
1582550218.423103,138,0,1582550216.935356,41.20732995451319,29.07232162814989,161.337,-1,-1,21.01150894165039,65,-9999,103106.248393875,1.013214111328125,0.0825958251953125,-0.0827178955078125,103106.243327875,0.06335924739108,1.477210459763066,-0.07776196181641544,0.08548790216445923,0.1197273880243301,0.0486958771944046,0.1133696436882019,0.03307852149009705,0.0844072699546814,2,-0.05003610956379989,0.6715005055293102,-0.002754618337506731,0.7393076804441562,0.992615282535553,0.07768361270427704,-0.09316691756248474,42.01144409179688,-28.39093208312988,-1.676544189453125,2,103105.355308875,1,2,1582550217.513805,0,0,0,0,0,0,0,0,0,103103.416197,0,0.2087402,99.09485
1582550218.424554,139,0,1582550216.935356,41.20732995451319,29.07232162814989,161.337,-1,-1,21.01150894165039,65,-9999,103106.258433875,0.94940185546875,0.081146240234375,-0.1137847900390625,103106.253367875,0.0624198874964389,1.478450290736194,-0.07710440695685894,0.09877041727304459,0.1252518445253372,0.05838099122047424,0.03443831205368042,0.006741315126419067,0.01848387718200684,2,-0.04947638476491911,0.6719982551545963,-0.002911154952165762,0.7388923942868038,0.9927807450294495,0.07702802866697311,-0.09194086492061615,42.09571838378906,-28.41148376464844,-1.567657470703125,2,103105.355308875,1,2,1582550217.513805,0,0,0,0,0,0,0,0,0,103103.416197,0,0.2087402,99.09485
1582550218.428561,140,0,1582550216.935356,41.20732995451319,29.07232162814989,161.337,-1,-1,21.01150894165039,65,-9999,103106.268473875,0.9401702880859375,0.0684356689453125,-0.1241912841796875,103106.263407875,0.06134229828525996,1.480248802799556,-0.07647173639337806,0.1122167408466339,0.1885652095079422,0.04958861693739891,-0.03430098295211792,0.006410866975784302,-0.01907920837402344,2,-0.04887826879265267,0.6727043378295958,-0.003140083211497002,0.7382885201968645,0.9929928183555603,0.07639722526073456,-0.0901595801115036,42.09571838378906,-28.41148376464844,-1.567657470703125,2,103105.355308875,1,2,1582550217.513805,0,0,0,0,0,0,0,0,0,103103.416197,0,0.2087402,99.09485
1582550218.439017,141,0,1582550216.935356,41.20732995451319,29.07232162814989,161.337,-1,-1,21.01150894165039,65,-9999,103106.278514875,0.956573486328125,0.0884857177734375,-0.103302001953125,103106.273448875,0.06020366329988115,1.482366721757255,-0.0756629671288518,0.1207982450723648,0.2232712656259537,0.07073011994361877,-0.05493664741516113,-0.006683528423309326,-0.03646647930145264,2,-0.0481938419315398,0.673532843010192,-0.003338710718235827,0.7375769255139626,0.9932427406311035,0.07559079676866531,-0.08806172758340836,41.99418640136719,-28.39188003540039,-1.316253662109375,2,103105.355308875,1,2,1582550217.513805,0,0,0,0,0,0,0,0,0,103103.416197,0,0.2087402,99.09485
1582550218.448541,142,0,1582550216.935356,41.20732995451319,29.07232162814989,161.337,-1,-1,21.01150894165039,65,-9999,103106.288554875,0.9762420654296875,0.0839080810546875,-0.0938262939453125,103106.283488875,0.05898408909940688,1.484370953916631,-0.0747336101785922,0.1288676857948303,0.2067497372627258,0.08275727182626724,-0.04062378406524658,0.009791940450668335,-0.02184975147247314,2,-0.04743757594469761,0.6743227965907805,-0.003522260934746335,0.7369029781359682,0.993486762046814,0.07466406375169754,-0.08607688546180725,41.99418640136719,-28.39188003540039,-1.316253662109375,2,103105.355308875,1,2,1582550217.513805,0,0,0,0,0,0,0,0,0,103103.416197,0,0.2087402,99.09485
1582550218.459586,143,0,1582550216.935356,41.20732995451319,29.07232162814989,161.337,-1,-1,21.01150894165039,65,-9999,103106.298594875,0.982757568359375,0.0667877197265625,-0.0975189208984375,103106.293559875,0.05779641826082907,1.486198541369407,-0.07390501641172723,0.1231314986944199,0.1913409531116486,0.07100074738264084,-0.021126389503479,0.01360899209976196,-0.009485006332397461,2,-0.04672905344763667,0.6750431594366629,-0.003722520590628775,0.7362874698149953,0.9937037229537964,0.0738377571105957,-0.08426626026630402,42.00430297851562,-28.48904418945312,-1.11212158203125,2,103105.355308875,1,2,1582550217.513805,0,0,0,0,0,0,0,0,0,103103.416197,0,0.2087402,99.09485
1582550218.484337,144,0,1582550216.935356,41.20732995451319,29.07232162814989,161.337,-1,-1,21.01150894165039,65,-9999,103106.308634875,0.99072265625,0.063568115234375,-0.0921783447265625,103106.303599875,0.05672731942550387,1.487706937251617,-0.07325938632570937,0.1102798208594322,0.1606017500162125,0.05425367504358292,-0.01107633113861084,-0.003966093063354492,-0.01448965072631836,2,-0.0461280215781138,0.6756379244233044,-0.003932472673475351,0.735778562311606,0.9938769936561584,0.07319387048482895,-0.08277120441198349,42.00430297851562,-28.48904418945312,-1.11212158203125,2,103105.355308875,1,2,1582550217.513805,0,0,0,0,0,0,0,0,0,103103.416197,0,0.2087402,99.09485
1582550218.487491,145,0,1582550216.935356,41.20732995451319,29.07232162814989,161.337,-1,-1,21.01150894165039,65,-9999,103106.318675875,0.99212646484375,0.071380615234375,-0.084716796875,103106.313639875,0.05570352378305728,1.488787233738598,-0.07274198386616301,0.1058323457837105,0.1163133829832077,0.04258770123124123,-0.005633354187011719,-0.00964510440826416,-0.01237118244171143,2,-0.04558992732299277,0.6760704668593205,-0.004158557999939361,0.7354134692378329,0.9940034747123718,0.0726778507232666,-0.08170056343078613,42.26214599609375,-28.61532402038574,-1.00494384765625,2,103105.355308875,1,2,1582550217.513805,0,0,0,0,0,0,0,0,0,103103.416197,0,0.2087402,99.09485
1582550218.4895,146,0,1582550216.935356,41.20732995451319,29.07232162814989,161.337,-1,-1,21.01150894165039,65,-9999,103106.328715875,0.995330810546875,0.0653228759765625,-0.0833740234375,103106.323680875,0.0547273356806589,1.489426221220655,-0.07228135353985139,0.1006445288658142,0.07119216024875641,0.03734522685408592,-0.001293540000915527,-0.001663088798522949,-0.004229903221130371,2,-0.04508947392904272,0.6763378508638077,-0.004375863924324819,0.7351971455425448,0.9940887093544006,0.07221843302249908,-0.08106809854507446,42.26214599609375,-28.61532402038574,-1.00494384765625,2,103105.355308875,1,2,1582550217.513805,0,0,0,0,0,0,0,0,0,103103.416197,0,0.2087402,99.09485
1582550218.498654,147,0,1582550216.935356,41.20732995451319,29.07232162814989,161.337,-1,-1,21.01150894165039,65,-9999,103106.338755875,0.9955902099609375,0.0583953857421875,-0.0841064453125,103106.333720875,0.05390842457169237,1.489649268425373,-0.07188810701585013,0.0821739137172699,0.02703188918530941,0.03568287938833237,-7.319450378417969e-05,-0.004856705665588379,-0.003152310848236084,2,-0.04466773683522518,0.6764469404856855,-0.004548608822604827,0.7351214120008367,0.9941349029541016,0.07182620465755463,-0.08084865659475327,42.126708984375,-28.48108673095703,-0.90557861328125,2,103105.355308875,1,2,1582550217.513805,0,0,0,0,0,0,0,0,0,103103.416197,0,0.2087402,99.09485
1582550218.508696,148,0,1582550216.935356,41.20732995451319,29.07232162814989,161.337,-1,-1,21.01150894165039,65,-9999,103106.348796875,1.002792358398438,0.046661376953125,-0.07562255859375,103106.343760875,0.05312258608579085,1.489423591800923,-0.07186475806111196,0.08025993406772614,-0.01492060348391533,-0.003651125123724341,0.001957416534423828,-0.01188293099403381,-0.002882003784179688,2,-0.0443939194217905,0.6763819937578679,-0.004824525630531207,0.7351960836306255,0.9941184520721436,0.07180291414260864,-0.08107315748929977,42.126708984375,-28.48108673095703,-0.90557861328125,2,103105.355308875,1,2,1582550217.513805,0,0,0,0,0,0,0,0,0,103103.416197,0,0.2087402,99.09485
1582550218.520297,149,0,1582550216.935356,41.20732995451319,29.07232162814989,161.337,-1,-1,21.01150894165039,65,-9999,103106.358836875,1.002410888671875,0.0486602783203125,-0.07354736328125,103106.353800875,0.05243383834176448,1.488479026574397,-0.07232000076170039,0.06385725736618042,-0.09141670912504196,-0.0542043149471283,0.005851387977600098,-0.02318596839904785,0.003806829452514648,2,-0.04433051036327562,0.6760400076310429,-0.005211051289942537,0.7355116969058351,0.9940086603164673,0.07225697487592697,-0.08200942724943161,42.28439331054688,-28.53070259094238,-0.74884033203125,2,103105.355308875,1,2,1582550217.513805,0,0,0,0,0,0,0,0,0,103103.416197,0,0.2087402,99.09485
1582550218.540341,150,0,1582550216.935356,41.20732995451319,29.07232162814989,161.337,-1,-1,21.01150894165039,65,-9999,103106.368907875,0.9761962890625,0.0640106201171875,-0.0882568359375,103106.363841875,0.05181211805619844,1.487132968765418,-0.07300579740582502,0.05513133853673935,-0.1286080032587051,-0.07236412167549133,0.01196324825286865,-0.02675387263298035,0.01154929399490356,2,-0.04437592927214412,0.6755436212257219,-0.005642117223378373,0.735961720029691,0.9938477277755737,0.07294096052646637,-0.08334318548440933,42.28439331054688,-28.53070259094238,-0.74884033203125,2,103105.355308875,1,2,1582550217.513805,0,0,0,0,0,0,0,0,0,103103.416197,0,0.2087402,99.09485
1582550218.541752,151,0,1582550216.935356,41.20732995451319,29.07232162814989,161.337,-1,-1,21.01150894165039,65,-9999,103106.378947875,0.9616851806640625,0.064361572265625,-0.0909271240234375,103106.373881875,0.05116191042527169,1.485543400037361,-0.07398447178682806,0.05837134271860123,-0.152303472161293,-0.09829398989677429,-0.01236754655838013,-0.01268479228019714,-0.001281380653381348,2,-0.04452073788958816,0.6749515017129128,-0.006177246283584237,0.7364917477588309,0.9936423897743225,0.07391699403524399,-0.08491674810647964,42.18632507324219,-28.63620567321777,-0.97882080078125,2,103105.355308875,1,2,1582550217.513805,0,0,0,0,0,0,0,0,0,103103.416197,0,0.2087402,99.09485
1582550218.548863,152,0,1582550216.935356,41.20732995451319,29.07232162814989,161.337,-1,-1,21.01150894165039,65,-9999,103106.388987875,0.957855224609375,0.0601043701171875,-0.10333251953125,103106.383921875,0.05050948671711074,1.483836556412026,-0.0754550853918769,0.05022792890667915,-0.1648514866828918,-0.1579456031322479,-0.02996444702148438,-0.008856505155563354,-0.004096150398254395,2,-0.04484704633980507,0.6743049737403494,-0.00687654178695668,0.7370578254251455,0.9933867454528809,0.0753835067152977,-0.08660309016704559,42.18632507324219,-28.63620567321777,-0.97882080078125,2,103105.355308875,1,2,1582550217.513805,0,0,0,0,0,0,0,0,0,103103.416197,0,0.2087402,99.09485
1582550218.558998,153,0,1582550216.935356,41.20732995451319,29.07232162814989,161.337,-1,-1,21.01150894165039,65,-9999,103106.399028875,0.9611968994140625,0.08819580078125,-0.12725830078125,103106.393962875,0.04980334168834393,1.482506794705316,-0.07658846086809734,0.06344147026538849,-0.1338941156864166,-0.1073117181658745,-0.03569835424423218,-0.01906564831733704,-0.01154130697250366,2,-0.04503090707646673,0.6738056240768688,-0.007489748432419396,0.7374972276767471,0.9931850433349609,0.07651361078023911,-0.08791639655828476,42.13105773925781,-28.46987724304199,-0.8863525390625,2,103105.355308875,1,2,1582550217.513805,0,0,0,0,0,0,0,0,0,103103.416197,0,0.2087402,99.09485
1582550218.569139,154,0,1582550216.935356,41.20732995451319,29.07232162814989,161.337,-1,-1,21.01150894165039,65,-9999,103106.409068875,0.959808349609375,0.061553955078125,-0.1496429443359375,103106.404002875,0.04917583850742885,1.482509341083482,-0.07761568056419912,0.05064865574240685,0.01992907747626305,-0.1066989749670029,-0.03037083148956299,0.008108377456665039,-0.03300493955612183,2,-0.04519761651654541,0.6737979947864123,-0.008067994359103881,0.7374877668150692,0.9931062459945679,0.07753777503967285,-0.08790687471628189,42.13105773925781,-28.46987724304199,-0.8863525390625,2,103105.355308875,1,2,1582550217.513805,0,0,0,0,0,0,0,0,0,103103.416197,0,0.2087402,99.09485
1582550218.579988,155,0,1582550216.935356,41.20732995451319,29.07232162814989,161.337,-1,-1,21.01150894165039,65,-9999,103106.419108875,1.023834228515625,0.0558013916015625,-0.0825653076171875,103106.414042875,0.04878086500395101,1.482429205942986,-0.07878219481382356,0.02511187084019184,-0.004408488050103188,-0.1232281476259232,-0.0387718677520752,-0.01014435291290283,-0.06436598300933838,2,-0.04549428074165612,0.6737514767109587,-0.008605624063894646,0.737506119306563,0.9930086731910706,0.0787007212638855,-0.08797843754291534,42.48797607421875,-28.35963439941406,-0.92828369140625,2,103105.355308875,1,2,1582550217.513805,0,0,0,0,0,0,0,0,0,103103.416197,0,0.2087402,99.09485
1582550218.603794,156,0,1582550216.935356,41.20732995451319,29.07232162814989,161.337,-1,-1,21.01150894165039,65,-9999,103106.429148875,0.99957275390625,0.07904052734375,-0.0941314697265625,103106.424113875,0.04858843406147893,1.481602614243481,-0.07985002496843999,0.009629088453948498,-0.08925571292638779,-0.1081391125917435,0.02037608623504639,-0.02762734889984131,-0.007095277309417725,2,-0.04582625792293615,0.6734271444804302,-0.009018129125538621,0.7377767122749532,0.992851197719574,0.0797652006149292,-0.08879166841506958,42.48797607421875,-28.35963439941406,-0.92828369140625,2,103105.355308875,1,2,1582550217.513805,0,0,0,0,0,0,0,0,0,103103.416197,0,0.2087402,99.09485
1582550218.605147,157,0,1582550216.935356,41.20732995451319,29.07232162814989,161.337,-1,-1,21.01150894165039,65,-9999,103106.439189875,0.9628448486328125,0.0820465087890625,-0.12200927734375,103106.434153875,0.0484140436306947,1.481083324932835,-0.08082022409419103,0.00867940578609705,-0.05143376439809799,-0.1019075810909271,0.01889777183532715,-0.004973769187927246,0.005269408226013184,2,-0.04612723728983092,0.6732177579259562,-0.009397856131279803,0.7379442657312372,0.9927273988723755,0.08073227107524872,-0.08930025994777679,42.38130187988281,-28.11284637451172,-0.823883056640625,2,103105.355308875,1,2,1582550217.513805,0,0,0,0,0,0,0,0,0,103103.416197,0,0.2087402,99.09485
1582550218.609596,158,0,1582550216.935356,41.20732995451319,29.07232162814989,161.337,-1,-1,21.01150894165039,65,-9999,103106.449229875,0.97003173828125,0.0845184326171875,-0.1107635498046875,103106.444194875,0.04823314250517885,1.480891629283273,-0.08168775637708041,0.01024187542498112,-0.01449897326529026,-0.09322108328342438,-0.02744764089584351,0.0005702376365661621,-0.03148818016052246,2,-0.04638679712403926,0.6731315936472611,-0.009752797705748328,0.7380020771876485,0.9926401972770691,0.08159694075584412,-0.08948424458503723,42.38130187988281,-28.11284637451172,-0.823883056640625,2,103105.355308875,1,2,1582550217.513805,0,0,0,0,0,0,0,0,0,103103.416197,0,0.2087402,99.09485
1582550218.619442,159,0,1582550216.935356,41.20732995451319,29.07232162814989,161.337,-1,-1,21.01150894165039,65,-9999,103106.459269875,0.9788818359375,0.0893707275390625,-0.0963897705078125,103106.454234875,0.04809722434397179,1.480515810666782,-0.0823712913458077,0.005247383378446102,-0.03814917802810669,-0.06992428749799728,-0.0252068042755127,0.001231759786605835,-0.0240861177444458,2,-0.04659470707882379,0.6729805461755249,-0.01002474893314537,0.7381230253437596,0.9925506711006165,0.08227817714214325,-0.0898522362112999,42.35417175292969,-28.22995758056641,-1.06280517578125,2,103105.355308875,1,2,1582550217.513805,0,0,0,0,0,0,0,0,0,103103.416197,0,0.2087402,99.09485
1582550218.629212,160,0,1582550216.935356,41.20732995451319,29.07232162814989,161.337,-1,-1,21.01150894165039,65,-9999,103106.469310875,0.9648590087890625,0.091461181640625,-0.106475830078125,103106.464274875,0.04787446944862832,1.480010531217572,-0.08290624475342091,0.018220204859972,-0.05359096080064774,-0.05699295178055763,-0.01347488164901733,0.005779802799224854,-0.00744473934173584,2,-0.046719421560529,0.6727870578754866,-0.01027555151747933,0.7382881003143925,0.9924612045288086,0.08281130343675613,-0.09034974128007889,42.35417175292969,-28.22995758056641,-1.06280517578125,2,103105.355308875,1,2,1582550217.513805,0,0,0,0,0,0,0,0,0,103103.416197,0,0.2087402,99.09485
1582550218.64071,161,0,1582550216.935356,41.20732995451319,29.07232162814989,161.337,-1,-1,21.01150894165039,65,-9999,103106.479350875,0.956634521484375,0.0905609130859375,-0.11712646484375,103106.474314875,0.04757862586565775,1.479834773005609,-0.08332514119434085,0.02606268227100372,-0.01520495489239693,-0.04712753742933273,-0.02418184280395508,0.008047908544540405,-0.01224786043167114,2,-0.04677517937776027,0.6727195372639097,-0.01052187000623328,0.7383426248959191,0.9924107193946838,0.08322875201702118,-0.09052101522684097,42.49909973144531,-28.2286376953125,-1.119110107421875,2,103105.355308875,1,2,1582550217.513805,0,0,0,0,0,0,0,0,0,103103.416197,0,0.2087402,99.09485
1582550218.66466,162,0,1582550216.935356,41.20732995451319,29.07232162814989,161.337,-1,-1,21.01150894165039,65,-9999,103106.489421875,0.9596710205078125,0.0854949951171875,-0.1157379150390625,103106.484355875,0.0472667226098325,1.480015862791325,-0.08370982927451091,0.0270997267216444,0.02208792604506016,-0.03950254991650581,-0.03510689735412598,0.007588207721710205,-0.02620935440063477,2,-0.04681105363417232,0.6727849111793895,-0.0107709321629037,0.7382771062483082,0.9923949837684631,0.0836120992898941,-0.09033837914466858,42.49909973144531,-28.2286376953125,-1.119110107421875,2,103105.355308875,1,2,1582550217.513805,0,0,0,0,0,0,0,0,0,103103.416197,0,0.2087402,99.09485
1582550218.666025,163,0,1582550216.935356,41.20732995451319,29.07232162814989,161.337,-1,-1,21.01150894165039,65,-9999,103106.499461875,0.9751739501953125,0.0765838623046875,-0.1101837158203125,103106.494395875,0.04695229922402677,1.480395561052718,-0.08410420844991133,0.02855301275849342,0.04453650861978531,-0.04239767417311668,-0.03445214033126831,0.002800613641738892,-0.02625352144241333,2,-0.04684850861272838,0.6729234201367846,-0.01102884576847052,0.7381446734023538,0.9923962950706482,0.08400509506464005,-0.08995857834815979,42.32321166992188,-28.09486770629883,-1.029052734375,2,103105.355308875,1,2,1582550217.513805,0,0,0,0,0,0,0,0,0,103103.416197,0,0.2087402,99.09485
1582550218.66965,164,0,1582550216.935356,41.20732995451319,29.07232162814989,161.337,-1,-1,21.01150894165039,65,-9999,103106.509501875,0.9774322509765625,0.0749969482421875,-0.10784912109375,103106.504435875,0.04667491177404545,1.480861593633045,-0.08460072924533465,0.02222787961363792,0.04510853812098503,-0.0551343560218811,-0.02046006917953491,-0.006284803152084351,-0.02226418256759644,2,-0.04693546379254865,0.6730905571523591,-0.01130957690714562,0.7379825652905978,0.9923965334892273,0.08449984341859818,-0.08949232846498489,42.32321166992188,-28.09486770629883,-1.029052734375,2,103105.355308875,1,2,1582550217.513805,0,0,0,0,0,0,0,0,0,103103.416197,0,0.2087402,99.09485
1582550218.679566,165,0,1582550216.935356,41.20732995451319,29.07232162814989,161.337,-1,-1,21.01150894165039,65,-9999,103106.519541875,0.9698028564453125,0.076507568359375,-0.1166839599609375,103106.514476875,0.0463917557783145,1.481666042343473,-0.08524776312365374,0.02329021506011486,0.08481760323047638,-0.06739741563796997,-0.01338160037994385,-0.01053062081336975,-0.01812362670898438,2,-0.04707380703328157,0.6733791807722422,-0.01165122415485659,0.737704996011334,0.9924134612083435,0.08514454960823059,-0.08868907392024994,42.533935546875,-28.0199089050293,-0.989654541015625,2,103105.355308875,1,2,1582550217.513805,0,0,0,0,0,0,0,0,0,103103.416197,0,0.2087402,99.09485
1582550218.689577,166,0,1582550216.935356,41.20732995451319,29.07232162814989,161.337,-1,-1,21.01150894165039,65,-9999,103106.529582875,0.9731292724609375,0.076416015625,-0.111053466796875,103106.524516875,0.04611916197047537,1.482736332028409,-0.08606261411331813,0.01965600810945034,0.1085911840200424,-0.08206508308649063,-0.02225661277770996,-0.009740322828292847,-0.02830153703689575,2,-0.04727560035907807,0.6737615751563726,-0.01205201809823192,0.7373363688427381,0.9924383163452148,0.08595640957355499,-0.08762071281671524,42.533935546875,-28.0199089050293,-0.989654541015625,2,103105.355308875,1,2,1582550217.513805,0,0,0,0,0,0,0,0,0,103103.416197,0,0.2087402,99.09485
1582550218.717485,167,0,1582550216.935356,41.20732995451319,29.07232162814989,161.337,-1,-1,21.01150894165039,65,-9999,103106.539622875,0.9820404052734375,0.072296142578125,-0.1048126220703125,103106.534556875,0.04577231176256581,1.484051313488188,-0.0871169288741597,0.02444889955222607,0.1394574791193008,-0.1066694930195808,-0.02026593685150146,-0.01005834341049194,-0.02578461170196533,2,-0.04753848400992194,0.6742301105337166,-0.01256709633456671,0.7368824335364142,0.9924618005752563,0.08700677752494812,-0.08630770444869995,42.53938293457031,-27.90985107421875,-0.949859619140625,2,103105.355308875,1,2,1582550217.513805,0,0,0,0,0,0,0,0,0,103103.416197,0,0.2087402,99.09485
1582550218.718986,168,0,1582550216.935356,41.20732995451319,29.07232162814989,161.337,-1,-1,21.01150894165039,65,-9999,103106.549662875,0.997283935546875,0.0764617919921875,-0.0822601318359375,103106.544627875,0.04536686667258077,1.485078105903233,-0.08838773393386025,0.02970526926219463,0.1085234209895134,-0.1303429305553436,-0.01348340511322021,-0.01552042365074158,-0.02238821983337402,2,-0.04786240421393462,0.6745885095236226,-0.01317039010773535,0.7365228071616431,0.9924389123916626,0.08827269077301025,-0.08527906984090805,42.53938293457031,-27.90985107421875,-0.949859619140625,2,103105.355308875,1,2,1582550217.513805,0,0,0,0,0,0,0,0,0,103103.416197,0,0.2087402,99.09485
1582550218.721019,169,0,1582550216.935356,41.20732995451319,29.07232162814989,161.337,-1,-1,21.01150894165039,65,-9999,103106.559703875,0.983917236328125,0.0842742919921875,-0.0937652587890625,103106.554667875,0.04500982838117928,1.485661664169956,-0.08970203646494374,0.02282605692744255,0.05581200867891312,-0.1315227150917053,0.003322362899780273,-0.01457116007804871,-0.0009281039237976074,2,-0.04822106958628758,0.674781247591647,-0.01376020598549593,0.7363122624688268,0.9923723340034485,0.08958178758621216,-0.08468998968601227,42.6168212890625,-27.89656448364258,-0.779449462890625,2,103105.355308875,1,2,1582550217.513805,0,0,0,0,0,0,0,0,0,103103.416197,0,0.2087402,99.09485
1582550218.729651,170,0,1582550216.935356,41.20732995451319,29.07232162814989,161.337,-1,-1,21.01150894165039,65,-9999,103106.569743875,0.9753875732421875,0.0895233154296875,-0.10015869140625,103106.564707875,0.04468039174961832,1.48625865244086,-0.09101152964787584,0.02110011503100395,0.06627602875232697,-0.1318869888782501,-0.003736197948455811,-0.008535861968994141,-0.005040287971496582,2,-0.04858684528182516,0.6749781809355498,-0.01433877978172382,0.7360964820757059,0.992304801940918,0.09088593721389771,-0.0840875506401062,42.6168212890625,-27.89656448364258,-0.779449462890625,2,103105.355308875,1,2,1582550217.513805,0,0,0,0,0,0,0,0,0,103103.416197,0,0.2087402,99.09485
1582550218.73971,171,0,1582550216.935356,41.20732995451319,29.07232162814989,161.337,-1,-1,21.01150894165039,65,-9999,103106.579783875,0.9832000732421875,0.0884857177734375,-0.093231201171875,103106.574748875,0.0443888586687466,1.486743603950551,-0.09228087619633049,0.0177336148917675,0.05422363057732582,-0.1276208758354187,-0.01776015758514404,-0.002963900566101074,-0.01799750328063965,2,-0.04895114647243742,0.6751336868533589,-0.01488727736052886,0.7359189580498853,0.9922298789024353,0.09214995801448822,-0.08359657973051071,42.59312438964844,-27.537841796875,-0.76336669921875,2,103105.355308875,1,2,1582550217.513805,0,0,0,0,0,0,0,0,0,103103.416197,0,0.2087402,99.09485
1582550218.749831,172,0,1582550216.935356,41.20732995451319,29.07232162814989,161.337,-1,-1,21.01150894165039,65,-9999,103106.589823875,0.990966796875,0.09063720703125,-0.0854644775390625,103106.584788875,0.04408621673317286,1.486973493549745,-0.09354926451735802,0.01957604102790356,0.02847212739288807,-0.1301260590553284,-0.0101546049118042,-0.004959315061569214,-0.01071286201477051,2,-0.04931304465160108,0.6751954672856462,-0.01543342761028815,0.7358267486730278,0.9921316504478455,0.09341287612915039,-0.08335860818624496,42.59312438964844,-27.537841796875,-0.76336669921875,2,103105.355308875,1,2,1582550217.513805,0,0,0,0,0,0,0,0,0,103103.416197,0,0.2087402,99.09485
1582550218.760098,173,0,1582550216.935356,41.20732995451319,29.07232162814989,161.337,-1,-1,21.01150894165039,65,-9999,103106.599864875,0.9951019287109375,0.095489501953125,-0.074981689453125,103106.594828875,0.04372481756109032,1.486658740350807,-0.09480159015543441,0.02483764849603176,-0.02673174068331718,-0.1283824890851974,-0.002640843391418457,-0.004695475101470947,-0.004169464111328125,2,-0.0496534190151835,0.6750585451446151,-0.01598229877041257,0.7359178714467702,0.9919881224632263,0.09465964883565903,-0.08366099745035172,42.80914306640625,-27.73965072631836,-0.794158935546875,2,103105.355308875,1,2,1582550217.513805,0,0,0,0,0,0,0,0,0,103103.416197,0,0.2087402,99.09485
1582550218.778038,174,0,1582550216.935356,41.20732995451319,29.07232162814989,161.337,-1,-1,21.01150894165039,65,-9999,103106.609935875,0.985382080078125,0.0927734375,-0.089080810546875,103106.604869875,0.04327549369806496,1.485882499179593,-0.09605212372938805,0.03670518100261688,-0.07732022553682327,-0.1278355866670609,0.003509283065795898,-0.001454323530197144,0.00824815034866333,2,-0.04996745207644815,0.6747538901897858,-0.01655128060083327,0.7361633476088203,0.9918041229248047,0.09590449184179306,-0.08442088216543198,42.73075866699219,-27.65897750854492,-0.778900146484375,2,103105.355308875,1,2,1582550217.513805,0,0,0,0,0,0,0,0,0,103103.416197,0,0.2087402,99.09485
