loggingTime,loggingSample,identifierForVendor,locationTimestamp_since1970,locationLatitude,locationLongitude,locationAltitude,locationSpeed,locationCourse,locationVerticalAccuracy,locationHorizontalAccuracy,locationFloor,accelerometerTimestamp_sinceReboot,accelerometerAccelerationX,accelerometerAccelerationY,accelerometerAccelerationZ,motionTimestamp_sinceReboot,motionYaw,motionRoll,motionPitch,motionRotationRateX,motionRotationRateY,motionRotationRateZ,motionUserAccelerationX,motionUserAccelerationY,motionUserAccelerationZ,motionAttitudeReferenceFrame,motionQuaternionX,motionQuaternionY,motionQuaternionZ,motionQuaternionW,motionGravityX,motionGravityY,motionGravityZ,motionMagneticFieldX,motionMagneticFieldY,motionMagneticFieldZ,motionMagneticFieldCalibrationAccuracy,activityTimestamp_sinceReboot,activity,activityActivityConfidence,activityActivityStartDate,pedometerStartDate,pedometerNumberofSteps,pedometerAverageActivePace,pedometerCurrentPace,pedometerCurrentCadence,pedometerDistance,pedometerFloorAscended,pedometerFloorDescended,pedometerEndDate,altimeterTimestamp_sinceReboot,altimeterReset,altimeterRelativeAltitude,altimeterPressure
1580905474.567698,1,0,1580904337.000819,41.20701635159924,29.07533761282497,172.748,-1,-1,5.74967098236084,48.00724964208526,-9999,9190.327523875001,0.9826202392578125,0.0853118896484375,-0.1314697265625,9190.322488875001,-0.7632202193973637,1.425068768805223,-0.07989727202207729,-0.001989452168345451,0.01359370350837708,0.004488027654588223,-0.01223540306091309,0.009855985641479492,0.01456594467163086,2,0.215226127483934,0.6174975123244958,-0.3058160025554648,0.6919906773685605,0.986244261264801,0.07981229573488235,-0.1447490751743317,39.80208587646484,20.02701187133789,23.39779663085938,2,9189.828225875,2,0,1580905474.069392,1580903939.50652,1147,0.4533899,0,0,1470.409,1,0,1580905462.254594,9187.244052,0,2.478485,97.1743
1580905474.590516,2,0,1580904337.000819,41.20701635159924,29.07533761282497,172.748,-1,-1,5.74967098236084,48.00724964208526,-9999,9190.337563875,0.971771240234375,0.0850982666015625,-0.138397216796875,9190.332528875,-0.7632173875964559,1.425117535369507,-0.07990357715810084,-0.0003545377403497696,0.005421262234449387,0.001022456213831902,-0.00485682487487793,0.005394071340560913,0.01216793060302734,2,0.2152304307838492,0.6175155058733086,-0.3058116499335617,0.691975319642414,0.9862509369850159,0.07981857657432556,-0.1447009295225143,39.87596893310547,20.01435089111328,23.36077880859375,2,9189.828225875,2,0,1580905474.069392,1580903939.50652,1147,0.4533899,0,0,1470.409,1,0,1580905462.254594,9187.244052,0,2.478485,97.1743
1580905474.591546,3,0,1580904337.000819,41.20701635159924,29.07533761282497,172.748,-1,-1,5.74967098236084,48.00724964208526,-9999,9190.347634875001,0.9673309326171875,0.0848846435546875,-0.140960693359375,9190.342568875001,-0.7632065663996128,1.425130608062998,-0.07990550130174651,-0.0006085536442697048,0.001263841986656189,-0.000764098484069109,-0.01570761203765869,0.005178540945053101,0.005227506160736084,2,0.2152283902340744,0.6175214427418761,-0.3058070713234634,0.6919727232450341,0.9862527251243591,0.07982049882411957,-0.1446880102157593,39.87596893310547,20.01435089111328,23.36077880859375,2,9189.828225875,2,0,1580905474.069392,1580903939.50652,1147,0.4533899,0,0,1470.409,1,0,1580905462.254594,9187.244052,0,2.478485,97.1743
1580905474.5923,4,0,1580904337.000819,41.20701635159924,29.07533761282497,172.748,-1,-1,5.74967098236084,48.00724964208526,-9999,9190.357674875,0.9665679931640625,0.0870208740234375,-0.1412353515625,9190.352609875001,-0.763180926772157,1.42515052087408,-0.07986380906477411,-0.001196046825498343,0.003513414412736893,0.004304429516196251,-0.02015423774719238,0.005006492137908936,0.002644479274749756,2,0.215238409032399,0.6175257192782057,-0.3057836546180099,0.6919759488798368,0.9862586855888367,0.07977893948554993,-0.1446688324213028,39.686767578125,19.80102157592773,23.56216430664062,2,9189.828225875,2,0,1580905474.069392,1580903939.50652,1147,0.4533899,0,0,1470.409,1,0,1580905462.254594,9187.244052,0,2.478485,97.1743
1580905474.593412,5,0,1580904337.000819,41.20701635159924,29.07533761282497,172.748,-1,-1,5.74967098236084,48.00724964208526,-9999,9190.367715875,0.9696502685546875,0.0868682861328125,-0.1400604248046875,9190.362649875,-0.763159301067793,1.425110041144959,-0.0797786908726788,0.0001306384801864624,-0.0043928362429142,0.009099564515054226,-0.02091801166534424,0.007227718830108643,0.002410888671875,2,0.2152558019876865,0.6175030907279466,-0.3057552046307708,0.6920033613080875,0.9862595796585083,0.07969409227371216,-0.1447097510099411,39.686767578125,19.80102157592773,23.56216430664062,2,9189.828225875,2,0,1580905474.069392,1580903939.50652,1147,0.4533899,0,0,1470.409,1,0,1580905462.254594,9187.244052,0,2.478485,97.1743
1580905474.602394,6,0,1580904337.000819,41.20701635159924,29.07533761282497,172.748,-1,-1,5.74967098236084,48.00724964208526,-9999,9190.377755875001,0.9684600830078125,0.0848846435546875,-0.1406402587890625,9190.372689875001,-0.7631285842865118,1.425050487709142,-0.07970092839559173,-0.002680327743291855,-0.006969179026782513,0.008698225952684879,-0.01783311367034912,0.007152706384658813,0.003645718097686768,2,0.2152648455015959,0.6174757875862646,-0.3057278501836304,0.692037090752188,0.9862571954727173,0.07961657643318176,-0.1447694003582001,39.70309448242188,19.98551368713379,23.53671264648438,2,9189.828225875,2,0,1580905474.069392,1580903939.50652,1147,0.4533899,0,0,1470.409,1,0,1580905462.254594,9187.244052,0,2.478485,97.1743
1580905474.612695,7,0,1580904337.000819,41.20701635159924,29.07533761282497,172.748,-1,-1,5.74967098236084,48.00724964208526,-9999,9190.387795875,0.970916748046875,0.0855560302734375,-0.1414337158203125,9190.382729875,-0.763123536304077,1.425017531102511,-0.07965225161701853,0.0001514116302132607,-0.002135541290044785,0.005491513758897781,-0.01902258396148682,0.005217671394348145,0.003098726272583008,2,0.2152755977696317,0.6174586583718963,-0.3057151694600326,0.6920545265740534,0.9862561225891113,0.079568050801754,-0.144802451133728,39.70309448242188,19.98551368713379,23.53671264648438,2,9189.828225875,2,0,1580905474.069392,1580903939.50652,1147,0.4533899,0,0,1470.409,1,0,1580905462.254594,9187.244052,0,2.478485,97.1743
1580905474.622522,8,0,1580904337.000819,41.20701635159924,29.07533761282497,172.748,-1,-1,5.74967098236084,48.00724964208526,-9999,9190.397836875001,0.9735107421875,0.0844268798828125,-0.139617919921875,9190.392800875001,-0.7631306425038269,1.424955575930403,-0.07964809593460745,0.0003418270498514175,-0.005848255008459091,0.0004227189347147942,-0.01655721664428711,0.005893200635910034,0.002366483211517334,2,0.2152697981692924,0.6174359203340517,-0.305723060704176,0.6920731351657819,0.9862474799156189,0.07956390827894211,-0.1448635905981064,39.88841247558594,19.72975158691406,23.5113525390625,2,9189.828225875,2,0,1580905474.069392,1580903939.50652,1147,0.4533899,0,0,1470.409,1,0,1580905462.254594,9187.244052,0,2.478485,97.1743
1580905474.649337,9,0,1580904337.000819,41.20701635159924,29.07533761282497,172.748,-1,-1,5.74967098236084,48.00724964208526,-9999,9190.407876875001,0.9711456298828125,0.084014892578125,-0.1417083740234375,9190.402840875,-0.7631389354301186,1.424867787945425,-0.07967984872837081,0.0008217291906476021,-0.009391856379806995,-0.002862290013581514,-0.01394790410995483,0.004732370376586914,0.00426870584487915,2,0.2152476358647895,0.6174087371806826,-0.3057448249716619,0.6920946862627437,0.9862323403358459,0.07959556579589844,-0.144949808716774,39.88841247558594,19.72975158691406,23.5113525390625,2,9189.828225875,2,0,1580905474.069392,1580903939.50652,1147,0.4533899,0,0,1470.409,1,0,1580905462.254594,9187.244052,0,2.478485,97.1743
1580905474.650673,10,0,1580904337.000819,41.20701635159924,29.07533761282497,172.748,-1,-1,5.74967098236084,48.00724964208526,-9999,9190.417916875,0.9670867919921875,0.0849151611328125,-0.1422271728515625,9190.412881875001,-0.7631475068708071,1.424800551589521,-0.07970204922576503,0.002139461226761341,-0.008040834218263626,-0.001326178666204214,-0.01630145311355591,0.004298210144042969,0.002244353294372559,2,0.2152321195729158,0.6173874030761849,-0.3057616314055088,0.6921110732741319,0.9862207770347595,0.0796176940202713,-0.1450158655643463,39.57978057861328,19.66543579101562,23.5699462890625,2,9189.828225875,2,0,1580905474.069392,1580903939.50652,1147,0.4533899,0,0,1470.409,1,0,1580905462.254594,9187.244052,0,2.478485,97.1743
1580905474.652759,11,0,1580904337.000819,41.20701635159924,29.07533761282497,172.748,-1,-1,5.74967098236084,48.00724964208526,-9999,9190.427956875001,0.9627532958984375,0.087158203125,-0.142791748046875,9190.422921875001,-0.7631439397755003,1.424772684574628,-0.07970214980744128,0.0001847771927714348,-0.003401992842555046,-0.0006814952939748764,-0.02035617828369141,0.005198389291763306,0.001753270626068115,2,0.215226695558433,0.6173781597382093,-0.3057634253354167,0.6921202968713156,0.9862168431282043,0.07961779087781906,-0.145043358206749,39.57978057861328,19.66543579101562,23.5699462890625,2,9189.828225875,2,0,1580905474.069392,1580903939.50652,1147,0.4533899,0,0,1470.409,1,0,1580905462.254594,9187.244052,0,2.478485,97.1743
1580905474.662773,12,0,1580904337.000819,41.20701635159924,29.07533761282497,172.748,-1,-1,5.74967098236084,48.00724964208526,-9999,9190.437997875,0.9633331298828125,0.0882720947265625,-0.1428070068359375,9190.432961875,-0.7631477380423605,1.424776622126287,-0.07963182372174281,0.002297462895512581,0.0008697193115949631,0.007005186751484871,-0.0246957540512085,0.00751158595085144,0.001185595989227295,2,0.2152534949272785,0.6173700605359158,-0.3057433966280816,0.69212801597351,0.9862229228019714,0.0795476883649826,-0.145040288567543,39.59052276611328,19.7061882019043,23.48019409179688,2,9189.828225875,2,0,1580905474.069392,1580903939.50652,1147,0.4533899,0,0,1470.409,1,0,1580905462.254594,9187.244052,0,2.478485,97.1743
1580905474.672793,13,0,1580904337.000819,41.20701635159924,29.07533761282497,172.748,-1,-1,5.74967098236084,48.00724964208526,-9999,9190.448037875001,0.968841552734375,0.0854949951171875,-0.140106201171875,9190.443002875001,-0.7631408755368679,1.424781644522419,-0.07951444556945281,0.001491057686507702,0.0006438829004764557,0.01233363896608353,-0.02412593364715576,0.008742660284042358,0.001166701316833496,2,0.2152939028764241,0.6173574267061587,-0.3057055644220603,0.6921434237060758,0.9862328767776489,0.07943068444728851,-0.1450366824865341,39.59052276611328,19.7061882019043,23.48019409179688,2,9189.828225875,2,0,1580905474.069392,1580903939.50652,1147,0.4533899,0,0,1470.409,1,0,1580905462.254594,9187.244052,0,2.478485,97.1743
1580905474.68276,14,0,1580904337.000819,41.20701635159924,29.07533761282497,172.748,-1,-1,5.74967098236084,48.00724964208526,-9999,9190.458077875001,0.9726715087890625,0.0848388671875,-0.139068603515625,9190.453042875,-0.7631262143283339,1.424736351670447,-0.07938019478707818,0.0007317904382944107,-0.005562614649534225,0.01474672928452492,-0.01862138509750366,0.006099581718444824,0.00391387939453125,2,0.2153302191124105,0.6173260444431795,-0.3056654298150978,0.6921778254936464,0.9862368106842041,0.07929685711860657,-0.1450829058885574,39.71142578125,19.8602409362793,23.48226928710938,2,9189.828225875,2,0,1580905474.069392,1580903939.50652,1147,0.4533899,0,0,1470.409,1,0,1580905462.254594,9187.244052,0,2.478485,97.1743
1580905474.716407,15,0,1580904337.000819,41.20701635159924,29.07533761282497,172.748,-1,-1,5.74967098236084,48.00724964208526,-9999,9190.468148875001,0.9742889404296875,0.0845184326171875,-0.1396026611328125,9190.463082875001,-0.7631318859704106,1.42465627792535,-0.07927981844170733,0.003001232631504536,-0.006403351202607155,0.01010225899517536,-0.01478767395019531,0.005543619394302368,0.00503164529800415,2,0.2153554532818593,0.6172847930314607,-0.3056461549561303,0.6922152361634408,0.9862329959869385,0.07919679582118988,-0.1451630294322968,39.71142578125,19.8602409362793,23.48226928710938,2,9189.828225875,2,0,1580905474.069392,1580903939.50652,1147,0.4533899,0,0,1470.409,1,0,1580905462.254594,9187.244052,0,2.478485,97.1743
1580905474.718056,16,0,1580904337.000819,41.20701635159924,29.07533761282497,172.748,-1,-1,5.74967098236084,48.00724964208526,-9999,9190.478188875,0.9745635986328125,0.086639404296875,-0.1382904052734375,9190.473122875001,-0.763141269622945,1.424478974592172,-0.07915973028658295,0.002897636033594608,-0.0168815590441227,0.01148310676217079,-0.0131537914276123,0.005343049764633179,0.004674017429351807,2,0.2153739859988122,0.6172069448849393,-0.3056327737894814,0.6922847626654394,0.9862166047096252,0.07907707989215851,-0.1453392654657364,39.80706787109375,19.96516418457031,23.55044555664062,2,9189.828225875,2,0,1580905474.069392,1580903939.50652,1147,0.4533899,0,0,1470.409,1,0,1580905462.254594,9187.244052,0,2.478485,97.1743
1580905474.719211,17,0,1580904337.000819,41.20701635159924,29.07533761282497,172.748,-1,-1,5.74967098236084,48.00724964208526,-9999,9190.488229875,0.972747802734375,0.092529296875,-0.136016845703125,9190.483163875,-0.7631643700618769,1.424125015378595,-0.07892487365383968,0.0055865328758955,-0.03411616757512093,0.02265258505940437,-0.01284599304199219,0.007698416709899902,0.006338596343994141,2,0.2154105502656451,0.6170516681695466,-0.3056090372805633,0.692422381222077,0.9861835837364197,0.07884296029806137,-0.1456910669803619,39.95639038085938,19.96527099609375,23.43588256835938,2,9189.828225875,2,0,1580905474.069392,1580903939.50652,1147,0.4533899,0,0,1470.409,1,0,1580905462.254594,9187.244052,0,2.478485,97.1743
1580905474.723072,18,0,1580904337.000819,41.20701635159924,29.07533761282497,172.748,-1,-1,5.74967098236084,48.00724964208526,-9999,9190.498263916666,0.9734954833984375,0.0938262939453125,-0.13250732421875,9190.493197916667,-0.7632384686747348,1.42350001902996,-0.07853401180066359,0.01355417910963297,-0.06196537613868713,0.03889760375022888,-0.01460093259811401,0.01397848129272461,0.009233772754669189,2,0.2154770030037371,0.6167768704569802,-0.3055857943069653,0.6926567255333629,0.986122727394104,0.07845330983400345,-0.1463119089603424,39.95639038085938,19.96527099609375,23.43588256835938,2,9189.828225875,2,0,1580905474.069392,1580903939.50652,1147,0.4533899,0,0,1470.409,1,0,1580905462.254594,9187.244052,0,2.478485,97.1743
1580905474.733052,19,0,1580904337.000819,41.20701635159924,29.07533761282497,172.748,-1,-1,5.74967098236084,48.00724964208526,-9999,9190.508303916668,0.962646484375,0.0807952880859375,-0.14300537109375,9190.503237916668,-0.7632920893289747,1.422739115051523,-0.0780914917795948,0.01179226115345955,-0.07974891364574432,0.04476871341466904,-0.01377582550048828,0.01571714878082275,0.01349961757659912,2,0.2155347685279602,0.6164504051874874,-0.3055548121665979,0.692943027803647,0.9860454201698303,0.07801214605569839,-0.1470673233270645,39.93009948730469,19.80543518066406,23.434814453125,2,9189.828225875,2,0,1580905474.069392,1580903939.50652,1147,0.4533899,0,0,1470.409,1,0,1580905462.254594,9187.244052,0,2.478485,97.1743
1580905474.74291,20,0,1580904337.000819,41.20701635159924,29.07533761282497,172.748,-1,-1,5.74967098236084,48.00724964208526,-9999,9190.518344916667,0.95037841796875,0.0804290771484375,-0.1602630615234375,9190.513308916667,-0.7633561632985689,1.422320023933593,-0.07773868314880795,0.01108971796929836,-0.03931254893541336,0.03394376114010811,-0.02459025382995605,0.003038346767425537,0.003419280052185059,2,0.215616102544672,0.6162527026872406,-0.3055173378590603,0.6931100222778398,0.9860107898712158,0.07766040414571762,-0.1474846005439758,39.93009948730469,19.80543518066406,23.434814453125,2,9189.828225875,2,0,1580905474.069392,1580903939.50652,1147,0.4533899,0,0,1470.409,1,0,1580905462.254594,9187.244052,0,2.478485,97.1743
1580905474.777691,21,0,1580904337.000819,41.20701635159924,29.07533761282497,172.748,-1,-1,5.74967098236084,48.00724964208526,-9999,9190.528384916668,0.96875,0.079376220703125,-0.1488189697265625,9190.523348916668,-0.7634732206874643,1.422201858390251,-0.07747772767950607,0.01468196045607328,-0.008929915726184845,0.02442093007266521,-0.03686082363128662,0.002932637929916382,-0.01371872425079346,2,0.2157270137418852,0.6161653982891593,-0.3054931041689147,0.6931638234424664,0.9860133528709412,0.07740023732185364,-0.1476041078567505,39.95207977294922,19.72310638427734,23.38052368164062,2,9189.828225875,2,0,1580905474.069392,1580903939.50652,1147,0.4533899,0,0,1470.409,1,0,1580905462.254594,9187.244052,0,2.478485,97.1743
1580905474.779034,22,0,1580904337.000819,41.20701635159924,29.07533761282497,172.748,-1,-1,5.74967098236084,48.00724964208526,-9999,9190.538424916667,0.9818572998046875,0.0783538818359375,-0.13916015625,9190.533389916667,-0.7635933318225601,1.422046650631902,-0.07731675116876187,0.01350510958582163,-0.01415130868554115,0.01472435891628265,-0.01847869157791138,0.002040445804595947,-0.002119541168212891,2,0.2157976093945096,0.6160778301178971,-0.3055036454275811,0.6932150552922182,0.9860027432441711,0.0772397443652153,-0.1477590054273605,39.95207977294922,19.72310638427734,23.38052368164062,2,9189.828225875,2,0,1580905474.069392,1580903939.50652,1147,0.4533899,0,0,1470.409,1,0,1580905462.254594,9187.244052,0,2.478485,97.1743
1580905474.780338,23,0,1580904337.000819,41.20701635159924,29.07533761282497,172.748,-1,-1,5.74967098236084,48.00724964208526,-9999,9190.548464916666,0.9822540283203125,0.079986572265625,-0.1378326416015625,9190.543429916666,-0.7637393597955953,1.421720005751164,-0.07727830326815045,0.01552546303719282,-0.03138180077075958,0.001407685689628124,-0.005325973033905029,0.001056492328643799,0.007861912250518799,2,0.2158064328634664,0.6159438675779367,-0.3055780864221171,0.6932983494565422,0.985957145690918,0.07720141112804413,-0.1480814665555954,39.90090942382812,19.90751647949219,23.42926025390625,2,9189.828225875,2,0,1580905474.069392,1580903939.50652,1147,0.4533899,0,0,1470.409,1,0,1580905462.254594,9187.244052,0,2.478485,97.1743
1580905474.78325,24,0,1580904337.000819,41.20701635159924,29.07533761282497,172.748,-1,-1,5.74967098236084,48.00724964208526,-9999,9190.558505916668,0.977630615234375,0.0818634033203125,-0.138763427734375,9190.553469916667,-0.7638579992307049,1.421221342562469,-0.07728050629220512,0.0123682850971818,-0.04930860176682472,-0.002143373247236013,-0.004855096340179443,0.002686977386474609,0.00968170166015625,2,0.2157659523347046,0.6157584775611389,-0.3056736729284704,0.6934335604758072,0.9858831167221069,0.07720360904932022,-0.148573100566864,39.90090942382812,19.90751647949219,23.42926025390625,2,9189.828225875,2,0,1580905474.069392,1580903939.50652,1147,0.4533899,0,0,1470.409,1,0,1580905462.254594,9187.244052,0,2.478485,97.1743
1580905474.793338,25,0,1580904337.000819,41.20701635159924,29.07533761282497,172.748,-1,-1,5.74967098236084,48.00724964208526,-9999,9190.568545916667,0.968109130859375,0.086639404296875,-0.1417236328125,9190.563510916667,-0.7639082246430335,1.420597254719415,-0.07720373068861709,0.005096690729260445,-0.06208261474967003,0.007040069438517094,-0.009391367435455322,0.004640460014343262,0.009367883205413818,2,0.2157133517212826,0.6155267077556136,-0.3057356138538606,0.6936283965290402,0.9857960939407349,0.07712706178426743,-0.1491892486810684,39.90131378173828,19.97389221191406,23.32196044921875,2,9189.828225875,2,0,1580905474.069392,1580903939.50652,1147,0.4533899,0,0,1470.409,1,0,1580905462.254594,9187.244052,0,2.478485,97.1743
1580905474.803311,26,0,1580904337.000819,41.20701635159924,29.07533761282497,172.748,-1,-1,5.74967098236084,48.00724964208526,-9999,9190.578616916668,0.9629974365234375,0.089141845703125,-0.1444854736328125,9190.573550916668,-0.7639580901544497,1.419936668497397,-0.07699761319765074,0.008230965584516525,-0.06518013775348663,0.0207633376121521,-0.01882970333099365,0.009622186422348022,0.007061958312988281,2,0.2157011259646292,0.6152654886433536,-0.3057629805316271,0.6938518839978947,0.9857130646705627,0.07692155241966248,-0.1498427987098694,39.90131378173828,19.97389221191406,23.32196044921875,2,9189.828225875,2,0,1580905474.069392,1580903939.50652,1147,0.4533899,0,0,1470.409,1,0,1580905462.254594,9187.244052,0,2.478485,97.1743
1580905474.837725,27,0,1580904337.000819,41.20701635159924,29.07533761282497,172.748,-1,-1,5.74967098236084,48.00724964208526,-9999,9190.588656916667,0.9678497314453125,0.0859832763671875,-0.1453857421875,9190.583590916667,-0.7640104184020162,1.419257158443802,-0.07670296831908721,0.009687904268503189,-0.06801573932170868,0.02925238013267517,-0.02386164665222168,0.01241880655288696,0.004974186420440674,2,0.2157183300697531,0.6149858619411566,-0.3057670048506343,0.6940925956550691,0.985633373260498,0.07662777602672577,-0.1505159884691238,39.98335266113281,19.83220481872559,23.19537353515625,2,9189.828225875,2,0,1580905474.069392,1580903939.50652,1147,0.4533899,0,0,1470.409,1,0,1580905462.254594,9187.244052,0,2.478485,97.1743
1580905474.839082,28,0,1580904337.000819,41.20701635159924,29.07533761282497,172.748,-1,-1,5.74967098236084,48.00724964208526,-9999,9190.598696916668,0.971435546875,0.0829315185546875,-0.1455230712890625,9190.593630916666,-0.7640671881052976,1.418491753102803,-0.07636308805714238,0.01106316037476063,-0.07654611021280289,0.03398828208446503,-0.01891940832138062,0.009599566459655762,0.00483328104019165,2,0.2157398718001189,0.6146699559310472,-0.305768464022352,0.6943651182812995,0.9855436682701111,0.07628889381885529,-0.1512743085622787,39.98335266113281,19.83220481872559,23.19537353515625,2,9189.828225875,2,0,1580905474.069392,1580903939.50652,1147,0.4533899,0,0,1470.409,1,0,1580905462.254594,9188.185055,0,2.478485,97.17429
1580905474.840184,29,0,1580904337.000819,41.20701635159924,29.07533761282497,172.748,-1,-1,5.74967098236084,48.00724964208526,-9999,9190.608737916667,0.9725341796875,0.0818023681640625,-0.1454010009765625,9190.603671916668,-0.764155734393141,1.417635273210608,-0.0760493053743882,0.01425768621265888,-0.0843547135591507,0.0296788178384304,-0.01522725820541382,0.006861031055450439,0.005544364452362061,2,0.2157480391186881,0.6143222281186904,-0.3057985764749747,0.6946568448992405,0.9854371547698975,0.07597602158784866,-0.1521219611167908,39.94359588623047,19.72021484375,23.11013793945312,2,9189.828225875,2,0,1580905474.069392,1580903939.50652,1147,0.4533899,0,0,1470.409,1,0,1580905462.254594,9188.185055,0,2.478485,97.17429
1580905474.843543,30,0,1580904337.000819,41.20701635159924,29.07533761282497,172.748,-1,-1,5.74967098236084,48.00724964208526,-9999,9190.618777916667,0.973876953125,0.079986572265625,-0.1474761962890625,9190.613711916667,-0.764277462111099,1.416746147169929,-0.07581817824176461,0.01547528430819511,-0.08784691989421844,0.0212768092751503,-0.01401013135910034,0.00596269965171814,0.006546378135681152,2,0.2157318744010734,0.6139701699099083,-0.3058682854780482,0.6949423837956021,0.9853188395500183,0.07574556022882462,-0.1530007719993591,39.94359588623047,19.72021484375,23.11013793945312,2,9189.828225875,2,0,1580905474.069392,1580903939.50652,1147,0.4533899,0,0,1470.409,1,0,1580905462.254594,9188.185055,0,2.478485,97.17429
1580905474.85405,31,0,1580904337.000819,41.20701635159924,29.07533761282497,172.748,-1,-1,5.74967098236084,48.00724964208526,-9999,9190.628817916668,0.971954345703125,0.07843017578125,-0.1494903564453125,9190.623751916668,-0.7644500610066527,1.415853575515446,-0.07572004600320671,0.0186232253909111,-0.0880042091012001,0.007240136153995991,-0.01253777742385864,0.004244774580001831,0.005352795124053955,2,0.2156832782477154,0.6136285902898528,-0.3059954725802901,0.6952032484299875,0.9851893782615662,0.07564771175384521,-0.1538813561201096,39.95101928710938,19.80142211914062,23.169677734375,2,9189.828225875,2,0,1580905474.069392,1580903939.50652,1147,0.4533899,0,0,1470.409,1,0,1580905462.254594,9188.185055,0,2.478485,97.17429
1580905474.863645,32,0,1580904337.000819,41.20701635159924,29.07533761282497,172.748,-1,-1,5.74967098236084,48.00724964208526,-9999,9190.638857916667,0.9666748046875,0.0806732177734375,-0.1503143310546875,9190.633822916667,-0.7646616199502008,1.414980807680731,-0.07572663308131421,0.02025813981890678,-0.08734507113695145,-0.005198157392442226,-0.01432526111602783,0.002681821584701538,0.00419914722442627,2,0.2156122748292386,0.6133032074287985,-0.3061650786324914,0.6954376133785629,0.9850541353225708,0.0756542757153511,-0.1547410488128662,39.95101928710938,19.80142211914062,23.169677734375,2,9189.828225875,2,0,1580905474.069392,1580903939.50652,1147,0.4533899,0,0,1470.409,1,0,1580905462.254594,9188.185055,0,2.478485,97.17429
1580905474.899686,33,0,1580904337.000819,41.20701635159924,29.07533761282497,172.748,-1,-1,5.74967098236084,48.00724964208526,-9999,9190.648898916666,0.9549560546875,0.081878662109375,-0.157196044921875,9190.643862916668,-0.7648966956878154,1.414245259453435,-0.07573409342892076,0.0230445209890604,-0.07471513748168945,-0.003858902957290411,-0.01949018239974976,0.004917353391647339,0.004100441932678223,2,0.2155690531333259,0.6130230407237386,-0.3063283257541981,0.695626116763614,0.9849395155906677,0.07566171884536743,-0.1554654687643051,40.05437469482422,19.71406745910645,23.06500244140625,2,9189.828225875,2,0,1580905474.069392,1580903939.50652,1147,0.4533899,0,0,1470.409,1,0,1580905462.254594,9188.185055,0,2.478485,97.17429
1580905474.901012,34,0,1580904337.000819,41.20701635159924,29.07533761282497,172.748,-1,-1,5.74967098236084,48.00724964208526,-9999,9190.658938916667,0.95166015625,0.0811767578125,-0.1614532470703125,9190.653903916667,-0.7651628907451145,1.41380102635,-0.07571223189383976,0.02662034519016743,-0.04121629893779755,-0.0004942649975419044,-0.03114128112792969,0.00614464282989502,-0.00234299898147583,2,0.2155903763885466,0.6128369768020082,-0.3064623371815473,0.6957244371966111,0.9848719835281372,0.07563991844654083,-0.1559032648801804,40.05437469482422,19.71406745910645,23.06500244140625,2,9189.828225875,2,0,1580905474.069392,1580903939.50652,1147,0.4533899,0,0,1470.409,1,0,1580905462.254594,9188.185055,0,2.478485,97.17429
1580905474.901965,35,0,1580904337.000819,41.20701635159924,29.07533761282497,172.748,-1,-1,5.74967098236084,48.00724964208526,-9999,9190.668978916667,0.9624176025390625,0.080780029296875,-0.1546783447265625,9190.663943916667,-0.7654427956619088,1.413513057208598,-0.07566562015295149,0.02946381270885468,-0.02611695602536201,-0.0001948745921254158,-0.03439575433731079,0.0054892897605896,-0.006315767765045166,2,0.2156486430730258,0.6127005418423527,-0.3065769746324865,0.6957760389135734,0.9848305583000183,0.07559344172477722,-0.1561874151229858,39.93118286132812,19.95660781860352,23.143310546875,2,9189.828225875,2,0,1580905474.069392,1580903939.50652,1147,0.4533899,0,0,1470.409,1,0,1580905462.254594,9188.185055,0,2.478485,97.17429
1580905474.903591,36,0,1580904337.000819,41.20701635159924,29.07533761282497,172.748,-1,-1,5.74967098236084,48.00724964208526,-9999,9190.679019916668,0.96875,0.082763671875,-0.15045166015625,9190.673983916668,-0.765679758137549,1.413217293322374,-0.07553280427160822,0.02618599310517311,-0.0272756963968277,0.01018506195396185,-0.02360206842422485,0.005225121974945068,0.0007522702217102051,2,0.2157233245265683,0.6125547488912938,-0.3066520540163747,0.6958481227630702,0.9847941398620605,0.0754610002040863,-0.1564802527427673,39.93118286132812,19.95660781860352,23.143310546875,2,9189.828225875,2,0,1580905474.069392,1580903939.50652,1147,0.4533899,0,0,1470.409,1,0,1580905462.254594,9188.185055,0,2.478485,97.17429
1580905474.913906,37,0,1580904337.000819,41.20701635159924,29.07533761282497,172.748,-1,-1,5.74967098236084,48.00724964208526,-9999,9190.689059916667,0.9710235595703125,0.0826416015625,-0.151031494140625,9190.684023916667,-0.7658698456858379,1.412835334371973,-0.07533716082601426,0.02038747444748878,-0.03662589937448502,0.01562692783772945,-0.01722443103790283,0.007404088973999023,0.005357861518859863,2,0.215792810696569,0.6123757839899368,-0.3067015845418898,0.6959623204937838,0.9847489595413208,0.07526591420173645,-0.1568587273359299,39.94716644287109,19.70317840576172,23.25701904296875,2,9189.828225875,2,0,1580905474.069392,1580903939.50652,1147,0.4533899,0,0,1470.409,1,0,1580905462.254594,9188.185055,0,2.478485,97.17429
1580905474.923817,38,0,1580904337.000819,41.20701635159924,29.07533761282497,172.748,-1,-1,5.74967098236084,48.00724964208526,-9999,9190.699130916668,0.9657745361328125,0.0865936279296875,-0.150177001953125,9190.694064916666,-0.7660754990939768,1.412382449745795,-0.07505482957536053,0.02554442174732685,-0.04381589964032173,0.02539726719260216,-0.0149005651473999,0.007563948631286621,0.005227804183959961,2,0.2158871670247228,0.6121590659684648,-0.3067386171746609,0.6961073052995365,0.9846986532211304,0.07498437911272049,-0.1573080122470856,39.94716644287109,19.70317840576172,23.25701904296875,2,9189.828225875,2,0,1580905474.069392,1580903939.50652,1147,0.4533899,0,0,1470.409,1,0,1580905462.254594,9188.185055,0,2.478485,97.17429
1580905474.957465,39,0,1580904337.000819,41.20701635159924,29.07533761282497,172.748,-1,-1,5.74967098236084,48.00724964208526,-9999,9190.709170916667,0.96136474609375,0.0904083251953125,-0.1519775390625,9190.704104916667,-0.7663166810365555,1.411892621142754,-0.07470034386515655,0.02936785668134689,-0.04862002283334732,0.03182358294725418,-0.02009856700897217,0.01186990737915039,0.006569504737854004,2,0.2160124397122712,0.611916135099481,-0.3067707546334433,0.6962679077839454,0.9846477508544922,0.07463089376688004,-0.1577945351600647,39.97278594970703,19.76510620117188,23.03927612304688,2,9189.828225875,2,0,1580905474.069392,1580903939.50652,1147,0.4533899,0,0,1470.409,1,0,1580905462.254594,9188.185055,0,2.478485,97.17429
1580905474.958978,40,0,1580904337.000819,41.20701635159924,29.07533761282497,172.748,-1,-1,5.74967098236084,48.00724964208526,-9999,9190.719210916668,0.95074462890625,0.083160400390625,-0.16033935546875,9190.714144916667,-0.7666262579323454,1.411522701353054,-0.0742745039558111,0.03727637976408005,-0.0362967774271965,0.03870652243494987,-0.02448117733001709,0.01610973477363586,0.005138635635375977,2,0.2162025096055612,0.611698110377546,-0.3067927560068385,0.6963907767056784,0.9846205711364746,0.07420623302459717,-0.1581637859344482,39.97278594970703,19.76510620117188,23.03927612304688,2,9189.828225875,2,0,1580905474.069392,1580903939.50652,1147,0.4533899,0,0,1470.409,1,0,1580905462.254594,9188.185055,0,2.478485,97.17429
1580905474.96006,41,0,1580904337.000819,41.20701635159924,29.07533761282497,172.748,-1,-1,5.74967098236084,48.00724964208526,-9999,9190.729251916668,0.9441986083984375,0.0841522216796875,-0.16326904296875,9190.724185916668,-0.7669852559931569,1.41146045605865,-0.07390999830379881,0.03880570828914642,-0.002928057685494423,0.03399869054555893,-0.03511810302734375,0.00922587513923645,-0.003157496452331543,2,0.2164329554894793,0.6115898114050182,-0.3068168611807229,0.6964036654592936,0.9846373200416565,0.07384272664785385,-0.1582293510437012,40.11785125732422,19.46320724487305,23.03244018554688,2,9189.828225875,2,0,1580905474.069392,1580903939.50652,1147,0.4533899,0,0,1470.409,1,0,1580905462.254594,9188.185055,0,2.478485,97.17429
1580905474.964485,42,0,1580904337.000819,41.20701635159924,29.07533761282497,172.748,-1,-1,5.74967098236084,48.00724964208526,-9999,9190.739291916667,0.953765869140625,0.0698089599609375,-0.1661376953125,9190.734225916667,-0.767385896016165,1.411737805991882,-0.07362076121317333,0.04488836601376534,0.03329785540699959,0.02631227485835552,-0.04172897338867188,0.01050645112991333,-0.006357014179229736,2,0.2167012634046257,0.611605043070418,-0.3068409104418316,0.6962964054941896,0.9847024083137512,0.07355427742004395,-0.1579596698284149,40.11785125732422,19.46320724487305,23.03244018554688,2,9189.828225875,2,0,1580905474.069392,1580903939.50652,1147,0.4533899,0,0,1470.409,1,0,1580905462.254594,9188.185055,0,2.478485,97.17429
1580905474.974031,43,0,1580904337.000819,41.20701635159924,29.07533761282497,172.748,-1,-1,5.74967098236084,48.00724964208526,-9999,9190.749331916668,0.95379638671875,0.0654754638671875,-0.1649322509765625,9190.744296916668,-0.7677053023586143,1.41232996443443,-0.07337532996534517,0.03492054715752602,0.06323646754026413,0.01893547922372818,-0.03227311372756958,-0.003591775894165039,-0.00980687141418457,2,0.2169774414452184,0.6117443126729903,-0.3068154012709359,0.6960992009597167,0.9848135113716125,0.07330950349569321,-0.1573793739080429,39.99607849121094,19.7935676574707,23.04666137695312,2,9189.828225875,2,0,1580905474.069392,1580903939.50652,1147,0.4533899,0,0,1470.409,1,0,1580905462.254594,9188.185055,0,2.478485,97.17429
1580905474.984057,44,0,1580904337.000819,41.20701635159924,29.07533761282497,172.748,-1,-1,5.74967098236084,48.00724964208526,-9999,9190.759371916667,0.9632568359375,0.075469970703125,-0.1552581787109375,9190.754336916667,-0.7679704512326103,1.413068716484591,-0.07317187174396553,0.02869167923927307,0.0761868879199028,0.01539560500532389,-0.03237366676330566,-0.00772210955619812,-0.009327828884124756,2,0.2172445067734354,0.6119458809024552,-0.3067673560100929,0.6958598177652868,0.9849441647529602,0.07310659438371658,-0.1566541194915771,39.99607849121094,19.7935676574707,23.04666137695312,2,9189.828225875,2,0,1580905474.069392,1580903939.50652,1147,0.4533899,0,0,1470.409,1,0,1580905462.254594,9188.185055,0,2.478485,97.17429
1580905475.017449,45,0,1580904337.000819,41.20701635159924,29.07533761282497,172.748,-1,-1,5.74967098236084,48.00724964208526,-9999,9190.769412916667,0.967437744140625,0.0790557861328125,-0.152679443359375,9190.764376916668,-0.768255153751798,1.413827363326173,-0.07300299315452247,0.03182430937886238,0.07844942063093185,0.01064746268093586,-0.02304428815841675,0.00244101881980896,-0.0004001855850219727,2,0.2175082647271902,0.6121566547738921,-0.306734015839908,0.6956066064297881,0.9850748181343079,0.07293816655874252,-0.1559087634086609,40.09046936035156,19.65692138671875,22.91448974609375,2,9189.828225875,2,0,1580905474.069392,1580903939.50652,1147,0.4533899,0,0,1470.409,1,0,1580905462.254594,9188.185055,0,2.478485,97.17429
1580905475.018977,46,0,1580904337.000819,41.20701635159924,29.07533761282497,172.748,-1,-1,5.74967098236084,48.00724964208526,-9999,9190.779452916668,0.9750518798828125,0.0823822021484375,-0.1472015380859375,9190.774417916668,-0.7685493813100056,1.414514372891391,-0.07282792011905462,0.03136518225073814,0.07035607844591141,0.01339131779968739,-0.01898306608200073,0.006201654672622681,0.001502871513366699,2,0.217766126274091,0.612340536047434,-0.306709796951827,0.695374734548308,0.9851942658424377,0.07276355475187302,-0.1552339643239975,40.09046936035156,19.65692138671875,22.91448974609375,2,9189.828225875,2,0,1580905474.069392,1580903939.50652,1147,0.4533899,0,0,1470.409,1,0,1580905462.254594,9188.185055,0,2.478485,97.17429
1580905475.02027,47,0,1580904337.000819,41.20701635159924,29.07533761282497,172.748,-1,-1,5.74967098236084,48.00724964208526,-9999,9190.789492916667,0.9791259765625,0.081512451171875,-0.1472015380859375,9190.784457916667,-0.7688942367629604,1.415056316446456,-0.07269309808379981,0.03640525788068771,0.05523728579282761,0.008735273033380508,-0.01146280765533447,0.009662717580795288,0.006447672843933105,2,0.2180028835433196,0.6124736462435642,-0.3067307553895783,0.6951740964912192,0.9852880239486694,0.07262909412384033,-0.1547015458345413,40.24117279052734,19.68433570861816,22.835693359375,2,9189.828225875,2,0,1580905474.069392,1580903939.50652,1147,0.4533899,0,0,1470.409,1,0,1580905462.254594,9188.185055,0,2.478485,97.17429
1580905475.024102,48,0,1580904337.000819,41.20701635159924,29.07533761282497,172.748,-1,-1,5.74967098236084,48.00724964208526,-9999,9190.799532916668,0.963958740234375,0.0774383544921875,-0.151275634765625,9190.794497916668,-0.7692462795239736,1.415553722167808,-0.07257623096820875,0.0377349779009819,0.05125719308853149,0.005488079972565174,-0.007474064826965332,0.008909672498703003,0.005958259105682373,2,0.2182286394541492,0.6125927542487237,-0.306764275181214,0.6949835068978027,0.9853731989860535,0.07251253724098206,-0.1542127579450607,40.24117279052734,19.68433570861816,22.835693359375,2,9189.828225875,2,0,1580905474.069392,1580903939.50652,1147,0.4533899,0,0,1470.409,1,0,1580905462.254594,9188.185055,0,2.478485,97.17429
1580905475.034206,49,0,1580904337.000819,41.20701635159924,29.07533761282497,172.748,-1,-1,5.74967098236084,48.00724964208526,-9999,9190.809573916667,0.9506988525390625,0.0772857666015625,-0.1584930419921875,9190.804537916667,-0.7695184876297538,1.41621155488524,-0.07237700408395263,0.02970661036670208,0.0683664008975029,0.01438729837536812,-0.02275687456130981,0.005034476518630981,0.001237392425537109,2,0.2184838715068763,0.612765389330482,-0.3067280560511078,0.6947671719726917,0.9854888319969177,0.0723138302564621,-0.1535667479038239,40.11106872558594,19.78310775756836,22.78488159179688,2,9189.828225875,2,0,1580905474.069392,1580903939.50652,1147,0.4533899,0,0,1470.409,1,0,1580905462.254594,9188.185055,0,2.478485,97.17429
1580905475.0443,50,0,1580904337.000819,41.20701635159924,29.07533761282497,172.748,-1,-1,5.74967098236084,48.00724964208526,-9999,9190.819644916668,0.943115234375,0.088226318359375,-0.160003662109375,9190.814578916667,-0.7697562477885301,1.417125309917477,-0.07196270640165696,0.03031540848314762,0.09132418036460876,0.03851687163114548,-0.03618639707565308,0.005295723676681519,-0.006877124309539795,2,0.2188444061920343,0.6130022439662063,-0.3065880350029848,0.6945064327942723,0.9856581687927246,0.0719006136059761,-0.152670755982399,40.11106872558594,19.78310775756836,22.78488159179688,2,9189.828225875,2,0,1580905474.069392,1580903939.50652,1147,0.4533899,0,0,1470.409,1,0,1580905462.254594,9188.185055,0,2.478485,97.17429
1580905475.074519,51,0,1580904337.000819,41.20701635159924,29.07533761282497,172.748,-1,-1,5.74967098236084,48.00724964208526,-9999,9190.829684916667,0.9475860595703125,0.0915069580078125,-0.1512908935546875,9190.824618916668,-0.7700038388555112,1.4182595248898,-0.07131802536243442,0.0329013392329216,0.1162276640534401,0.06184083223342896,-0.04398816823959351,0.0168800950050354,-0.009499907493591309,2,0.2193235679565766,0.6132840390541272,-0.3063586893112902,0.6942076674065385,0.9858763217926025,0.071257583796978,-0.1515597254037857,40.13227081298828,19.56980133056641,22.84820556640625,2,9189.828225875,2,0,1580905474.069392,1580903939.50652,1147,0.4533899,0,0,1470.409,1,0,1580905462.254594,9188.185055,0,2.478485,97.17429
1580905475.075882,52,0,1580904337.000819,41.20701635159924,29.07533761282497,172.748,-1,-1,5.74967098236084,48.00724964208526,-9999,9190.839724916666,0.96331787109375,0.0893707275390625,-0.1440277099609375,9190.834658916667,-0.770388264289619,1.419382060327923,-0.07059414583229576,0.0493258535861969,0.1161259338259697,0.06626700609922409,-0.0397377610206604,0.02088367938995361,-0.00188755989074707,2,0.2198708865153021,0.6135360299370927,-0.3061541437027119,0.693901941411282,0.9860964417457581,0.07053552567958832,-0.1504606604576111,40.13227081298828,19.56980133056641,22.84820556640625,2,9189.828225875,2,0,1580905474.069392,1580903939.50652,1147,0.4533899,0,0,1470.409,1,0,1580905462.254594,9188.185055,0,2.478485,97.17429
1580905475.076993,53,0,1580904337.000819,41.20701635159924,29.07533761282497,172.748,-1,-1,5.74967098236084,48.00724964208526,-9999,9190.849764916667,0.97845458984375,0.0832366943359375,-0.139556884765625,9190.844699916668,-0.7709015238647575,1.420321826537885,-0.06992501272996238,0.06001391261816025,0.09750804305076599,0.05832705646753311,-0.02419334650039673,0.01941576600074768,0.004455208778381348,2,0.2204099940110877,0.613717317958668,-0.3060301438753675,0.6936254321963438,0.986284077167511,0.06986804306507111,-0.149540975689888,39.93708801269531,19.71275329589844,22.91964721679688,2,9189.828225875,2,0,1580905474.069392,1580903939.50652,1147,0.4533899,0,0,1470.409,1,0,1580905462.254594,9188.185055,0,2.478485,97.17429
1580905475.084308,54,0,1580904337.000819,41.20701635159924,29.07533761282497,172.748,-1,-1,5.74967098236084,48.00724964208526,-9999,9190.859805916667,0.9716644287109375,0.0765838623046875,-0.1440277099609375,9190.854739916667,-0.7715407089588571,1.421107720639097,-0.06939534867944412,0.07145378738641739,0.08020815253257751,0.04342587292194366,-0.009210407733917236,0.01381075382232666,0.008155345916748047,2,0.2209146289348049,0.6138493966094243,-0.3060077800984431,0.693357700575474,0.9864376187324524,0.06933966279029846,-0.1487712860107422,39.93708801269531,19.71275329589844,22.91964721679688,2,9189.828225875,2,0,1580905474.069392,1580903939.50652,1147,0.4533899,0,0,1470.409,1,0,1580905462.254594,9188.185055,0,2.478485,97.17429
1580905475.094682,55,0,1580904337.000819,41.20701635159924,29.07533761282497,172.748,-1,-1,5.74967098236084,48.00724964208526,-9999,9190.869845916668,0.963836669921875,0.0599822998046875,-0.143646240234375,9190.864810916668,-0.7722119662564644,1.421902873336628,-0.0690276897525221,0.07314995676279068,0.08594086766242981,0.02366042695939541,-0.01614367961883545,0.007525205612182617,0.002902984619140625,2,0.2213728903032726,0.6140022119769134,-0.3060432907130523,0.6930605394539189,0.9865807890892029,0.0689728856086731,-0.1479906588792801,39.96974945068359,19.52360916137695,22.84658813476562,2,9189.828225875,2,0,1580905474.069392,1580903939.50652,1147,0.4533899,0,0,1470.409,1,0,1580905462.254594,9188.185055,0,2.478485,97.17429
1580905475.10457,56,0,1580904337.000819,41.20701635159924,29.07533761282497,172.748,-1,-1,5.74967098236084,48.00724964208526,-9999,9190.879885916667,0.964752197265625,0.068115234375,-0.1301116943359375,9190.874850916667,-0.7726968968693808,1.422382264888786,-0.06856038394712453,0.05323966220021248,0.05165072530508041,0.03984309732913971,-0.02407431602478027,-0.008609622716903687,0.002815485000610352,2,0.2217610168423546,0.6140528018959924,-0.3060193234062908,0.6929021281508086,0.9866833090782166,0.06850668787956238,-0.1475224196910858,39.96974945068359,19.52360916137695,22.84658813476562,2,9189.828225875,2,0,1580905474.069392,1580903939.50652,1147,0.4533899,0,0,1470.409,1,0,1580905462.254594,9188.185055,0,2.478485,97.17429
1580905475.130563,57,0,1580904337.000819,41.20701635159924,29.07533761282497,172.748,-1,-1,5.74967098236084,48.00724964208526,-9999,9190.889926916667,0.973419189453125,0.081878662109375,-0.1202850341796875,9190.884890916666,-0.7732017268372581,1.422277421653487,-0.06803400236655582,0.05686572566628456,-0.004474839195609093,0.04672451689839363,-0.02317893505096436,4.911422729492188e-05,0.01645898818969727,2,0.2220867148218617,0.6138907845778032,-0.3060493994658767,0.6929281691538527,0.9867034554481506,0.0679815337061882,-0.1476311981678009,39.88290405273438,19.71873092651367,22.82516479492188,2,9189.828225875,2,0,1580905474.069392,1580903939.50652,1147,0.4533899,0,0,1470.409,1,0,1580905462.254594,9188.185055,0,2.478485,97.17429
1580905475.131587,58,0,1580904337.000819,41.20701635159924,29.07533761282497,172.748,-1,-1,5.74967098236084,48.00724964208526,-9999,9190.899966916668,1.002395629882812,0.077178955078125,-0.1115875244140625,9190.894930916667,-0.773989158236709,1.421351895704235,-0.06774277934888145,0.0815521627664566,-0.08794416487216949,0.01961487159132957,-0.01439404487609863,0.01410350203514099,0.02720308303833008,2,0.2222899864281275,0.6134439830060073,-0.306338544742216,0.6931308527905734,0.9865858554840088,0.06769097596406937,-0.1485472768545151,39.88290405273438,19.71873092651367,22.82516479492188,2,9189.828225875,2,0,1580905474.069392,1580903939.50652,1147,0.4533899,0,0,1470.409,1,0,1580905462.254594,9188.185055,0,2.478485,97.17429
1580905475.134704,59,0,1580904337.000819,41.20701635159924,29.07533761282497,172.748,-1,-1,5.74967098236084,48.00724964208526,-9999,9190.910006916667,1.014923095703125,0.06072998046875,-0.110443115234375,9190.904971916667,-0.7751069634600011,1.41958292745954,-0.0679052104066573,0.1090812608599663,-0.1681785434484482,-0.03244220465421677,0.01485806703567505,0.009241551160812378,0.03764611482620239,2,0.222303753468171,0.6127281024250035,-0.3069708681421014,0.6934797868021234,0.9863106608390808,0.06785303354263306,-0.1502906233072281,40.05645751953125,19.57247161865234,22.87594604492188,2,9189.828225875,2,0,1580905474.069392,1580903939.50652,1147,0.4533899,0,0,1470.409,1,0,1580905462.254594,9188.185055,0,2.478485,97.17429
1580905475.144924,60,0,1580904337.000819,41.20701635159924,29.07533761282497,172.748,-1,-1,5.74967098236084,48.00724964208526,-9999,9190.920046916668,0.988433837890625,0.0662994384765625,-0.1278228759765625,9190.915011916668,-0.7763884654728956,1.41719523394558,-0.06839287990060389,0.117149829864502,-0.2342872619628906,-0.06961327791213989,0.02778053283691406,-0.007694602012634277,0.04114317893981934,2,0.2221558064699979,0.6118224633173948,-0.3078251999191048,0.6939480350098581,0.9859163165092468,0.06833957135677338,-0.1526401489973068,40.05645751953125,19.57247161865234,22.87594604492188,2,9189.828225875,2,0,1580905474.069392,1580903939.50652,1147,0.4533899,0,0,1470.409,1,0,1580905462.254594,9188.185055,0,2.478485,97.17429
1580905475.15488,61,0,1580904337.000819,41.20701635159924,29.07533761282497,172.748,-1,-1,5.74967098236084,48.00724964208526,-9999,9190.930117916667,0.955169677734375,0.084320068359375,-0.15771484375,9190.925051916667,-0.7777272243712212,1.414830377518934,-0.06884460517917784,0.1232698038220406,-0.2306891083717346,-0.06246956065297127,0.001686215400695801,-0.002576321363449097,0.026092529296875,2,0.2220399914300741,0.6109132740690587,-0.3086861078677852,0.6944033910244524,0.9855217933654785,0.06879023462533951,-0.1549664288759232,40.15259552001953,19.59323883056641,22.53164672851562,2,9189.828225875,2,0,1580905474.069392,1580903939.50652,1147,0.4533899,0,0,1470.409,1,0,1580905462.254594,9188.185055,0,2.478485,97.17429
1580905475.164945,62,0,1580904337.000819,41.20701635159924,29.07533761282497,172.748,-1,-1,5.74967098236084,48.00724964208526,-9999,9190.940157916668,0.90728759765625,0.0827484130859375,-0.1960906982421875,9190.935092916667,-0.7791249512146919,1.413208566270127,-0.06924819201013641,0.1317719519138336,-0.1594277024269104,-0.06071693450212479,-0.03129744529724121,0.01504120230674744,-0.002203702926635742,2,0.2220724922938548,0.6102488979216012,-0.3094707385148877,0.6946278897920312,0.985241711139679,0.06919286400079727,-0.1565601825714111,40.30910491943359,19.5617733001709,22.0460205078125,2,9189.828225875,2,0,1580905474.069392,1580903939.50652,1147,0.4533899,0,0,1470.409,1,0,1580905462.254594,9188.185055,0,2.478485,97.17429
1580905475.192193,63,0,1580904337.000819,41.20701635159924,29.07533761282497,172.748,-1,-1,5.74967098236084,48.00724964208526,-9999,9190.950198916667,0.8523406982421875,0.079864501953125,-0.2335662841796875,9190.945132916668,-0.780551732107058,1.413336001583241,-0.06964003236780071,0.1349733024835587,0.01991813816130161,-0.05763299763202667,-0.07917237281799316,0.01307815313339233,-0.04070931673049927,2,0.2223881395944359,0.6101871314918912,-0.3100676293654737,0.6943149002526618,0.9852347373962402,0.06958375871181488,-0.1564303636550903,40.30910491943359,19.5617733001709,22.0460205078125,2,9189.828225875,2,0,1580905474.069392,1580903939.50652,1147,0.4533899,0,0,1470.409,1,0,1580905462.254594,9188.185055,0,2.478485,97.17429
1580905475.193722,64,0,1580904337.000819,41.20701635159924,29.07533761282497,172.748,-1,-1,5.74967098236084,48.00724964208526,-9999,9190.960238916667,0.859161376953125,0.0427093505859375,-0.2461395263671875,9190.955172916667,-0.7818523352451501,1.41590333630011,-0.07034600181784258,0.1141377910971642,0.2696086764335632,-0.0920863151550293,-0.1344692707061768,0.009489119052886963,-0.08072566986083984,2,0.2229324833351158,0.6110275833570971,-0.3104413565848754,0.6932333537689127,0.9855843186378479,0.07028799504041672,-0.1538928002119064,40.1793212890625,19.79672622680664,21.90243530273438,2,9189.828225875,2,0,1580905474.069392,1580903939.50652,1147,0.4533899,0,0,1470.409,1,0,1580905462.254594,9188.185055,0,2.478485,97.17429
1580905475.195567,65,0,1580904337.000819,41.20701635159924,29.07533761282497,172.748,-1,-1,5.74967098236084,48.00724964208526,-9999,9190.970278916668,0.9579925537109375,0.0548095703125,-0.1744537353515625,9190.965212916668,-0.7829944077312962,1.420036028314613,-0.07133794982059774,0.09850922226905823,0.4340836405754089,-0.1147139966487885,-0.1282073855400085,-0.02865675091743469,-0.09738898277282715,2,0.2235713723163795,0.6124638142172715,-0.3106686957493733,0.6916565568980804,0.9861424565315247,0.07127745449542999,-0.1498078405857086,40.1793212890625,19.79672622680664,21.90243530273438,2,9189.828225875,2,0,1580905474.069392,1580903939.50652,1147,0.4533899,0,0,1470.409,1,0,1580905462.254594,9188.185055,0,2.478485,97.17429
1580905475.205011,66,0,1580904337.000819,41.20701635159924,29.07533761282497,172.748,-1,-1,5.74967098236084,48.00724964208526,-9999,9190.980319916667,1.020767211914062,0.0432281494140625,-0.1228485107421875,9190.975253916667,-0.7838451102102566,1.423914104060902,-0.07263604865382146,0.06691321730613708,0.391047477722168,-0.1407242864370346,-0.02985793352127075,-0.01785284280776978,-0.02954679727554321,2,0.2239747012593712,0.6138818782994688,-0.3109131369117256,0.6901576047574269,0.9866238236427307,0.07257219403982162,-0.1459687501192093,40.09867858886719,19.97175216674805,22.14620971679688,2,9189.828225875,2,0,1580905474.069392,1580903939.50652,1147,0.4533899,0,0,1470.409,1,0,1580905462.254594,9188.185055,0,2.478485,97.17429
1580905475.215385,67,0,1580904337.000819,41.20701635159924,29.07533761282497,172.748,-1,-1,5.74967098236084,48.00724964208526,-9999,9190.990359916666,1.031219482421875,0.0437469482421875,-0.11932373046875,9190.985324916668,-0.7842365868561639,1.427164448408451,-0.07430174585269546,0.01030064187943935,0.3213270306587219,-0.1692690402269363,0.03256803750991821,-0.03109747171401978,0.018829345703125,2,0.2240109547133786,0.6151806956409418,-0.3111782037377673,0.6888686543191067,0.9869720339775085,0.07423339784145355,-0.1427436023950577,40.09867858886719,19.97175216674805,22.14620971679688,2,9189.828225875,2,0,1580905474.069392,1580903939.50652,1147,0.4533899,0,0,1470.409,1,0,1580905462.254594,9188.185055,0,2.478485,97.17429
1580905475.225095,68,0,1580904337.000819,41.20701635159924,29.07533761282497,172.748,-1,-1,5.74967098236084,48.00724964208526,-9999,9191.000399916667,1.026870727539062,0.0609588623046875,-0.126922607421875,9190.995364916667,-0.7843764474415214,1.430043125663211,-0.076199358183818,-0.01300041936337948,0.2875277996063232,-0.1799805462360382,0.04275453090667725,-0.03247332572937012,0.01948881149291992,2,0.2238312180254929,0.6164078803247862,-0.3114676952964441,0.6876981833594227,0.9872375726699829,0.07612563669681549,-0.139881819486618,39.73880004882812,19.97103309631348,22.34390258789062,2,9189.828225875,2,0,1580905474.069392,1580903939.50652,1147,0.4533899,0,0,1470.409,1,0,1580905462.254594,9188.185055,0,2.478485,97.17429
1580905475.25585,69,0,1580904337.000819,41.20701635159924,29.07533761282497,172.748,-1,-1,5.74967098236084,48.00724964208526,-9999,9191.010439916667,1.042892456054688,0.0404205322265625,-0.121307373046875,9191.005404916667,-0.7843160134872021,1.432633982692385,-0.07870788605660582,-0.0426735058426857,0.2591150403022766,-0.2474087178707123,0.03823888301849365,-0.01776549220085144,0.009301900863647461,2,0.2233301099128904,0.61763681711737,-0.3119031960682894,0.6865602413023972,0.9874045252799988,0.07862664759159088,-0.1372968554496765,39.73880004882812,19.97103309631348,22.34390258789062,2,9189.828225875,2,0,1580905474.069392,1580903939.50652,1147,0.4533899,0,0,1470.409,1,0,1580905462.254594,9188.185055,0,2.478485,97.17429
1580905475.257388,70,0,1580904337.000819,41.20701635159924,29.07533761282497,172.748,-1,-1,5.74967098236084,48.00724964208526,-9999,9191.020480916668,1.030715942382812,0.0668182373046875,-0.1154937744140625,9191.015444916668,-0.7841148738505818,1.434736829857704,-0.0816369781737824,-0.05933584272861481,0.2067966908216476,-0.287513256072998,0.0542064905166626,-0.04122713208198547,0.0128059983253479,2,0.2225619924686229,0.6187665022442737,-0.3124713580169646,0.6855332447267134,0.9874585270881653,0.08154632896184921,-0.1351883560419083,39.85538482666016,19.96320533752441,22.45361328125,2,9189.828225875,2,0,1580905474.069392,1580903939.50652,1147,0.4533899,0,0,1470.409,1,0,1580905462.254594,9188.185055,0,2.478485,97.17429
1580905475.25841,71,0,1580904337.000819,41.20701635159924,29.07533761282497,172.748,-1,-1,5.74967098236084,48.00724964208526,-9999,9191.030520916667,0.9949798583984375,0.07843017578125,-0.1304779052734375,9191.025485916667,-0.7837576787694905,1.436650893230333,-0.08472779044621104,-0.07794065028429031,0.1907930374145508,-0.3016416132450104,0.04202771186828613,-0.0179133415222168,0.01669281721115112,2,0.221659707272091,0.6198670151656364,-0.3130565610962645,0.6845637916621888,0.9874610900878906,0.0846264511346817,-0.1332637220621109,39.85538482666016,19.96320533752441,22.45361328125,2,9189.828225875,2,0,1580905474.069392,1580903939.50652,1147,0.4533899,0,0,1470.409,1,0,1580905462.254594,9188.185055,0,2.478485,97.17429
1580905475.265358,72,0,1580904337.000819,41.20701635159924,29.07533761282497,172.748,-1,-1,5.74967098236084,48.00724964208526,-9999,9191.040560916666,0.99957275390625,0.090087890625,-0.1185760498046875,9191.035525916668,-0.7833035883040994,1.438392343917955,-0.08783097952533583,-0.08582041412591934,0.1788319945335388,-0.2990356981754303,0.006326198577880859,-0.009396910667419434,-4.857778549194336e-05,2,0.2206965832059734,0.6209176443950976,-0.3136327913135348,0.6836584554065828,0.9874265789985657,0.08771809935569763,-0.1315085887908936,39.42673492431641,20.24809265136719,22.89068603515625,2,9189.828225875,2,0,1580905474.069392,1580903939.50652,1147,0.4533899,0,0,1470.409,1,0,1580905462.254594,9188.185055,0,2.478485,97.17429
1580905475.275325,73,0,1580904337.000819,41.20701635159924,29.07533761282497,172.748,-1,-1,5.74967098236084,48.00724964208526,-9999,9191.050631916667,0.988861083984375,0.100067138671875,-0.1136016845703125,9191.045565916667,-0.7827884475664486,1.439659901624659,-0.09082695543855152,-0.09269341826438904,0.1244291067123413,-0.2900779545307159,0.01101821660995483,-0.0007269680500030518,0.01056492328643799,2,0.2196783084891562,0.621796175619257,-0.3142096384428594,0.6829226294923082,0.9873274564743042,0.090702123939991,-0.1302219182252884,39.42673492431641,20.24809265136719,22.89068603515625,2,9189.828225875,2,0,1580905474.069392,1580903939.50652,1147,0.4533899,0,0,1470.409,1,0,1580905462.254594,9188.185055,0,2.478485,97.17429
1580905475.285365,74,0,1580904337.000819,41.20701635159924,29.07533761282497,172.748,-1,-1,5.74967098236084,48.00724964208526,-9999,9191.060671916668,0.974334716796875,0.1066131591796875,-0.126708984375,9191.055605916667,-0.7823650146957386,1.440861050568202,-0.09371885060168207,-0.079086534678936,0.1188726872205734,-0.2771954536437988,0.0004150867462158203,0.006369113922119141,0.01431691646575928,2,0.2187149971951722,0.6226259515445358,-0.3147949326692697,0.6822057797535255,0.9872187972068787,0.09358172118663788,-0.1290013492107391,39.38095092773438,20.55100250244141,23.15460205078125,2,9189.828225875,2,0,1580905474.069392,1580903939.50652,1147,0.4533899,0,0,1470.409,1,0,1580905462.254594,9188.185055,0,2.478485,97.17429
1580905475.315749,75,0,1580904337.000819,41.20701635159924,29.07533761282497,172.748,-1,-1,5.74967098236084,48.00724964208526,-9999,9191.070712916668,1.005279541015625,0.095733642578125,-0.1137237548828125,9191.065646916668,-0.7819437038218084,1.441915228123643,-0.096657659581841,-0.08163917064666748,0.1047387570142746,-0.2874302268028259,-0.0139693021774292,0.009986042976379395,0.0001318454742431641,2,0.2177127351080561,0.6234090373514738,-0.3154116970157763,0.6815260074124562,0.9870772361755371,0.09650722146034241,-0.1279246807098389,39.38095092773438,20.55100250244141,23.15460205078125,2,9189.828225875,2,0,1580905474.069392,1580903939.50652,1147,0.4533899,0,0,1470.409,1,0,1580905462.254594,9188.185055,0,2.478485,97.17429
1580905475.317119,76,0,1580904337.000819,41.20701635159924,29.07533761282497,172.748,-1,-1,5.74967098236084,48.00724964208526,-9999,9191.080752916667,0.994384765625,0.112030029296875,-0.1156463623046875,9191.075686916667,-0.7815254709617571,1.442497383990986,-0.09965059695557954,-0.07916349917650223,0.04481469839811325,-0.2928836047649384,0.01719248294830322,-0.003875732421875,0.01250433921813965,2,0.2166177645026043,0.6240356462625856,-0.3160973892836961,0.6809836783450898,0.9868608117103577,0.09948575496673584,-0.1273125112056732,39.09670257568359,20.87348556518555,23.3011474609375,2,9189.828225875,2,0,1580905474.069392,1580903939.50652,1147,0.4533899,0,0,1470.409,1,0,1580905462.254594,9188.185055,0,2.478485,97.17429
1580905475.318321,77,0,1580904337.000819,41.20701635159924,29.07533761282497,172.748,-1,-1,5.74967098236084,48.00724964208526,-9999,9191.090792916668,0.955841064453125,0.1129608154296875,-0.141326904296875,9191.085726916666,-0.7812144027503107,1.443465644474158,-0.1027771949157977,-0.06841828674077988,0.09853760898113251,-0.3092513084411621,0.00648874044418335,0.009306252002716064,0.009584963321685791,2,0.2155700569785681,0.6247968921751555,-0.3168178375154367,0.680282911355356,0.986670196056366,0.1025963500142097,-0.1263167858123779,39.09670257568359,20.87348556518555,23.3011474609375,2,9189.828225875,2,0,1580905474.069392,1580903939.50652,1147,0.4533899,0,0,1470.409,1,0,1580905462.254594,9188.185055,0,2.478485,97.17429
1580905475.325544,78,0,1580904337.000819,41.20701635159924,29.07533761282497,172.748,-1,-1,5.74967098236084,48.00724964208526,-9999,9191.100833916667,0.9991302490234375,0.1107330322265625,-0.12396240234375,9191.095797916667,-0.7808312485443373,1.444661641922812,-0.105970639922346,-0.07549776136875153,0.1170958504080772,-0.3105072677135468,-0.0318748950958252,0.007057011127471924,-0.01731908321380615,2,0.2145124422725585,0.6256492801486226,-0.3175097116082678,0.6795107743816192,0.9864904284477234,0.1057724133133888,-0.1250947862863541,38.89225769042969,21.11702537536621,23.6024169921875,2,9189.828225875,2,0,1580905474.069392,1580903939.50652,1147,0.4533899,0,0,1470.409,1,0,1580905462.254594,9188.185055,0,2.478485,97.17429
1580905475.335497,79,0,1580904337.000819,41.20701635159924,29.07533761282497,172.748,-1,-1,5.74967098236084,48.00724964208526,-9999,9191.110873916667,1.002243041992188,0.1168060302734375,-0.1186370849609375,9191.105837916668,-0.7802699599349282,1.445704257544671,-0.1093289027549711,-0.1015113741159439,0.09893712401390076,-0.3273223340511322,0.01164263486862183,0.001486241817474365,-0.001029491424560547,2,0.2133165796007858,0.6264865912761844,-0.3182072892384196,0.6787891627614513,0.9862623810768127,0.1091112345457077,-0.1240211725234985,38.89225769042969,21.11702537536621,23.6024169921875,2,9189.828225875,2,0,1580905474.069392,1580903939.50652,1147,0.4533899,0,0,1470.409,1,0,1580905462.254594,9188.185055,0,2.478485,97.17429
1580905475.345594,80,0,1580904337.000819,41.20701635159924,29.07533761282497,172.748,-1,-1,5.74967098236084,48.00724964208526,-9999,9191.120913916668,1.012451171875,0.14556884765625,-0.0830230712890625,9191.115878916667,-0.7798697373071762,1.446199145269266,-0.1127480885979664,-0.08144445717334747,0.04949686676263809,-0.3355405926704407,0.01507049798965454,0.004156917333602905,0.003759980201721191,2,0.2120623119654841,0.6271256523531904,-0.3190363758819086,0.6782026135053422,0.9859476685523987,0.1125093623995781,-0.1234859824180603,38.79813385009766,20.9090690612793,23.61209106445312,2,9191.114474916667,4,2,1580905475.355641,1580903939.50652,1147,0.4533899,0,0,1470.409,1,0,1580905462.254594,9188.185055,0,2.478485,97.17429
1580905475.376138,81,0,1580904337.000819,41.20701635159924,29.07533761282497,172.748,-1,-1,5.74967098236084,48.00724964208526,-9999,9191.130953916667,1.023635864257812,0.151824951171875,-0.065399169921875,9191.125918916667,-0.7796844967330054,1.445596421700423,-0.1161175979066871,-0.06041131913661957,-0.06238523498177528,-0.3336842358112335,0.02573549747467041,0.0295681357383728,0.03992092609405518,2,0.2107170771605308,0.6273613190705465,-0.3200391115825072,0.6779314942333862,0.9854913949966431,0.11585683375597,-0.1240321770310402,38.79813385009766,20.9090690612793,23.61209106445312,2,9191.114474916667,4,2,1580905475.355641,1580903939.50652,1147,0.4533899,0,0,1470.409,1,0,1580905462.254594,9188.185055,0,2.478485,97.17429
1580905475.377698,82,0,1580904337.000819,41.20701635159924,29.07533761282497,172.748,-1,-1,5.74967098236084,48.00724964208526,-9999,9191.140994916666,0.99835205078125,0.1468505859375,-0.0798492431640625,9191.135958916668,-0.7796549635558796,1.443913603684095,-0.1191775554623224,-0.04152045398950577,-0.1709673702716827,-0.3029572069644928,0.0374872088432312,0.03278163075447083,0.05915957689285278,2,0.2093555775593045,0.6271744273743732,-0.3211142419751032,0.67801786826213,0.9849250316619873,0.118895635008812,-0.1256449669599533,38.80979156494141,21.42112731933594,23.6502685546875,2,9191.114474916667,4,2,1580905475.355641,1580903939.50652,1147,0.4533899,0,0,1470.409,1,0,1580905462.254594,9188.185055,0,2.478485,97.17429
1580905475.378849,83,0,1580904337.000819,41.20701635159924,29.07533761282497,172.748,-1,-1,5.74967098236084,48.00724964208526,-9999,9191.151034916667,0.955322265625,0.151519775390625,-0.0892333984375,9191.145999916667,-0.7797241001708898,1.441462625233648,-0.1217189405752465,-0.02604492008686066,-0.2454675585031509,-0.2524338960647583,0.01281774044036865,0.02528113126754761,0.04708659648895264,2,0.2080829247269189,0.6266513287681301,-0.3221464321352466,0.6784035048659192,0.9843112826347351,0.1214186102151871,-0.1280192136764526,38.80979156494141,21.42112731933594,23.6502685546875,2,9191.114474916667,4,2,1580905475.355641,1580903939.50652,1147,0.4533899,0,0,1470.409,1,0,1580905462.254594,9188.185055,0,2.478485,97.17429
1580905475.385784,84,0,1580904337.000819,41.20701635159924,29.07533761282497,172.748,-1,-1,5.74967098236084,48.00724964208526,-9999,9191.161074916667,0.9384002685546875,0.1366424560546875,-0.12188720703125,9191.156039916666,-0.7799046294939314,1.438679028512824,-0.1236510552607433,-0.007509054150432348,-0.2756683230400085,-0.1943418383598328,-0.02961665391921997,0.02803033590316772,0.04041397571563721,2,0.2070051301204497,0.6259274172102887,-0.3230677384833367,0.6789631483209898,0.9837166666984558,0.1233362033963203,-0.1307274848222733,38.57277679443359,21.58219528198242,23.91412353515625,2,9191.114474916667,4,2,1580905475.355641,1580903939.50652,1147,0.4533899,0,0,1470.409,1,0,1580905462.254594,9188.185055,0,2.478485,97.17429
1580905475.395836,85,0,1580904337.000819,41.20701635159924,29.07533761282497,172.748,-1,-1,5.74967098236084,48.00724964208526,-9999,9191.171145916667,0.9405364990234375,0.14300537109375,-0.1172943115234375,9191.166079916668,-0.7801983107697356,1.435621590020372,-0.1250022546869658,0.01169320940971375,-0.2996331453323364,-0.1383063346147537,-0.0459674596786499,0.01181057095527649,0.01074850559234619,2,0.2061225172798155,0.6250260278073918,-0.3238818163157658,0.6796738257406097,0.9831463098526001,0.1246769726276398,-0.1337119489908218,38.57277679443359,21.58219528198242,23.91412353515625,2,9191.114474916667,4,2,1580905475.355641,1580903939.50652,1147,0.4533899,0,0,1470.409,1,0,1580905462.254594,9188.185055,0,2.478485,97.17429
1580905475.405877,86,0,1580904337.000819,41.20701635159924,29.07533761282497,172.748,-1,-1,5.74967098236084,48.00724964208526,-9999,9191.181185916666,0.9655303955078125,0.1444091796875,-0.12689208984375,9191.176119916667,-0.7806108880972052,1.432157156647156,-0.1258042656016821,0.02675950899720192,-0.339408278465271,-0.0826936662197113,-0.0432620644569397,0.01737684011459351,0.0187370777130127,2,0.2054043584423104,0.6239049495865819,-0.3246145485314093,0.6805711567243115,0.982577919960022,0.12547267973423,-0.137103334069252,38.73412322998047,21.63358306884766,23.59640502929688,2,9191.114474916667,4,2,1580905475.355641,1580903939.50652,1147,0.4533899,0,0,1470.409,1,0,1580905462.254594,9188.185055,0,2.478485,97.17429
1580905475.436776,87,0,1580904337.000819,41.20701635159924,29.07533761282497,172.748,-1,-1,5.74967098236084,48.00724964208526,-9999,9191.191226916668,1.011749267578125,0.149261474609375,-0.0944671630859375,9191.186160916668,-0.7813105825708362,1.427942065461107,-0.1262671370803495,0.06486953049898148,-0.4033798575401306,-0.05472584813833237,-0.01762312650680542,0.01832085847854614,0.01327651739120483,2,0.2047724795465267,0.6224552186765318,-0.3254209249006929,0.6817029884762744,0.9819336533546448,0.1259318888187408,-0.1412354707717896,38.73412322998047,21.63358306884766,23.59640502929688,2,9191.114474916667,4,2,1580905475.355641,1580903939.50652,1147,0.4533899,0,0,1470.409,1,0,1580905462.254594,9188.185055,0,2.478485,97.17429
1580905475.438217,88,0,1580904337.000819,41.20701635159924,29.07533761282497,172.748,-1,-1,5.74967098236084,48.00724964208526,-9999,9191.201266916667,1.023345947265625,0.150482177734375,-0.08984375,9191.196200916667,-0.7821748069826078,1.422398948394046,-0.1265973726066429,0.07912729680538177,-0.548677921295166,-0.04584340751171112,0.02943587303161621,0.02284514904022217,0.05114281177520752,2,0.2040198903232288,0.6205165921789871,-0.3263789291395306,0.683236321395948,0.9810945391654968,0.1262594759464264,-0.1466700881719589,38.82304382324219,21.74874114990234,23.28518676757812,2,9191.114474916667,4,2,1580905475.355641,1580903939.50652,1147,0.4533899,0,0,1470.409,1,0,1580905462.254594,9188.185055,0,2.478485,97.17429
1580905475.439396,89,0,1580904337.000819,41.20701635159924,29.07533761282497,172.748,-1,-1,5.74967098236084,48.00724964208526,-9999,9191.211306916668,0.9973602294921875,0.1388702392578125,-0.137115478515625,9191.206240916667,-0.7832094652207429,1.416115426477828,-0.1268419595132891,0.09615767002105713,-0.6140318512916565,-0.03679507225751877,0.04200512170791626,0.02382290363311768,0.06193065643310547,2,0.2032257604391313,0.6182925990610068,-0.3274438428233177,0.6849773863928462,0.9801229238510132,0.1265021115541458,-0.1528270989656448,38.82304382324219,21.74874114990234,23.28518676757812,2,9191.114474916667,4,2,1580905475.355641,1580903939.50652,1147,0.4533899,0,0,1470.409,1,0,1580905462.254594,9188.185055,0,2.478485,97.17429
1580905475.446105,90,0,1580904337.000819,41.20701635159924,29.07533761282497,172.748,-1,-1,5.74967098236084,48.00724964208526,-9999,9191.221346916667,1.083953857421875,0.1422576904296875,-0.1315765380859375,9191.216311916667,-0.784642335837514,1.408543968633124,-0.1272661821751253,0.1357932388782501,-0.7276995182037354,-0.06011264026165009,0.01725918054580688,0.01178964972496033,0.0220760703086853,2,0.2022733273535751,0.6156037929947371,-0.3288259056077041,0.6870160319714218,0.978884756565094,0.1269229054450989,-0.1602349430322647,39.02748107910156,21.86834335327148,22.94403076171875,2,9191.114474916667,4,2,1580905475.355641,1580903939.50652,1147,0.4533899,0,0,1470.409,1,0,1580905462.254594,9188.185055,0,2.478485,97.17429
1580905475.456188,91,0,1580904337.000819,41.20701635159924,29.07533761282497,172.748,-1,-1,5.74967098236084,48.00724964208526,-9999,9191.231387916667,1.104934692382812,0.1475372314453125,-0.0995635986328125,9191.226351916666,-0.7862843946785897,1.398775833221135,-0.1280910849461913,0.1450473219156265,-0.9619140028953552,-0.1063485890626907,0.1055701971054077,0.01435786485671997,0.0371628999710083,2,0.200870056293782,0.6121810944848938,-0.3306133517362967,0.689623411257152,0.9771694540977478,0.1277410984039307,-0.1697710603475571,39.02748107910156,21.86834335327148,22.94403076171875,2,9191.114474916667,4,2,1580905475.355641,1580903939.50652,1147,0.4533899,0,0,1470.409,1,0,1580905462.254594,9188.185055,0,2.478485,97.17429
1580905475.46619,92,0,1580904337.000819,41.20701635159924,29.07533761282497,172.748,-1,-1,5.74967098236084,48.00724964208526,-9999,9191.241427916668,1.132476806640625,0.143096923828125,-0.1492767333984375,9191.236392916668,-0.7881657151763924,1.387228885591773,-0.1293998316100832,0.1620310992002487,-1.127726316452026,-0.15760537981987,0.1287443041801453,0.01833784580230713,0.08043068647384644,2,0.1990560200516355,0.6081699168922672,-0.3327924846318757,0.6926435587515128,0.9749786257743835,0.1290390193462372,-0.1810121089220047,39.44844055175781,21.99372100830078,22.14382934570312,2,9191.114474916667,4,2,1580905475.355641,1580903939.50652,1147,0.4533899,0,0,1470.409,1,0,1580905462.254594,9188.185055,0,2.478485,97.17429
1580905475.497912,93,0,1580904337.000819,41.20701635159924,29.07533761282497,172.748,-1,-1,5.74967098236084,48.00724964208526,-9999,9191.251467916667,1.112518310546875,0.1317291259765625,-0.148712158203125,9191.246432916667,-0.7901964815797282,1.374297230199332,-0.1314681890080691,0.1538302302360535,-1.269800543785095,-0.2408935278654099,0.1589759588241577,0.01184424757957458,0.0432734489440918,2,0.1967601312534868,0.6037460890182841,-0.3353638151554179,0.6959219309329822,0.9722927212715149,0.1310898065567017,-0.1935522258281708,39.44844055175781,21.99372100830078,22.14382934570312,2,9191.114474916667,4,2,1580905475.355641,1580903939.50652,1147,0.4533899,0,0,1470.409,1,0,1580905462.254594,9188.185055,0,2.478485,97.17429
1580905475.499148,94,0,1580904337.000819,41.20701635159924,29.07533761282497,172.748,-1,-1,5.74967098236084,48.00724964208526,-9999,9191.261508916667,1.014907836914062,0.1497802734375,-0.1642608642578125,9191.256472916668,-0.7923574741264487,1.360792872564972,-0.1341553046878634,0.1553628891706467,-1.321817994117737,-0.3077442049980164,0.1420714259147644,-0.002190381288528442,0.05689191818237305,2,0.1941553802485129,0.5991732657347293,-0.3381921553479922,0.6992289953594416,0.9692422747612,0.1337532550096512,-0.2065901756286621,39.84281158447266,22.25014686584473,21.16354370117188,2,9191.114474916667,4,2,1580905475.355641,1580903939.50652,1147,0.4533899,0,0,1470.409,1,0,1580905462.254594,9188.185055,0,2.478485,97.17429
1580905475.500408,95,0,1580904337.000819,41.20701635159924,29.07533761282497,172.748,-1,-1,5.74967098236084,48.00724964208526,-9999,9191.271548916668,0.8555450439453125,0.1354522705078125,-0.238616943359375,9191.266512916667,-0.7945078383744451,1.348066349439243,-0.1369956475594633,0.1518211364746094,-1.253280520439148,-0.3256911337375641,0.04754680395126343,0.01304307579994202,0.05359178781509399,2,0.1915946838349908,0.5948779482325364,-0.3409628530489258,0.7022507827368621,0.9661603569984436,0.1365675330162048,-0.2188234031200409,39.84281158447266,22.25014686584473,21.16354370117188,2,9191.114474916667,4,2,1580905475.355641,1580903939.50652,1147,0.4533899,0,0,1470.409,1,0,1580905462.254594,9188.185055,0,2.478485,97.17429
1580905475.506465,96,0,1580904337.000819,41.20701635159924,29.07533761282497,172.748,-1,-1,5.74967098236084,48.00724964208526,-9999,9191.281619916666,0.704864501953125,0.0936279296875,-0.329559326171875,9191.276553916667,-0.7961622076541631,1.338192354117522,-0.1394733319328313,0.1045036911964417,-0.9635574817657471,-0.278809130191803,-0.109272837638855,-0.003742039203643799,-0.01130235195159912,2,0.189484022677012,0.5915732810494136,-0.3431684310262883,0.7045368929979817,0.9636202454566956,0.1390215754508972,-0.2282737195491791,40.07777404785156,22.15822601318359,20.37319946289062,2,9191.114474916667,4,2,1580905475.355641,1580903939.50652,1147,0.4533899,0,0,1470.409,1,0,1580905462.254594,9188.185055,0,2.478485,97.17429
1580905475.516613,97,0,1580904337.000819,41.20701635159924,29.07533761282497,172.748,-1,-1,5.74967098236084,48.00724964208526,-9999,9191.291659916667,0.6945343017578125,0.08892822265625,-0.351654052734375,9191.286593916668,-0.7970933750753562,1.331866916595575,-0.1413332124823444,0.04682987183332443,-0.6123044490814209,-0.1999278515577316,-0.2582350969314575,-0.04741024971008301,-0.09620779752731323,2,0.1879841261708504,0.5895002383684408,-0.3446031189773445,0.7059747235103795,0.9619043469429016,0.1408631652593613,-0.2343028783798218,40.07777404785156,22.15822601318359,20.37319946289062,2,9191.114474916667,4,2,1580905475.355641,1580903939.50652,1147,0.4533899,0,0,1470.409,1,0,1580905462.254594,9188.185055,0,2.478485,97.17429
1580905475.526656,98,0,1580904337.000819,41.20701635159924,29.07533761282497,172.748,-1,-1,5.74967098236084,48.00724964208526,-9999,9191.301699916667,0.801116943359375,0.1023101806640625,-0.322021484375,9191.296633916667,-0.7974061276490467,1.328446247846842,-0.1428330495176064,-0.007224307861179113,-0.3208470344543457,-0.1476569324731827,-0.2675508856773376,-0.05359655618667603,-0.1150607466697693,2,0.1869309511097271,0.5884610340461747,-0.3454433648571097,0.7067102477249397,0.9608910083770752,0.1423478871583939,-0.2375408560037613,40.10120391845703,22.57317733764648,19.888671875,2,9191.114474916667,4,2,1580905475.355641,1580903939.50652,1147,0.4533899,0,0,1470.409,1,0,1580905462.254594,9188.185055,0,2.478485,97.17429
1580905475.556224,99,0,1580904337.000819,41.20701635159924,29.07533761282497,172.748,-1,-1,5.74967098236084,48.00724964208526,-9999,9191.311740916668,0.9863128662109375,0.1255340576171875,-0.2551116943359375,9191.306674916666,-0.7974590728598965,1.325936480208179,-0.1445032772361817,-0.03819561004638672,-0.2418449521064758,-0.1623649746179581,-0.1601360440254211,-0.0418696403503418,-0.08307236433029175,2,0.1858935264914413,0.5877896885265443,-0.3461504929771485,0.707196436762427,0.9600598216056824,0.1440009027719498,-0.239893764257431,40.10120391845703,22.57317733764648,19.888671875,2,9191.114474916667,4,2,1580905475.355641,1580903939.50652,1147,0.4533899,0,0,1470.409,1,0,1580905462.254594,9188.185055,0,2.478485,97.17429
1580905475.557575,100,0,1580904337.000819,41.20701635159924,29.07533761282497,172.748,-1,-1,5.74967098236084,48.00724964208526,-9999,9191.321780916667,1.017181396484375,0.1635894775390625,-0.2069091796875,9191.316714916667,-0.7975570192171136,1.322849506251869,-0.1464246341460972,-0.03869255632162094,-0.3073086440563202,-0.1894147098064423,0.02607607841491699,-0.0205492377281189,-0.01326501369476318,2,0.1846743671682322,0.5869424287338451,-0.3469926445928743,0.7078065262754202,0.9590446352958679,0.1459019631147385,-0.2427879273891449,40.11053466796875,22.66072654724121,19.502197265625,2,9191.114474916667,4,2,1580905475.355641,1580903939.50652,1147,0.4533899,0,0,1470.409,1,0,1580905462.254594,9188.185055,0,2.478485,97.17429
1580905475.558666,101,0,1580904337.000819,41.20701635159924,29.07533761282497,172.748,-1,-1,5.74967098236084,48.00724964208526,-9999,9191.331820916666,0.983489990234375,0.169281005859375,-0.2151641845703125,9191.326754916667,-0.7978046186755413,1.319073965325386,-0.1484890513295784,-0.02699148282408714,-0.3757607340812683,-0.2053012102842331,0.05816340446472168,0.01546159386634827,0.03848546743392944,2,0.1833237746335474,0.5858554643958276,-0.3479863194615929,0.7085698349463995,0.9578273296356201,0.1479439735412598,-0.2463315427303314,40.11053466796875,22.66072654724121,19.502197265625,2,9191.114474916667,4,2,1580905475.355641,1580903939.50652,1147,0.4533899,0,0,1470.409,1,0,1580905462.254594,9188.185055,0,2.478485,97.17429
1580905475.567092,102,0,1580904337.000819,41.20701635159924,29.07533761282497,172.748,-1,-1,5.74967098236084,48.00724964208526,-9999,9191.341860916667,0.9512481689453125,0.1558837890625,-0.2456207275390625,9191.336825916667,-0.7981111108419118,1.315080526424347,-0.1506629748571631,-0.02588866837322712,-0.3947855532169342,-0.2162872850894928,0.02577835321426392,0.01900085806846619,0.03397637605667114,2,0.1819083151730169,0.5846990951161515,-0.3490458646433833,0.7093682667241739,0.9565226435661316,0.1500936299562454,-0.2500726580619812,40.104248046875,22.71804046630859,19.4154052734375,2,9191.114474916667,4,2,1580905475.355641,1580903939.50652,1147,0.4533899,0,0,1470.409,1,0,1580905462.254594,9188.185055,0,2.478485,97.17429
1580905475.576814,103,0,1580904337.000819,41.20701635159924,29.07533761282497,172.748,-1,-1,5.74967098236084,48.00724964208526,-9999,9191.351901916667,0.911468505859375,0.1534881591796875,-0.266998291015625,9191.346865916667,-0.7983871048650255,1.311440941086872,-0.1528809569854536,-0.02675207331776619,-0.3642221391201019,-0.220520094037056,-0.005221128463745117,0.003408432006835938,0.006917953491210938,2,0.1805258288751069,0.5836756306584756,-0.3500696787890881,0.7100595171478011,0.9552820920944214,0.1522861123085022,-0.2534663677215576,40.104248046875,22.71804046630859,19.4154052734375,2,9191.114474916667,4,2,1580905475.355641,1580903939.50652,1147,0.4533899,0,0,1470.409,1,0,1580905462.254594,9188.185055,0,2.478485,97.17429
1580905475.586692,104,0,1580904337.000819,41.20701635159924,29.07533761282497,172.748,-1,-1,5.74967098236084,48.00724964208526,-9999,9191.361941916668,0.8953094482421875,0.1357269287109375,-0.2985992431640625,9191.356906916668,-0.7984900698941548,1.308849755596511,-0.1552434600962492,-0.05076153576374054,-0.2594664394855499,-0.2296978831291199,-0.04398941993713379,-0.001324653625488281,-0.01207625865936279,2,0.1792197033278,0.5830581730048602,-0.3509723522686912,0.7104519094542784,0.9542719125747681,0.1546206325292587,-0.2558469176292419,40.10648345947266,22.76620483398438,19.27865600585938,2,9191.114474916667,4,2,1580905475.355641,1580903939.50652,1147,0.4533899,0,0,1470.409,1,0,1580905462.254594,9188.185055,0,2.478485,97.17429
1580905475.616015,105,0,1580904337.000819,41.20701635159924,29.07533761282497,172.748,-1,-1,5.74967098236084,48.00724964208526,-9999,9191.371981916667,0.8179779052734375,0.1312255859375,-0.316558837890625,9191.366946916667,-0.7983643027752899,1.307957816146937,-0.1576497470443029,-0.07386326044797897,-0.1002703383564949,-0.2299339771270752,-0.05955708026885986,-0.02146565914154053,-0.04292255640029907,2,0.1781271504596825,0.5830698353854885,-0.3516508726838437,0.7103815935613472,0.9536812901496887,0.1569975316524506,-0.256600558757782,40.10648345947266,22.76620483398438,19.27865600585938,2,9191.114474916667,4,2,1580905475.355641,1580903939.50652,1147,0.4533899,0,0,1470.409,1,0,1580905462.254594,9188.185055,0,2.478485,97.17429
1580905475.617406,106,0,1580904337.000819,41.20701635159924,29.07533761282497,172.748,-1,-1,5.74967098236084,48.00724964208526,-9999,9191.382022916667,0.769378662109375,0.134765625,-0.3510589599609375,9191.376986916668,-0.7978709502211132,1.309610642260074,-0.1598546678911199,-0.1039021164178848,0.1634899377822876,-0.2002620995044708,-0.1369747519493103,-0.02814698219299316,-0.06255090236663818,2,0.1774498313995121,0.5839902365737687,-0.3519182247712138,0.7096622284224264,0.9537672996520996,0.1591747254133224,-0.2549339234828949,40.15386962890625,22.68610382080078,19.04229736328125,2,9191.114474916667,4,2,1580905475.355641,1580903939.50652,1147,0.4533899,0,0,1470.409,1,0,1580905462.254594,9188.185055,0,2.478485,97.17429
1580905475.618513,107,0,1580904337.000819,41.20701635159924,29.07533761282497,172.748,-1,-1,5.74967098236084,48.00724964208526,-9999,9191.392062916668,0.8871612548828125,0.14697265625,-0.313201904296875,9191.387026916667,-0.797079068432941,1.313110078267107,-0.1620532738595033,-0.1290922909975052,0.3495405316352844,-0.189111053943634,-0.1861200928688049,-0.02677980065345764,-0.1004840731620789,2,0.177012704810407,0.5855886156866219,-0.3519158385168539,0.7084545156583335,0.9543129205703735,0.1613449156284332,-0.2515049576759338,40.15386962890625,22.68610382080078,19.04229736328125,2,9191.114474916667,4,2,1580905475.355641,1580903939.50652,1147,0.4533899,0,0,1470.409,1,0,1580905462.254594,9188.185055,0,2.478485,97.17429
1580905475.626857,108,0,1580904337.000819,41.20701635159924,29.07533761282497,172.748,-1,-1,5.74967098236084,48.00724964208526,-9999,9191.402133916667,1.0242919921875,0.1504364013671875,-0.2967529296875,9191.397067916667,-0.7960169062660377,1.316689862489392,-0.1647658802458241,-0.1696833968162537,0.3431808948516846,-0.233644425868988,-0.06880515813827515,-0.01725250482559204,-0.06616008281707764,2,0.1763186678317741,0.5873019925822184,-0.351951147488081,0.7071906707927653,0.954780101776123,0.1640213876962662,-0.2479761987924576,40.01097869873047,23.08038330078125,19.28768920898438,2,9191.114474916667,4,2,1580905475.355641,1580903939.50652,1147,0.4533899,0,0,1470.409,1,0,1580905462.254594,9188.185055,0,2.478485,97.17429
1580905475.636867,109,0,1580904337.000819,41.20701635159924,29.07533761282497,172.748,-1,-1,5.74967098236084,48.00724964208526,-9999,9191.412173916668,1.04736328125,0.1567230224609375,-0.290740966796875,9191.407107916668,-0.7947769972427243,1.319643463364097,-0.1682283512265831,-0.2011453062295914,0.2788270711898804,-0.3044768869876862,0.06815296411514282,-0.01720759272575378,-0.05267852544784546,2,0.1751824316822921,0.5889014263021635,-0.3521835277072886,0.7060262458140429,0.9549524784088135,0.1674359738826752,-0.2450124472379684,39.751953125,23.26248168945312,19.63278198242188,2,9191.114474916667,4,2,1580905475.355641,1580903939.50652,1147,0.4533899,0,0,1470.409,1,0,1580905462.254594,9188.185055,0,2.478485,97.17429
1580905475.64699,110,0,1580904337.000819,41.20701635159924,29.07533761282497,172.748,-1,-1,5.74967098236084,48.00724964208526,-9999,9191.422213916667,1.017562866210938,0.149993896484375,-0.31463623046875,9191.417147916667,-0.7932831467602384,1.322143361637116,-0.1723557698980485,-0.2478464990854263,0.2032857090234756,-0.3618344664573669,0.09129279851913452,-0.01499378681182861,-0.04922997951507568,2,0.1736432671795287,0.5904421115311302,-0.3525483092757719,0.7049367702922558,0.9548839926719666,0.1715036928653717,-0.2424522638320923,39.751953125,23.26248168945312,19.63278198242188,2,9191.114474916667,4,2,1580905475.355641,1580903939.50652,1147,0.4533899,0,0,1470.409,1,0,1580905462.254594,9188.185055,0,2.478485,97.17429
1580905475.673957,111,0,1580904337.000819,41.20701635159924,29.07533761282497,172.748,-1,-1,5.74967098236084,48.00724964208526,-9999,9191.432253916668,0.91912841796875,0.1923370361328125,-0.248870849609375,9191.427188916667,-0.7920071132162932,1.326072087282623,-0.1770686225204407,-0.2291548401117325,0.3931896090507507,-0.4297046065330505,0.06134182214736938,-0.02636975049972534,-0.07708185911178589,2,0.1722020885929615,0.592533721947107,-0.353027992950709,0.7032934155858471,0.9550344347953796,0.1761447936296463,-0.2385004609823227,39.43115997314453,23.27233123779297,19.81671142578125,2,9191.114474916667,4,2,1580905475.355641,1580903939.50652,1147,0.4533899,0,0,1470.409,1,0,1580905462.254594,9188.185055,0,2.478485,97.17429
1580905475.675278,112,0,1580904337.000819,41.20701635159924,29.07533761282497,172.748,-1,-1,5.74967098236084,48.00724964208526,-9999,9191.442294916667,1.03497314453125,0.1659393310546875,-0.2938995361328125,9191.437228916668,-0.7907419013948872,1.330690446020855,-0.1824159276637569,-0.2489525079727173,0.4419518113136292,-0.4836093783378601,-0.03725564479827881,0.01070570945739746,-0.01596289873123169,2,0.1706506006745633,0.5949356417589491,-0.3536296342356235,0.7013388818883575,0.9551972150802612,0.1814059466123581,-0.2338599115610123,39.43115997314453,23.27233123779297,19.81671142578125,2,9191.114474916667,4,2,1580905475.355641,1580903939.50652,1147,0.4533899,0,0,1470.409,1,0,1580905462.254594,9188.185055,0,2.478485,97.17429
1580905475.677034,113,0,1580904337.000819,41.20701635159924,29.07533761282497,172.748,-1,-1,5.74967098236084,48.00724964208526,-9999,9191.452334916667,1.05078125,0.18841552734375,-0.2171173095703125,9191.447299916666,-0.7895818548999307,1.335090908053773,-0.1885389614426087,-0.2557993531227112,0.4195265471935272,-0.5658607482910156,0.07866734266281128,-0.02171745896339417,-0.06546634435653687,2,0.1688049037766977,0.5973354013124061,-0.3545035358379319,0.6993015917993519,0.9551190733909607,0.1874239444732666,-0.2293906509876251,39.28354644775391,23.67422866821289,20.21463012695312,2,9191.114474916667,4,2,1580905475.355641,1580903939.50652,1147,0.4533899,0,0,1470.409,1,0,1580905462.254594,9188.185055,0,2.478485,97.17429
1580905475.687152,114,0,1580904337.000819,41.20701635159924,29.07533761282497,172.748,-1,-1,5.74967098236084,48.00724964208526,-9999,9191.462374916668,1.067413330078125,0.2291717529296875,-0.136627197265625,9191.457339916667,-0.7889641957675824,1.33851894671554,-0.1951054806240272,-0.210308313369751,0.3363003432750702,-0.6225109696388245,0.09491336345672607,-0.0056954026222229,0.007747530937194824,2,0.1667861953930051,0.5993904481494005,-0.355775110912248,0.697379031841836,0.954681396484375,0.1938700079917908,-0.2258269041776657,39.28354644775391,23.67422866821289,20.21463012695312,2,9191.114474916667,4,2,1580905475.355641,1580903939.50652,1147,0.4533899,0,0,1470.409,1,0,1580905462.254594,9188.185055,0,2.478485,97.17429
1580905475.69719,115,0,1580904337.000819,41.20701635159924,29.07533761282497,172.748,-1,-1,5.74967098236084,48.00724964208526,-9999,9191.472415916667,1.109039306640625,0.21466064453125,-0.153533935546875,9191.467379916667,-0.788885913010317,1.340485653576662,-0.2021809432455942,-0.168870136141777,0.1981515735387802,-0.6857625842094421,0.112463653087616,0.0281158983707428,0.08603811264038086,2,0.1644818320359216,0.6009414686317915,-0.3574968170681613,0.6957090504470187,0.9537643194198608,0.2008063197135925,-0.2236301600933075,38.67588043212891,23.92909622192383,20.45404052734375,2,9191.114474916667,4,2,1580905475.355641,1580903939.50652,1147,0.4533899,0,0,1470.409,1,0,1580905462.254594,9188.185055,0,2.478485,97.17429
1580905475.707224,116,0,1580904337.000819,41.20701635159924,29.07533761282497,172.748,-1,-1,5.74967098236084,48.00724964208526,-9999,9191.482455916666,1.053802490234375,0.2041778564453125,-0.1953582763671875,9191.477419916668,-0.7890832022279931,1.341425169705999,-0.2097330821054617,-0.1523689180612564,0.09630802273750305,-0.7385323047637939,0.1553856134414673,0.00620308518409729,0.0678824782371521,2,0.1618999727396761,0.6021602682720538,-0.3595264295946045,0.6942132858843462,0.9524699449539185,0.2081988453865051,-0.2223828136920929,38.67588043212891,23.92909622192383,20.45404052734375,2,9191.114474916667,4,2,1580905475.355641,1580903939.50652,1147,0.4533899,0,0,1470.409,1,0,1580905462.254594,9188.185055,0,2.478485,97.17429
1580905475.732978,117,0,1580904337.000819,41.20701635159924,29.07533761282497,172.748,-1,-1,5.74967098236084,48.00724964208526,-9999,9191.492518416668,1.0081787109375,0.2162628173828125,-0.210968017578125,9191.487460916667,-0.7893932500451469,1.341946509763839,-0.2176218746367627,-0.1497797071933746,0.06004013493657112,-0.7744832038879395,0.1016640067100525,-0.01199865341186523,0.02518099546432495,2,0.1591509472402259,0.6032558343121779,-0.3617160794329906,0.6927588955416253,0.9509565830230713,0.2159081995487213,-0.2215067446231842,38.39903259277344,24.25632667541504,20.431640625,2,9191.114474916667,4,2,1580905475.355641,1580903939.50652,1147,0.4533899,0,0,1470.409,1,0,1580905462.254594,9188.185055,0,2.478485,97.17429
1580905475.734294,118,0,1580904337.000819,41.20701635159924,29.07533761282497,172.748,-1,-1,5.74967098236084,48.00724964208526,-9999,9191.502558416667,1.006729125976562,0.2195587158203125,-0.1973114013671875,9191.497523416667,-0.7897857595940585,1.342175480800802,-0.2257004559811342,-0.1482675671577454,0.0331810899078846,-0.7931370735168457,0.05772167444229126,-0.007804334163665771,0.008950352668762207,2,0.1563018886567789,0.6042569585086792,-0.3640034338939806,0.6913355617578503,0.9492775201797485,0.2237891107797623,-0.2208864986896515,38.39903259277344,24.25632667541504,20.431640625,2,9191.114474916667,4,2,1580905475.355641,1580903939.50652,1147,0.4533899,0,0,1470.409,1,0,1580905462.254594,9188.185055,0,2.478485,97.17429
1580905475.737906,119,0,1580904337.000819,41.20701635159924,29.07533761282497,172.748,-1,-1,5.74967098236084,48.00724964208526,-9999,9191.512599416666,1.017013549804688,0.22296142578125,-0.1902923583984375,9191.507563416668,-0.7903648996762903,1.34202293809407,-0.2340301790321773,-0.133331298828125,0.0004980564117431641,-0.8212993144989014,0.05815660953521729,-0.01262912154197693,0.02232116460800171,2,0.1533441042990601,0.6051323265220099,-0.3664457871821769,0.6899406830497405,0.9473954439163208,0.2318997085094452,-0.2206009030342102,37.86923980712891,24.80735397338867,20.75411987304688,2,9191.114474916667,4,2,1580905475.355641,1580903939.50652,1147,0.4533899,0,0,1470.409,1,0,1580905462.254594,9188.185055,0,2.478485,97.17429
1580905475.747447,120,0,1580904337.000819,41.20701635159924,29.07533761282497,172.748,-1,-1,5.74967098236084,48.00724964208526,-9999,9191.522670416667,1.0576171875,0.206451416015625,-0.2556915283203125,9191.517604416667,-0.7909919939898392,1.341453042255077,-0.2429078840690752,-0.1390504390001297,-0.04031595215201378,-0.8740565776824951,0.07061171531677246,-0.01786360144615173,0.02940326929092407,2,0.1501169024757099,0.6059149355891956,-0.3690744213818297,0.688560879623672,0.9452272653579712,0.2405261546373367,-0.2206640094518661,37.86923980712891,24.80735397338867,20.75411987304688,2,9191.114474916667,4,2,1580905475.355641,1580903939.50652,1147,0.4533899,0,0,1470.409,1,0,1580905462.254594,9188.185055,0,2.478485,97.17429
1580905475.757658,121,0,1580904337.000819,41.20701635159924,29.07533761282497,172.748,-1,-1,5.74967098236084,48.00724964208526,-9999,9191.532710416668,1.044708251953125,0.2077178955078125,-0.288299560546875,9191.527644416667,-0.7914205854245856,1.340611151393486,-0.2524931015002044,-0.1794642806053162,-0.07400871813297272,-0.9417078495025635,0.1136926412582397,-0.04367780685424805,-0.03573602437973022,2,0.1465106509122927,0.6066900836614479,-0.3718325113131787,0.687169870078627,0.9427531361579895,0.2498187869787216,-0.2209235429763794,37.35906982421875,25.26836204528809,20.75119018554688,2,9191.114474916667,4,2,1580905475.355641,1580903939.50652,1147,0.4533899,0,0,1470.409,1,0,1580905462.254594,9188.185055,0,2.478485,97.17429
1580905475.767863,122,0,1580904337.000819,41.20701635159924,29.07533761282497,172.748,-1,-1,5.74967098236084,48.00724964208526,-9999,9191.542750416667,0.96624755859375,0.2470703125,-0.2124481201171875,9191.537684416668,-0.7918211113976884,1.340014886166375,-0.2626275305159503,-0.19740891456604,-0.04972868412733078,-0.9951233863830566,0.1034318208694458,-0.05222362279891968,-0.06837260723114014,2,0.1427312304865559,0.6076020283494965,-0.3746963586626247,0.6856020708032059,0.9401081800460815,0.259618878364563,-0.2208951413631439,37.35906982421875,25.26836204528809,20.75119018554688,2,9191.114474916667,4,2,1580905475.355641,1580903939.50652,1147,0.4533899,0,0,1470.409,1,0,1580905462.254594,9189.126056999999,0,2.48114,97.17428
1580905475.798401,123,0,1580904337.000819,41.20701635159924,29.07533761282497,172.748,-1,-1,5.74967098236084,48.00724964208526,-9999,9191.552790416667,0.96539306640625,0.275390625,-0.193115234375,9191.547724416667,-0.7925045184441524,1.339624893093683,-0.273102810920665,-0.1745961755514145,-0.01413787808269262,-1.029274106025696,0.0277596116065979,-0.0229853093624115,0.007210075855255127,2,0.1389441958474609,0.6085895422332092,-0.3777197459518142,0.683842986817507,0.9373233318328857,0.2697205543518066,-0.220626562833786,37.01557159423828,25.76194763183594,20.58148193359375,2,9191.114474916667,4,2,1580905475.355641,1580903939.50652,1147,0.4533899,0,0,1470.409,1,0,1580905462.254594,9189.126056999999,0,2.48114,97.17428
1580905475.799642,124,0,1580904337.000819,41.20701635159924,29.07533761282497,172.748,-1,-1,5.74967098236084,48.00724964208526,-9999,9191.562831416668,1.0123291015625,0.2769012451171875,-0.200836181640625,9191.557765416666,-0.7934417222710246,1.338770140198463,-0.283967229016765,-0.1618971526622772,-0.0631919726729393,-1.073399782180786,0.03000473976135254,-0.005123734474182129,0.0266571044921875,2,0.134995941406164,0.6094306470230436,-0.3809499359605789,0.6820906583339418,0.9342272877693176,0.2801661789417267,-0.2207407653331757,37.01557159423828,25.76194763183594,20.58148193359375,2,9191.114474916667,4,2,1580905475.355641,1580903939.50652,1147,0.4533899,0,0,1470.409,1,0,1580905462.254594,9189.126056999999,0,2.48114,97.17428
1580905475.80063,125,0,1580904337.000819,41.20701635159924,29.07533761282497,172.748,-1,-1,5.74967098236084,48.00724964208526,-9999,9191.572871416667,0.9945068359375,0.29827880859375,-0.1785125732421875,9191.567836416667,-0.7947581257748364,1.337640858346846,-0.295303382789028,-0.1375688165426254,-0.07408130913972855,-1.1220463514328,0.08034491539001465,-0.0144905149936676,0.01924335956573486,2,0.1309279389273768,0.6101918517296082,-0.3844336164034002,0.6802459732362378,0.9308273196220398,0.2910301089286804,-0.2210475504398346,36.44359588623047,26.69672012329102,20.53582763671875,2,9191.114474916667,4,2,1580905475.355641,1580903939.50652,1147,0.4533899,0,0,1470.409,1,0,1580905462.254594,9189.126056999999,0,2.48114,97.17428
1580905475.807439,126,0,1580904337.000819,41.20701635159924,29.07533761282497,172.748,-1,-1,5.74967098236084,48.00724964208526,-9999,9191.582911416666,1.092529296875,0.3090972900390625,-0.17333984375,9191.577876416668,-0.796624054843051,1.336059338856822,-0.3073048634920033,-0.1047690585255623,-0.09493438899517059,-1.202908992767334,0.0663420557975769,-0.004588007926940918,0.04221117496490479,2,0.1266833588574378,0.61082387873901,-0.3882850296795723,0.6782922187941602,0.9270126819610596,0.3024908602237701,-0.2216910272836685,36.44359588623047,26.69672012329102,20.53582763671875,2,9191.114474916667,4,2,1580905475.355641,1580903939.50652,1147,0.4533899,0,0,1470.409,1,0,1580905462.254594,9189.126056999999,0,2.48114,97.17428
1580905475.817696,127,0,1580904337.000819,41.20701635159924,29.07533761282497,172.748,-1,-1,5.74967098236084,48.00724964208526,-9999,9191.592951416667,1.167648315429688,0.3391876220703125,-0.12103271484375,9191.587916416667,-0.7991825689232371,1.333059148240061,-0.3201631310280035,-0.06427820771932602,-0.2186637669801712,-1.304321885108948,0.1688960194587708,-0.006015241146087646,0.0492318868637085,2,0.1220412964752539,0.611013555335599,-0.3926528584614731,0.6764555798394049,0.9224867820739746,0.314721405506134,-0.2235367149114609,35.80905914306641,27.50514602661133,20.38925170898438,2,9191.114474916667,4,2,1580905475.355641,1580903939.50652,1147,0.4533899,0,0,1470.409,1,0,1580905462.254594,9189.126056999999,0,2.48114,97.17428
1580905475.82771,128,0,1580904337.000819,41.20701635159924,29.07533761282497,172.748,-1,-1,5.74967098236084,48.00724964208526,-9999,9191.602992416667,1.138946533203125,0.3627471923828125,-0.0937957763671875,9191.597956416666,-0.802550041657212,1.328433778416816,-0.3337727147499721,-0.01527657825499773,-0.3599223494529724,-1.392628788948059,0.2493088245391846,0.01117062568664551,0.1047584414482117,2,0.1170255485421696,0.6106791083517442,-0.397544285585643,0.6747847796909028,0.9171996116638184,0.3276098668575287,-0.2267521023750305,35.80905914306641,27.50514602661133,20.38925170898438,2,9191.114474916667,4,2,1580905475.355641,1580903939.50652,1147,0.4533899,0,0,1470.409,1,0,1580905462.254594,9189.126056999999,0,2.48114,97.17428
1580905475.852982,129,0,1580904337.000819,41.20701635159924,29.07533761282497,172.748,-1,-1,5.74967098236084,48.00724964208526,-9999,9191.613032416668,1.096343994140625,0.3603515625,-0.11944580078125,9191.607997416668,-0.8068381330210891,1.322655307692122,-0.3480386700604451,0.04744561389088631,-0.4285738468170166,-1.476057648658752,0.226563572883606,0.02126866579055786,0.136125385761261,2,0.1117873191565094,0.6099714366969993,-0.4029262627156384,0.6731188052464336,0.9112505912780762,0.3410547375679016,-0.2308768779039383,34.90747833251953,28.30819511413574,20.10574340820312,2,9191.114474916667,4,2,1580905475.355641,1580903939.50652,1147,0.4533899,0,0,1470.409,1,0,1580905462.254594,9189.126056999999,0,2.48114,97.17428
1580905475.85426,130,0,1580904337.000819,41.20701635159924,29.07533761282497,172.748,-1,-1,5.74967098236084,48.00724964208526,-9999,9191.623072416667,1.074966430664062,0.34893798828125,-0.1529083251953125,9191.618037416667,-0.8118439840434776,1.315681128012247,-0.3628154296331814,0.08707984536886215,-0.5240553617477417,-1.543533325195312,0.1905773282051086,0.005002826452255249,0.1155336499214172,2,0.106299920206062,0.6088808809395914,-0.4086791912901996,0.6715249949503294,0.9046425819396973,0.3549077808856964,-0.2359288036823273,34.90747833251953,28.30819511413574,20.10574340820312,2,9191.114474916667,4,2,1580905475.355641,1580903939.50652,1147,0.4533899,0,0,1470.409,1,0,1580905462.254594,9189.126056999999,0,2.48114,97.17428
1580905475.857969,131,0,1580904337.000819,41.20701635159924,29.07533761282497,172.748,-1,-1,5.74967098236084,48.00724964208526,-9999,9191.633143416668,1.003692626953125,0.3515777587890625,-0.1858062744140625,9191.628077416668,-0.8157434161143937,1.307906212657174,-0.3779557882344478,0.1018304079771042,-0.5826849341392517,-1.58647894859314,0.1763623952865601,-0.02054181694984436,0.0876801609992981,2,0.1001347474198333,0.6076245304843028,-0.4141186919291804,0.6702770336759726,0.8974888920783997,0.3690212965011597,-0.2415309250354767,34.28350830078125,29.26317596435547,19.69515991210938,2,9191.114474916667,4,2,1580905475.355641,1580903939.50652,1147,0.4533899,0,0,1470.409,1,0,1580905462.254594,9189.126056999999,0,2.48114,97.17428
1580905475.867868,132,0,1580904337.000819,41.20701635159924,29.07533761282497,172.748,-1,-1,5.74967098236084,48.00724964208526,-9999,9191.643183416667,0.9583892822265625,0.3413543701171875,-0.221588134765625,9191.638118416668,-0.8214518107624451,1.299761175715771,-0.3934121498006876,0.1037540063261986,-0.5954532027244568,-1.625343084335327,0.1126973032951355,-0.03224062919616699,0.06053471565246582,2,0.09427911702992528,0.6061957986435653,-0.420178548851051,0.6686465779273221,0.8898895978927612,0.3833421170711517,-0.2472762018442154,34.28350830078125,29.26317596435547,19.69515991210938,2,9191.114474916667,4,2,1580905475.355641,1580903939.50652,1147,0.4533899,0,0,1470.409,1,0,1580905462.254594,9189.126056999999,0,2.48114,97.17428
1580905475.877979,133,0,1580904337.000819,41.20701635159924,29.07533761282497,172.748,-1,-1,5.74967098236084,48.00724964208526,-9999,9191.653224416666,0.9060821533203125,0.3457794189453125,-0.2299346923828125,9191.648158416667,-0.8257364278034732,1.291253975389616,-0.4089468014421219,0.09173759818077087,-0.6201384663581848,-1.634915113449097,0.07537055015563965,-0.05678284168243408,0.03064781427383423,2,0.08784102767900064,0.6047330278607623,-0.4257118366302567,0.6673465820022696,0.8819229602813721,0.3976432085037231,-0.2531638443470001,33.42047882080078,30.09537887573242,19.38516235351562,2,9191.114474916667,4,2,1580905475.355641,1580903939.50652,1147,0.4533899,0,0,1470.409,1,0,1580905462.254594,9189.126056999999,0,2.48114,97.17428
1580905475.887999,134,0,1580904337.000819,41.20701635159924,29.07533761282497,172.748,-1,-1,5.74967098236084,48.00724964208526,-9999,9191.663264416668,0.8636016845703125,0.37823486328125,-0.1986236572265625,9191.658198416668,-0.8318475556256708,1.282215626755004,-0.4243141473650605,0.1051426157355309,-0.6511983871459961,-1.627252578735352,0.03135967254638672,-0.06642788648605347,0.02849990129470825,2,0.0818592704990931,0.6030105373966479,-0.4317481483242911,0.6657860418080261,0.8736371994018555,0.4116958379745483,-0.2593547105789185,33.42047882080078,30.09537887573242,19.38516235351562,2,9191.114474916667,4,2,1580905475.355641,1580903939.50652,1147,0.4533899,0,0,1470.409,1,0,1580905462.254594,9189.126056999999,0,2.48114,97.17428
1580905475.914649,135,0,1580904337.000819,41.20701635159924,29.07533761282497,172.748,-1,-1,5.74967098236084,48.00724964208526,-9999,9191.673304416667,0.7964630126953125,0.40704345703125,-0.174957275390625,9191.668238416667,-0.8368301139937641,1.272615506314792,-0.4392657876420598,0.1363264173269272,-0.687761127948761,-1.593712210655212,-0.002599179744720459,-0.04756850004196167,0.06635582447052002,2,0.07552677208553286,0.6011239482414346,-0.4372421400244741,0.6646542004723252,0.8651260733604431,0.425275057554245,-0.2658914029598236,32.63259887695312,30.97515869140625,18.76382446289062,2,9191.114474916667,4,2,1580905475.355641,1580903939.50652,1147,0.4533899,0,0,1470.409,1,0,1580905462.254594,9189.126056999999,0,2.48114,97.17428
1580905475.916046,136,0,1580904337.000819,41.20701635159924,29.07533761282497,172.748,-1,-1,5.74967098236084,48.00724964208526,-9999,9191.683345416668,0.81439208984375,0.417266845703125,-0.235809326171875,9191.678279416667,-0.8438232922785854,1.263017126126792,-0.4539751867453444,0.1653444916009903,-0.6530832648277283,-1.584303021430969,-0.06108039617538452,-0.03204292058944702,0.09639686346054077,2,0.06984281163662477,0.5991601665949285,-0.443255459235564,0.6630639148164054,0.8564794063568115,0.4385415315628052,-0.2722581624984741,32.63259887695312,30.97515869140625,18.76382446289062,2,9191.114474916667,4,2,1580905475.355641,1580903939.50652,1147,0.4533899,0,0,1470.409,1,0,1580905462.254594,9189.126056999999,0,2.48114,97.17428
1580905475.918261,137,0,1580904337.000819,41.20701635159924,29.07533761282497,172.748,-1,-1,5.74967098236084,48.00724964208526,-9999,9191.693385416667,0.895477294921875,0.409332275390625,-0.28271484375,9191.688349416667,-0.8495346406657119,1.253373035321359,-0.4687544085947009,0.1636306643486023,-0.635567307472229,-1.594784498214722,-0.03422409296035767,-0.03506970405578613,0.04174631834030151,2,0.0636888006704303,0.5972585881569074,-0.4487670403752281,0.6616903793233467,0.8475633859634399,0.4517754018306732,-0.2784518301486969,32.00171661376953,31.71269989013672,18.26312255859375,2,9191.114474916667,4,2,1580905475.355641,1580903939.50652,1147,0.4533899,0,0,1470.409,1,0,1580905462.254594,9189.126056999999,0,2.48114,97.17428
1580905475.928141,138,0,1580904337.000819,41.20701635159924,29.07533761282497,172.748,-1,-1,5.74967098236084,48.00724964208526,-9999,9191.703425416667,0.9701690673828125,0.440338134765625,-0.2499542236328125,9191.698390416666,-0.8571780891762931,1.243369043297876,-0.4837252584084746,0.1655619740486145,-0.6434068083763123,-1.624599099159241,0.05619943141937256,-0.05632564425468445,0.00110626220703125,2,0.05790701833636247,0.5952243488732635,-0.4548737655879158,0.6598822997942494,0.8382368087768555,0.4650802612304688,-0.2847095131874084,32.00171661376953,31.71269989013672,18.26312255859375,2,9191.114474916667,4,2,1580905475.355641,1580903939.50652,1147,0.4533899,0,0,1470.409,1,0,1580905462.254594,9189.126056999999,0,2.48114,97.17428
1580905475.938586,139,0,1580904337.000819,41.20701635159924,29.07533761282497,172.748,-1,-1,5.74967098236084,48.00724964208526,-9999,9191.713465416668,1.031661987304688,0.4943084716796875,-0.1576690673828125,9191.708430416667,-0.8642253463333573,1.232344751024671,-0.4992234980989569,0.2086087018251419,-0.6895636320114136,-1.704635500907898,0.1409925222396851,-0.03900033235549927,0.04067039489746094,2,0.05145654015226461,0.5929586497607383,-0.4608201669772866,0.6583289332829254,0.8281480669975281,0.4787439405918121,-0.2915045320987701,31.14174652099609,32.72757339477539,18.06927490234375,2,9191.114474916667,4,2,1580905475.355641,1580903939.50652,1147,0.4533899,0,0,1470.409,1,0,1580905462.254594,9189.126056999999,0,2.48114,97.17428
1580905475.948204,140,0,1580904337.000819,41.20701635159924,29.07533761282497,172.748,-1,-1,5.74967098236084,48.00724964208526,-9999,9191.723506416667,1.063079833984375,0.5454559326171875,-0.1049652099609375,9191.718470416667,-0.8743667046351647,1.219913469705606,-0.5153520198950524,0.2876507937908173,-0.7525870203971863,-1.807982325553894,0.2135446667671204,0.0008552074432373047,0.1405439376831055,2,0.04528898758557852,0.5902602475129277,-0.4678307656561119,0.6562591853347692,0.8171026110649109,0.4928411841392517,-0.2990835011005402,31.14174652099609,32.72757339477539,18.06927490234375,2,9191.114474916667,4,2,1580905475.355641,1580903939.50652,1147,0.4533899,0,0,1470.409,1,0,1580905462.254594,9189.126056999999,0,2.48114,97.17428
1580905475.974313,141,0,1580904337.000819,41.20701635159924,29.07533761282497,172.748,-1,-1,5.74967098236084,48.00724964208526,-9999,9191.733546416668,1.118209838867188,0.5305633544921875,-0.1480560302734375,9191.728511416668,-0.884756833067911,1.206174114075,-0.5323851961214386,0.3773099780082703,-0.7663758397102356,-1.950747966766357,0.2571242451667786,0.03723591566085815,0.2014177441596985,2,0.0384582271091404,0.5872813968000551,-0.4749938241525091,0.6542190256770258,0.8049561381340027,0.5075898766517639,-0.3072430491447449,29.99123382568359,33.67509460449219,17.4251708984375,2,9191.114474916667,4,2,1580905475.355641,1580903939.50652,1147,0.4533899,0,0,1470.409,1,0,1580905462.254594,9189.126056999999,0,2.48114,97.17428
1580905475.97561,142,0,1580904337.000819,41.20701635159924,29.07533761282497,172.748,-1,-1,5.74967098236084,48.00724964208526,-9999,9191.743586416667,1.1090087890625,0.486846923828125,-0.2194366455078125,9191.738551416667,-0.8981898419400511,1.190915306405728,-0.5504722859944448,0.4134466648101807,-0.8349218368530273,-2.095084190368652,0.325709342956543,0.006824076175689697,0.1671278476715088,2,0.03165534084015695,0.5839361326999537,-0.4832204385557812,0.6515479087453332,0.7915177345275879,0.5230898261070251,-0.3160330653190613,29.99123382568359,33.67509460449219,17.4251708984375,2,9191.114474916667,4,2,1580905475.355641,1580903939.50652,1147,0.4533899,0,0,1470.409,1,0,1580905462.254594,9189.126056999999,0,2.48114,97.17428
1580905475.97853,143,0,1580904337.000819,41.20701635159924,29.07533761282497,172.748,-1,-1,5.74967098236084,48.00724964208526,-9999,9191.753657416668,1.03375244140625,0.4800872802734375,-0.264190673828125,9191.748591416666,-0.9113595866927616,1.174656116443543,-0.5696593899048126,0.429530531167984,-0.8441606163978577,-2.238470554351807,0.3311728835105896,-0.05316799879074097,0.1046522855758667,2,0.02399721849692715,0.5804830566877408,-0.4913892102232258,0.6488452835906299,0.7768713235855103,0.5393452644348145,-0.3249271214008331,28.81196594238281,35.00310134887695,16.72900390625,2,9191.114474916667,4,2,1580905475.355641,1580903939.50652,1147,0.4533899,0,0,1470.409,1,0,1580905462.254594,9189.126056999999,0,2.48114,97.17428
1580905475.988422,144,0,1580904337.000819,41.20701635159924,29.07533761282497,172.748,-1,-1,5.74967098236084,48.00724964208526,-9999,9191.763697416667,1.052642822265625,0.4658050537109375,-0.323699951171875,9191.758631416667,-0.9273497782522896,1.157883974853364,-0.590191292614471,0.4209314286708832,-0.7976897954940796,-2.406234979629517,0.2717999219894409,-0.07712364196777344,0.06837773323059082,2,0.01638914355078697,0.5770904443557205,-0.5004989971072056,0.6451347401858601,0.7610076665878296,0.5565199851989746,-0.3333960175514221,28.81196594238281,35.00310134887695,16.72900390625,2,9191.114474916667,4,2,1580905475.355641,1580903939.50652,1147,0.4533899,0,0,1470.409,1,0,1580905462.254594,9189.126056999999,0,2.48114,97.17428
1580905475.998505,145,0,1580904337.000819,41.20701635159924,29.07533761282497,172.748,-1,-1,5.74967098236084,48.00724964208526,-9999,9191.773738416667,1.133087158203125,0.4677581787109375,-0.348785400390625,9191.768672416667,-0.9430428961692485,1.140517385073643,-0.612406700686647,0.3889616131782532,-0.7587926983833313,-2.596805810928345,0.308038055896759,-0.1097471714019775,0.01680123805999756,2,0.007763551644397071,0.5738294256142084,-0.5095529436902092,0.6411047347277553,0.7436814308166504,0.5748384594917297,-0.3413190245628357,27.05491638183594,36.16030120849609,15.93722534179688,2,9191.114474916667,4,2,1580905475.355641,1580903939.50652,1147,0.4533899,0,0,1470.409,1,0,1580905462.254594,9189.126056999999,0,2.48114,97.17428
1580905476.012042,146,0,1580904337.000819,41.20701635159924,29.07533761282497,172.748,-1,-1,5.74967098236084,48.00724964208526,-9999,9191.783778416668,1.275909423828125,0.4737701416015625,-0.395172119140625,9191.778712416668,-0.961774895937114,1.122463601107202,-0.6367824304338828,0.3389932513237,-0.7023221850395203,-2.834807395935059,0.4076341390609741,-0.127591609954834,-0.001083850860595703,2,-0.001143908097116383,0.5707393996296931,-0.5196390704154855,0.6357912262587458,0.7245533466339111,0.5946115851402283,-0.3485104441642761,27.05491638183594,36.16030120849609,15.93722534179688,2,9191.114474916667,4,2,1580905475.355641,1580903939.50652,1147,0.4533899,0,0,1470.409,1,0,1580905462.254594,9189.126056999999,0,2.48114,97.17428
1580905476.035767,147,0,1580904337.000819,41.20701635159924,29.07533761282497,172.748,-1,-1,5.74967098236084,48.00724964208526,-9999,9191.793818416667,1.597381591796875,0.4234771728515625,-0.5513458251953125,9191.788752416667,-0.9805337580975968,1.102573571460259,-0.6642129126488797,0.2381183058023453,-0.7461109161376953,-3.162322759628296,0.5723814964294434,-0.1434347629547119,-0.04061710834503174,2,-0.01186527671951822,0.5676103405241671,-0.5298427838286804,0.6300351797477629,0.7026554942131042,0.6164395809173584,-0.355355441570282,25.0933837890625,37.35416030883789,15.54779052734375,2,9191.114474916667,4,2,1580905475.355641,1580903939.50652,1147,0.4533899,0,0,1470.409,1,0,1580905462.254594,9189.126056999999,0,2.48114,97.17428
1580905476.037083,148,0,1580904337.000819,41.20701635159924,29.07533761282497,172.748,-1,-1,5.74967098236084,48.00724964208526,-9999,9191.803858416668,1.793136596679688,0.388946533203125,-0.5836944580078125,9191.798823416668,-1.002734980555296,1.079125914608148,-0.695647732295097,0.07655204087495804,-0.9548260569572449,-3.556841611862183,0.9198328852653503,-0.2182013392448425,-0.1897358298301697,2,-0.02429888458475862,0.5640999705246177,-0.5412163707262503,0.6231257383518753,0.6767085194587708,0.6408827900886536,-0.3624015748500824,25.0933837890625,37.35416030883789,15.54779052734375,2,9191.114474916667,4,2,1580905475.355641,1580903939.50652,1147,0.4533899,0,0,1470.409,1,0,1580905462.254594,9189.126056999999,0,2.48114,97.17428
1580905476.038577,149,0,1580904337.000819,41.20701635159924,29.07533761282497,172.748,-1,-1,5.74967098236084,48.00724964208526,-9999,9191.813899416667,1.680130004882812,0.4908447265625,-0.39776611328125,9191.808863416667,-1.026636456590037,1.05267276562531,-0.7313223996515964,-0.04269763454794884,-0.9990001320838928,-4.03018856048584,1.145730137825012,-0.279737114906311,-0.2158670425415039,2,-0.03893662837175587,0.5605161140389495,-0.5530136933786494,0.6152085986010759,0.6466037034988403,0.6678544878959656,-0.3686112463474274,22.67243957519531,38.82584762573242,15.0909423828125,2,9191.114474916667,4,2,1580905475.355641,1580903939.50652,1147,0.4533899,0,0,1470.409,1,0,1580905462.254594,9189.126056999999,0,2.48114,97.17428
1580905476.048694,150,0,1580904337.000819,41.20701635159924,29.07533761282497,172.748,-1,-1,5.74967098236084,48.00724964208526,-9999,9191.823939416667,1.861007690429688,0.6051177978515625,-0.5198211669921875,9191.818904416667,-1.057566233152065,1.024409024095237,-0.7719823953731109,-0.1069139093160629,-0.7117068767547607,-4.626203536987305,1.067162036895752,-0.2075784206390381,-0.02623391151428223,2,-0.05428675587690798,0.5575815863047399,-0.566698542138884,0.6041594067751069,0.6122078895568848,0.6975570321083069,-0.3723114430904388,22.67243957519531,38.82584762573242,15.0909423828125,2,9191.114474916667,4,2,1580905475.355641,1580903939.50652,1147,0.4533899,0,0,1470.409,1,0,1580905462.254594,9189.126056999999,0,2.48114,97.17428
1580905476.059388,151,0,1580904337.000819,41.20701635159924,29.07533761282497,172.748,-1,-1,5.74967098236084,48.00724964208526,-9999,9191.833979416668,2.548370361328125,0.7686309814453125,-0.850555419921875,9191.828944416668,-1.093526963856528,0.993663133569555,-0.819493426748274,-0.3094795346260071,-0.3526874780654907,-5.382546901702881,1.288264989852905,-0.1265896558761597,-0.1481621265411377,2,-0.07185082056010915,0.5555343000292783,-0.5814304530047518,0.5900490822644328,0.5720325112342834,0.7308001518249512,-0.3724381923675537,19.04622650146484,40.20500946044922,14.75033569335938,2,9191.114474916667,4,2,1580905475.355641,1580903939.50652,1147,0.4533899,0,0,1470.409,1,0,1580905462.254594,9189.126056999999,0,2.48114,97.17428
1580905476.071056,152,0,1580904337.000819,41.20701635159924,29.07533761282497,172.748,-1,-1,5.74967098236084,48.00724964208526,-9999,9191.844020416667,3.41644287109375,0.9423675537109375,-0.9726409912109375,9191.838984416667,-1.14155286191991,0.9550810835403077,-0.8740212730040396,-0.4314773380756378,-0.2158047258853912,-6.248404502868652,2.02382230758667,0.0007627606391906738,-0.4807004928588867,2,-0.0913233471322582,0.5534814898379197,-0.5984294594454896,0.5720142740960279,0.5238974690437317,0.7669157981872559,-0.3706365823745728,19.04622650146484,40.20500946044922,14.75033569335938,2,9191.114474916667,4,2,1580905475.355641,1580903939.50652,1147,0.4533899,0,0,1470.409,1,0,1580905462.254594,9189.126056999999,0,2.48114,97.17428
1580905476.097833,153,0,1580904337.000819,41.20701635159924,29.07533761282497,172.748,-1,-1,5.74967098236084,48.00724964208526,-9999,9191.854060416666,3.73931884765625,0.834716796875,-0.3775634765625,9191.849024416668,-1.20557014831567,0.8987937186582019,-0.9350727535360499,-0.4421725571155548,-0.4836542010307312,-7.279868602752686,2.951203346252441,0.1367260813713074,-0.6037758588790894,2,-0.114537136554056,0.5495974155784707,-0.6171283781714785,0.5513406338164248,0.4646625518798828,0.8046422600746155,-0.3696478605270386,13.77696990966797,41.88908004760742,15.10040283203125,2,9191.114474916667,4,2,1580905475.355641,1580903939.50652,1147,0.4533899,0,0,1470.409,1,0,1580905462.254594,9189.126056999999,0,2.48114,97.17428
1580905476.098974,154,0,1580904337.000819,41.20701635159924,29.07533761282497,172.748,-1,-1,5.74967098236084,48.00724964208526,-9999,9191.864100416667,3.792205810546875,1.0985107421875,0.16845703125,9191.859065416667,-1.300221940734501,0.8131992256309363,-0.9982216981364325,-0.08633191138505936,-0.6793670058250427,-8.295207023620605,3.345219612121582,-0.006835699081420898,-0.006031334400177002,2,-0.139769171721793,0.5425023726415505,-0.6387936645574285,0.5273504703634787,0.3936104476451874,0.8405088186264038,-0.3723115026950836,6.782989501953125,43.28134536743164,15.04086303710938,2,9191.114474916667,4,2,1580905475.355641,1580903939.50652,1147,0.4533899,0,0,1470.409,1,0,1580905462.254594,9189.126056999999,0,2.48114,97.17428
1580905476.099885,155,0,1580904337.000819,41.20701635159924,29.07533761282497,172.748,-1,-1,5.74967098236084,48.00724964208526,-9999,9191.874171416668,4.197540283203125,0.892791748046875,0.2370452880859375,9191.869105416667,-1.436544437755799,0.6867216774962513,-1.056304795797109,0.6331495642662048,-0.9834638833999634,-9.112964630126953,3.479829072952271,0.2268865704536438,0.5482368469238281,2,-0.1659304247547596,0.5312179723291924,-0.6629736517534779,0.5007400262752971,0.3119892179965973,0.8705430626869202,-0.3805491328239441,6.782989501953125,43.28134536743164,15.04086303710938,2,9191.114474916667,4,2,1580905475.355641,1580903939.50652,1147,0.4533899,0,0,1470.409,1,0,1580905462.254594,9189.126056999999,0,2.48114,97.17428
1580905476.109183,156,0,1580904337.000819,41.20701635159924,29.07533761282497,172.748,-1,-1,5.74967098236084,48.00724964208526,-9999,9191.884211416667,4.11676025390625,0.44189453125,0.8042449951171875,9191.879145416668,-1.610407221451927,0.5270149175943005,-1.104051947600167,0.7267774939537048,-0.7101708054542542,-9.437785148620605,3.970938444137573,-0.001355469226837158,0.6252108216285706,2,-0.1909593644901349,0.5187217674249825,-0.687345820545586,0.4711879657261204,0.226320669054985,0.8930379748344421,-0.3889245092868805,-1.570419311523438,43.67886734008789,14.45462036132812,2,9191.114474916667,4,2,1580905475.355641,1580903939.50652,1147,0.4533899,0,0,1470.409,1,0,1580905462.254594,9189.126056999999,0,2.48114,97.17428
1580905476.119147,157,0,1580904337.000819,41.20701635159924,29.07533761282497,172.748,-1,-1,5.74967098236084,48.00724964208526,-9999,9191.894252416667,4.117233276367188,0.067535400390625,1.07696533203125,9191.889186416667,-1.810066610340473,0.3522947385961362,-1.130705416098306,1.255853414535522,0.6234380602836609,-9.065268516540527,3.969577789306641,-0.4639423489570618,1.203356146812439,2,-0.209397408754628,0.5061860787543586,-0.7117829279300123,0.4396513779622379,0.1469998061656952,0.9047129154205322,-0.3998567461967468,-1.570419311523438,43.67886734008789,14.45462036132812,2,9191.114474916667,4,2,1580905475.355641,1580903939.50652,1147,0.4533899,0,0,1470.409,1,0,1580905462.254594,9189.126056999999,0,2.48114,97.17428
1580905476.130622,158,0,1580904337.000819,41.20701635159924,29.07533761282497,172.748,-1,-1,5.74967098236084,48.00724964208526,-9999,9191.904292416668,4.01092529296875,-1.582427978515625,0.6195526123046875,9191.899226416666,-1.974938970888948,0.2024803148048342,-1.135802309633431,1.74410092830658,0.06007587164640427,-6.973137378692627,4.032383441925049,-0.8404638171195984,1.489031791687012,2,-0.223627079459906,0.4935513408082408,-0.7299627371223834,0.416596211581095,0.08474436402320862,0.906872570514679,-0.4127960205078125,-9.035774230957031,43.67881774902344,13.12106323242188,2,9191.114474916667,4,2,1580905475.355641,1580903939.50652,1147,0.4533899,0,0,1470.409,1,0,1580905462.254594,9189.126056999999,0,2.48114,97.17428
1580905476.152555,159,0,1580904337.000819,41.20701635159924,29.07533761282497,172.748,-1,-1,5.74967098236084,48.00724964208526,-9999,9191.914332416667,2.121795654296875,-2.874710083007812,-0.2114715576171875,9191.909266416667,-2.048826899573404,0.1118653979148635,-1.151024782725097,-1.233176946640015,-2.647969484329224,-3.565679311752319,3.965372800827026,-2.496744632720947,1.023817896842957,2,-0.2422874684739579,0.4886660766057432,-0.7314643644780536,0.4092213903864926,0.04549592360854149,0.9131820797920227,-0.4050045013427734,-9.035774230957031,43.67881774902344,13.12106323242188,2,9191.114474916667,4,2,1580905475.355641,1580903939.50652,1147,0.4533899,0,0,1470.409,1,0,1580905462.254594,9189.126056999999,0,2.48114,97.17428
1580905476.153994,160,0,1580904337.000819,41.20701635159924,29.07533761282497,172.748,-1,-1,5.74967098236084,48.00724964208526,-9999,9191.924372416668,0.4982452392578125,-1.270843505859375,0.1591033935546875,9191.919337416668,-2.004370132000251,0.1217306679489581,-1.169947262178424,-2.044151306152344,-2.868727207183838,1.904173016548157,2.074354648590088,-3.796583890914917,0.1750800609588623,2,-0.2540422687102646,0.491737902850758,-0.7193242069108692,0.4197964138731333,0.04738210886716843,0.9207299947738647,-0.3873127102851868,-10.37466430664062,44.85719680786133,14.25244140625,2,9191.114474916667,4,2,1580905475.355641,1580903939.50652,1147,0.4533899,0,0,1470.409,1,0,1580905462.254594,9189.126056999999,0,2.48114,97.17428
1580905476.159415,161,0,1580904337.000819,41.20701635159924,29.07533761282497,172.748,-1,-1,5.74967098236084,48.00724964208526,-9999,9191.934413416668,1.819656372070312,-0.0160369873046875,0.886199951171875,9191.929377416667,-1.89711015563246,0.1855938863039556,-1.184035247412405,-2.101923227310181,-3.664662837982178,3.961807489395142,0.4285556375980377,-2.198129653930664,0.5290348529815674,2,-0.2613744154742829,0.4963132094283656,-0.7015257287681766,0.4395660418335537,0.06960310786962509,0.9261355996131897,-0.3707132339477539,-10.37466430664062,44.85719680786133,14.25244140625,2,9191.114474916667,4,2,1580905475.355641,1580903939.50652,1147,0.4533899,0,0,1470.409,1,0,1580905462.254594,9189.126056999999,0,2.48114,97.17428
1580905476.169123,162,0,1580904337.000819,41.20701635159924,29.07533761282497,172.748,-1,-1,5.74967098236084,48.00724964208526,-9999,9191.944453416667,2.469314575195312,1.051284790039062,1.022964477539062,9191.939418416667,-1.789033360467632,0.2570078145237118,-1.186566114177213,-1.134366393089294,-2.817428588867188,3.904789686203003,1.724256753921509,-0.9442754983901978,1.247942447662354,2,-0.2641786850851378,0.4989414690817359,-0.6861401971609866,0.4587797511342654,0.09528125822544098,0.9270872473716736,-0.3625340759754181,-5.890365600585938,47.66710662841797,15.83203125,2,9191.114474916667,4,2,1580905475.355641,1580903939.50652,1147,0.4533899,0,0,1470.409,1,0,1580905462.254594,9189.126056999999,0,2.48114,97.17428
