loggingTime,loggingSample,identifierForVendor,locationTimestamp_since1970,locationLatitude,locationLongitude,locationAltitude,locationSpeed,locationCourse,locationVerticalAccuracy,locationHorizontalAccuracy,locationFloor,accelerometerTimestamp_sinceReboot,accelerometerAccelerationX,accelerometerAccelerationY,accelerometerAccelerationZ,motionTimestamp_sinceReboot,motionYaw,motionRoll,motionPitch,motionRotationRateX,motionRotationRateY,motionRotationRateZ,motionUserAccelerationX,motionUserAccelerationY,motionUserAccelerationZ,motionAttitudeReferenceFrame,motionQuaternionX,motionQuaternionY,motionQuaternionZ,motionQuaternionW,motionGravityX,motionGravityY,motionGravityZ,motionMagneticFieldX,motionMagneticFieldY,motionMagneticFieldZ,motionMagneticFieldCalibrationAccuracy,activityTimestamp_sinceReboot,activity,activityActivityConfidence,activityActivityStartDate,pedometerStartDate,pedometerNumberofSteps,pedometerAverageActivePace,pedometerCurrentPace,pedometerCurrentCadence,pedometerDistance,pedometerFloorAscended,pedometerFloorDescended,pedometerEndDate,altimeterTimestamp_sinceReboot,altimeterReset,altimeterRelativeAltitude,altimeterPressure
1580907343.163415,1,0,1580907286.99823,41.20781296037784,29.0754925099451,275.2123,0.1345286,-1,23.46983528137207,200,-9999,11058.91914854167,0.9692840576171875,0.0922698974609375,-0.154571533203125,11058.91408254167,1.707245224923459,1.414199115346193,-0.09451859557638406,-0.005891652777791023,0.03052040934562683,-0.009383725933730602,-0.004996180534362793,-0.00582846999168396,0.00644916296005249,2,-0.512664426723264,0.3994299344966721,0.5521635094912148,0.5222511694634802,0.9833546876907349,0.09437792748212814,-0.15526182949543,61.82115936279297,-4.959367752075195,11.90744018554688,2,11058.73698954167,2,0,1580907342.978156,1580903939.50652,2377,0.4626901,0,0,2938.329,10,11,1580907321.19788,11056.042891,0,14.14169,97.03895
1580907343.164895,2,0,1580907286.99823,41.20781296037784,29.0754925099451,275.2123,0.1345286,-1,23.46983528137207,200,-9999,11058.92918954167,0.9687042236328125,0.0916900634765625,-0.1552886962890625,11058.92415354167,1.707304629823562,1.414366066393063,-0.09471956808988787,-0.008422819897532463,0.01641707867383957,-0.01864895224571228,-0.02363443374633789,-0.0013904869556427,-0.005803346633911133,2,-0.5127701939187289,0.3993987712126701,0.5520906540667089,0.522248232748444,0.9833618402481079,0.09457799792289734,-0.1550946980714798,61.81629180908203,-5.055196762084961,11.86651611328125,2,11058.73698954167,2,0,1580907342.978156,1580903939.50652,2377,0.4626901,0,0,2938.329,10,11,1580907321.19788,11056.042891,0,14.14169,97.03895
1580907343.166564,3,0,1580907286.99823,41.20781296037784,29.0754925099451,275.2123,0.1345286,-1,23.46983528137207,200,-9999,11058.93922954167,0.9670562744140625,0.092132568359375,-0.1541290283203125,11058.93419354167,1.707339115249718,1.414520238687533,-0.0949289058489317,-0.006693096831440926,0.0160418413579464,-0.02086097374558449,-0.01336944103240967,-0.003583043813705444,0.0002213716506958008,2,-0.5128694531435423,0.3993681566412078,0.5520126256682544,0.5222566103743501,0.9833661317825317,0.0947863981127739,-0.1549399942159653,61.81629180908203,-5.055196762084961,11.86651611328125,2,11058.73698954167,2,0,1580907342.978156,1580903939.50652,2377,0.4626901,0,0,2938.329,10,11,1580907321.19788,11056.042891,0,14.14169,97.03895
1580907343.168123,4,0,1580907286.99823,41.20781296037784,29.0754925099451,275.2123,0.1345286,-1,23.46983528137207,200,-9999,11058.94926954167,0.964202880859375,0.094818115234375,-0.154388427734375,11058.94423454167,1.70737009319026,1.414576486846469,-0.09511236782107522,-0.004989731125533581,0.006609369069337845,-0.01761910691857338,-0.02059364318847656,-0.003277897834777832,-0.003666818141937256,2,-0.5129348007169866,0.3993205483422753,0.5519646699307046,0.5222795350926003,0.9833576679229736,0.09496902674436569,-0.1548819839954376,61.65132904052734,-4.918649673461914,12.02215576171875,2,11058.73698954167,2,0,1580907342.978156,1580903939.50652,2377,0.4626901,0,0,2938.329,10,11,1580907321.19788,11056.042891,0,14.14169,97.03895
1580907343.169636,5,0,1580907286.99823,41.20781296037784,29.0754925099451,275.2123,0.1345286,-1,23.46983528137207,200,-9999,11058.95930954167,0.9659576416015625,0.0940704345703125,-0.1545867919921875,11058.95427454167,1.707383266643532,1.414586584575944,-0.09526309117891263,-0.003587044309824705,0.003131547942757607,-0.01337962038815022,-0.01971137523651123,-0.001124322414398193,-0.0004441142082214355,2,-0.5129760421723477,0.399275171641967,0.5519313502157326,0.5223090313690963,0.9833451509475708,0.09511906653642654,-0.1548698395490646,61.65132904052734,-4.918649673461914,12.02215576171875,2,11058.73698954167,2,0,1580907342.978156,1580903939.50652,2377,0.4626901,0,0,2938.329,10,11,1580907321.19788,11056.042891,0,14.14169,97.03895
1580907343.177248,6,0,1580907286.99823,41.20781296037784,29.0754925099451,275.2123,0.1345286,-1,23.46983528137207,200,-9999,11058.96938054167,0.9710693359375,0.0928192138671875,-0.1528778076171875,11058.96431454167,1.707387279062604,1.414474378423114,-0.09542378404661513,-0.003725101239979267,-0.01034550368785858,-0.01581930555403233,-0.02222698926925659,-0.0009947717189788818,-0.002914547920227051,2,-0.5129840954092558,0.3991972229571565,0.5519247143152599,0.5223677152286521,0.9833126664161682,0.0952790305018425,-0.1549777835607529,61.65052032470703,-4.904340744018555,12.13314819335938,2,11058.73698954167,2,0,1580907342.978156,1580903939.50652,2377,0.4626901,0,0,2938.329,10,11,1580907321.19788,11056.042891,0,14.14169,97.03895
1580907343.187753,7,0,1580907286.99823,41.20781296037784,29.0754925099451,275.2123,0.1345286,-1,23.46983528137207,200,-9999,11058.97942154167,0.9684600830078125,0.094207763671875,-0.152130126953125,11058.97435554167,1.707365958436548,1.414225476172637,-0.09556973634293055,0.001654750667512417,-0.02599024400115013,-0.01600918918848038,-0.0153384804725647,-0.002986758947372437,-1.633167266845703e-05,2,-0.5129458754840427,0.3990944125813025,0.5519498500929704,0.5224571914510854,0.9832602739334106,0.09542432427406311,-0.1552203595638275,61.65052032470703,-4.904340744018555,12.13314819335938,2,11058.73698954167,2,0,1580907342.978156,1580903939.50652,2377,0.4626901,0,0,2938.329,10,11,1580907321.19788,11056.042891,0,14.14169,97.03895
1580907343.209894,8,0,1580907286.99823,41.20781296037784,29.0754925099451,275.2123,0.1345286,-1,23.46983528137207,200,-9999,11058.98946154167,0.9589996337890625,0.094818115234375,-0.1575775146484375,11058.98439554167,1.707349973518696,1.413998597232011,-0.09564456854520829,0.001705827191472054,-0.02195294946432114,-0.009141256101429462,-0.01532655954360962,-0.001962840557098389,0.001289606094360352,2,-0.5128978905812351,0.3990170424291931,0.5519868541415731,0.522524214705641,0.9832178950309753,0.09549880772829056,-0.1554423123598099,61.77335357666016,-5.05030632019043,11.8343505859375,2,11058.73698954167,2,0,1580907342.978156,1580903939.50652,2377,0.4626901,0,0,2938.329,10,11,1580907321.19788,11056.042891,0,14.14169,97.03895
1580907343.210893,9,0,1580907286.99823,41.20781296037784,29.0754925099451,275.2123,0.1345286,-1,23.46983528137207,200,-9999,11058.99950154167,0.958648681640625,0.0944061279296875,-0.1588897705078125,11058.99443554167,1.707344315935307,1.413827207369557,-0.09565328645696727,-0.0004502683877944946,-0.01776060089468956,-0.00324315344914794,-0.02530872821807861,-0.0006439685821533203,-0.002676486968994141,2,-0.5128514738734516,0.3989711838061447,0.5520274191037111,0.5225621667840064,0.983190655708313,0.09550748765468597,-0.1556107252836227,61.77335357666016,-5.05030632019043,11.8343505859375,2,11058.73698954167,2,0,1580907342.978156,1580903939.50652,2377,0.4626901,0,0,2938.329,10,11,1580907321.19788,11056.042891,0,14.14169,97.03895
1580907343.218002,10,0,1580907286.99823,41.20781296037784,29.0754925099451,275.2123,0.1345286,-1,23.46983528137207,200,-9999,11059.00954154167,0.9620513916015625,0.093475341796875,-0.158905029296875,11059.00450654167,1.707340911605765,1.413684224009393,-0.09557165574911249,0.00241722259670496,-0.01384967565536499,0.01038740575313568,-0.02823913097381592,-0.0004862546920776367,-0.00474703311920166,2,-0.5127919499306398,0.398958855786444,0.5520816606306086,0.5225725233407241,0.9831759333610535,0.09542623162269592,-0.155752494931221,61.64104461669922,-5.004091262817383,11.89077758789062,2,11058.73698954167,2,0,1580907342.978156,1580903939.50652,2377,0.4626901,0,0,2938.329,10,11,1580907321.19788,11056.042891,0,14.14169,97.03895
1580907343.227448,11,0,1580907286.99823,41.20781296037784,29.0754925099451,275.2123,0.1345286,-1,23.46983528137207,200,-9999,11059.01958254167,0.966705322265625,0.094085693359375,-0.1563873291015625,11059.01454654167,1.707328695234353,1.413531057681603,-0.09548062944066274,0.004167718812823296,-0.01497619226574898,0.009341582655906677,-0.02402758598327637,-0.002684175968170166,-0.006364703178405762,2,-0.5127255746516798,0.3989489493498182,0.5521383846840193,0.5225852808158894,0.9831606149673462,0.09533561766147614,-0.1559044420719147,61.64104461669922,-5.004091262817383,11.89077758789062,2,11058.73698954167,2,0,1580907342.978156,1580903939.50652,2377,0.4626901,0,0,2938.329,10,11,1580907321.19788,11056.042891,0,14.14169,97.03895
1580907343.237643,12,0,1580907286.99823,41.20781296037784,29.0754925099451,275.2123,0.1345286,-1,23.46983528137207,200,-9999,11059.02962254167,0.9657745361328125,0.09234619140625,-0.1578369140625,11059.02458754167,1.707329764508845,1.413381005599726,-0.09540065071929228,-3.608129918575287e-05,-0.01455035246908665,0.008133837953209877,-0.02045625448226929,-0.001078486442565918,-0.003010988235473633,2,-0.5126653056691036,0.3989331992460186,0.5521952996924361,0.522596394038531,0.9831448197364807,0.095256008207798,-0.1560531705617905,61.60518646240234,-5.139287948608398,11.89089965820312,2,11058.73698954167,2,0,1580907342.978156,1580903939.50652,2377,0.4626901,0,0,2938.329,10,11,1580907321.19788,11056.042891,0,14.14169,97.03895
1580907343.247607,13,0,1580907286.99823,41.20781296037784,29.0754925099451,275.2123,0.1345286,-1,23.46983528137207,200,-9999,11059.03966254167,0.966339111328125,0.0914764404296875,-0.1588897705078125,11059.03462754167,1.70730853575477,1.413268748509425,-0.09536328978876757,0.001885656267404556,-0.01077638752758503,0.002673293463885784,-0.01929783821105957,-0.003040045499801636,-0.003266036510467529,2,-0.5126211833599823,0.3989203852296481,0.5522270022840776,0.5226159671182014,0.9831308722496033,0.09521881490945816,-0.1561640948057175,61.60518646240234,-5.139287948608398,11.89089965820312,2,11058.73698954167,2,0,1580907342.978156,1580903939.50652,2377,0.4626901,0,0,2938.329,10,11,1580907321.19788,11056.042891,0,14.14169,97.03895
1580907343.271698,14,0,1580907286.99823,41.20781296037784,29.0754925099451,275.2123,0.1345286,-1,23.46983528137207,200,-9999,11059.04973354167,0.9696044921875,0.08905029296875,-0.1593170166015625,11059.04466754167,1.707279741887386,1.413184268984519,-0.09540512081541948,0.002335488796234131,-0.007815460674464703,-0.00522593455389142,-0.02036404609680176,-0.003371775150299072,-0.004831314086914062,2,-0.5126020770986531,0.398893281167164,0.552231634861807,0.5226504694860713,0.983113706111908,0.09526045620441437,-0.1562465280294418,61.63864898681641,-4.997346878051758,11.7578125,2,11058.73698954167,2,0,1580907342.978156,1580903939.50652,2377,0.4626901,0,0,2938.329,10,11,1580907321.19788,11056.042891,0,14.14169,97.03895
1580907343.272876,15,0,1580907286.99823,41.20781296037784,29.0754925099451,275.2123,0.1345286,-1,23.46983528137207,200,-9999,11059.05977354167,0.9670867919921875,0.089324951171875,-0.159820556640625,11059.05470754167,1.707281778828273,1.413136899016671,-0.09549953012459454,-0.00227124709635973,-0.00487879291176796,-0.009865161031484604,-0.01712799072265625,-0.00575488805770874,-0.005365848541259766,2,-0.512611888623008,0.3988523747568279,0.5522228776190939,0.5226812512825264,0.9830973148345947,0.09535443782806396,-0.156291663646698,61.63864898681641,-4.997346878051758,11.7578125,2,11058.73698954167,2,0,1580907342.978156,1580903939.50652,2377,0.4626901,0,0,2938.329,10,11,1580907321.19788,11056.042891,0,14.14169,97.03895
1580907343.277738,16,0,1580907286.99823,41.20781296037784,29.0754925099451,275.2123,0.1345286,-1,23.46983528137207,200,-9999,11059.06981454167,0.9598236083984375,0.0933685302734375,-0.1607513427734375,11059.06474854167,1.707270283900873,1.413170445737271,-0.09559098016528769,0.0003708498552441597,0.004233188927173615,-0.01003211550414562,-0.01645314693450928,-0.0071888267993927,-0.00543057918548584,2,-0.5126405867495838,0.3988370079505294,0.5521905772131444,0.5226990961388518,0.9830940961837769,0.09544546902179718,-0.1562573462724686,61.65402984619141,-4.957475662231445,11.84732055664062,2,11058.73698954167,2,0,1580907342.978156,1580903939.50652,2377,0.4626901,0,0,2938.329,10,11,1580907321.19788,11056.042891,0,14.14169,97.03895
1580907343.287861,17,0,1580907286.99823,41.20781296037784,29.0754925099451,275.2123,0.1345286,-1,23.46983528137207,200,-9999,11059.07985454167,0.96173095703125,0.092376708984375,-0.1587677001953125,11059.07478854167,1.707269808215902,1.413257942703312,-0.09566769752838987,-0.001367128454148769,0.008458560332655907,-0.007454974576830864,-0.02472996711730957,-0.003282874822616577,-0.007074594497680664,2,-0.5126829410251363,0.3988372175400905,0.5521505790448624,0.522699501563593,0.983100414276123,0.09552183747291565,-0.1561701446771622,61.65402984619141,-4.957475662231445,11.84732055664062,2,11058.73698954167,2,0,1580907342.978156,1580903939.50652,2377,0.4626901,0,0,2938.329,10,11,1580907321.19788,11056.042891,0,14.14169,97.03895
1580907343.297879,18,0,1580907286.99823,41.20781296037784,29.0754925099451,275.2123,0.1345286,-1,23.46983528137207,200,-9999,11059.08989454167,0.9633941650390625,0.092529296875,-0.1578826904296875,11059.08485954167,1.707269448097028,1.41338170958959,-0.09571524505929065,0.0004371944814920425,0.01272453367710114,-0.004873988684266806,-0.02527880668640137,-0.002735227346420288,-0.005427360534667969,2,-0.5127283624448619,0.3988555479520714,0.5521079566421644,0.522685935343803,0.9831151962280273,0.09556916356086731,-0.1560477614402771,61.67009735107422,-4.89592170715332,11.89453125,2,11058.73698954167,2,0,1580907342.978156,1580903939.50652,2377,0.4626901,0,0,2938.329,10,11,1580907321.19788,11056.042891,0,14.14169,97.03895
1580907343.307967,19,0,1580907286.99823,41.20781296037784,29.0754925099451,275.2123,0.1345286,-1,23.46983528137207,200,-9999,11059.09993454167,0.9584503173828125,0.09527587890625,-0.1596832275390625,11059.09489954167,1.707290245911897,1.413559526259529,-0.09571599635277894,-0.002181225456297398,0.01751555874943733,0.0003524646162986755,-0.02205634117126465,-0.00392615795135498,-0.004473209381103516,2,-0.5127817210274476,0.3988965123382963,0.5520676982824816,0.5226450641345403,0.9831430315971375,0.095569908618927,-0.1558729559183121,61.67009735107422,-4.89592170715332,11.89453125,2,11058.73698954167,2,0,1580907342.978156,1580903939.50652,2377,0.4626901,0,0,2938.329,10,11,1580907321.19788,11056.042891,0,14.14169,97.03895
1580907343.332811,20,0,1580907286.99823,41.20781296037784,29.0754925099451,275.2123,0.1345286,-1,23.46983528137207,200,-9999,11059.10997554167,0.96282958984375,0.0965728759765625,-0.1564483642578125,11059.10493954167,1.707314151363712,1.413758340646037,-0.09563102221310918,-0.001979438122361898,0.02085606381297112,0.009713364765048027,-0.02642905712127686,-0.001064270734786987,-0.005904197692871094,2,-0.5128212129900843,0.3989674669007696,0.5520421726207181,0.5225788710204323,0.9831818342208862,0.09548532962799072,-0.1556787341833115,61.70702362060547,-4.880510330200195,11.883544921875,2,11058.73698954167,2,0,1580907342.978156,1580903939.50652,2377,0.4626901,0,0,2938.329,10,11,1580907321.19788,11056.042891,0,14.14169,97.03895
1580907343.335386,21,0,1580907286.99823,41.20781296037784,29.0754925099451,275.2123,0.1345286,-1,23.46983528137207,200,-9999,11059.12001554167,0.967987060546875,0.0945281982421875,-0.153533935546875,11059.11498054167,1.707312689729066,1.413885274832502,-0.09547197239932338,0.003189224749803543,0.01402638852596283,0.01547191850841045,-0.02530425786972046,0.0007882118225097656,-0.004699409008026123,2,-0.5128180880387013,0.3990481804870937,0.5520453675915176,0.5225170618437524,0.9832166433334351,0.09532700479030609,-0.155556321144104,61.70702362060547,-4.880510330200195,11.883544921875,2,11058.73698954167,2,0,1580907342.978156,1580903939.50652,2377,0.4626901,0,0,2938.329,10,11,1580907321.19788,11056.042891,0,14.14169,97.03895
1580907343.33807,22,0,1580907286.99823,41.20781296037784,29.0754925099451,275.2123,0.1345286,-1,23.46983528137207,200,-9999,11059.13008654167,0.97015380859375,0.0924224853515625,-0.1553497314453125,11059.12502054167,1.707306041087877,1.41390678503432,-0.09530675068795297,0.004034769721329212,7.281079888343811e-05,0.0159938745200634,-0.01932656764984131,-8.445978164672852e-05,-0.0009187459945678711,2,-0.512783393159512,0.3991044716165439,0.5520755950912001,0.5224761723698947,0.9832355380058289,0.095162533223629,-0.1555376201868057,61.72924041748047,-5.116655349731445,11.90185546875,2,11058.73698954167,2,0,1580907342.978156,1580903939.50652,2377,0.4626901,0,0,2938.329,10,11,1580907321.19788,11056.042891,0,14.14169,97.03895
1580907343.34809,23,0,1580907286.99823,41.20781296037784,29.0754925099451,275.2123,0.1345286,-1,23.46983528137207,200,-9999,11059.14012654167,0.9675140380859375,0.091644287109375,-0.1586761474609375,11059.13506054167,1.707297075476347,1.413914957268794,-0.09517873417785561,0.003387887962162495,0.001499732956290245,0.01239487901329994,-0.015738844871521,-0.002443879842758179,-0.0008943080902099609,2,-0.5127533781458365,0.3991468663765171,0.5521002255577127,0.5224473090907797,0.9832489490509033,0.09503509849309921,-0.1555315107107162,61.72924041748047,-5.116655349731445,11.90185546875,2,11058.73698954167,2,0,1580907342.978156,1580903939.50652,2377,0.4626901,0,0,2938.329,10,11,1580907321.19788,11056.042891,0,14.14169,97.03895
1580907343.358105,24,0,1580907286.99823,41.20781296037784,29.0754925099451,275.2123,0.1345286,-1,23.46983528137207,200,-9999,11059.15016654167,0.968994140625,0.0909271240234375,-0.157318115234375,11059.14510054167,1.707288060148584,1.413891863356705,-0.09509443460433285,0.001684887334704399,-0.002893397584557533,0.008077498525381088,-0.01812350749969482,-0.003229498863220215,-0.005035936832427979,2,-0.512725153419599,0.3991681198527449,0.5521229025440331,0.5224347735812042,0.9832532405853271,0.09495117515325546,-0.1555554568767548,61.78827667236328,-5.145235061645508,11.7491455078125,2,11058.73698954167,2,0,1580907342.978156,1580903939.50652,2377,0.4626901,0,0,2938.329,10,11,1580907321.19788,11056.042891,0,14.14169,97.03895
1580907343.368104,25,0,1580907286.99823,41.20781296037784,29.0754925099451,275.2123,0.1345286,-1,23.46983528137207,200,-9999,11059.16020754167,0.969940185546875,0.0913238525390625,-0.156707763671875,11059.15514154167,1.70726296046502,1.413846309992336,-0.09505863304441521,0.003148294053971767,-0.003633225336670876,0.003917641006410122,-0.0170975923538208,-0.004155069589614868,-0.004380404949188232,2,-0.5126990847922842,0.3991732311424847,0.5521361005235598,0.5224423600278547,0.9832493662834167,0.09491553902626038,-0.1556007564067841,61.78827667236328,-5.145235061645508,11.7491455078125,2,11058.73698954167,2,0,1580907342.978156,1580903939.50652,2377,0.4626901,0,0,2938.329,10,11,1580907321.19788,11056.042891,0,14.14169,97.03895
1580907343.394024,26,0,1580907286.99823,41.20781296037784,29.0754925099451,275.2123,0.1345286,-1,23.46983528137207,200,-9999,11059.17024754167,0.9693603515625,0.090057373046875,-0.1573028564453125,11059.16521254167,1.70724990416624,1.413791386849425,-0.09508785615384074,9.251944720745087e-05,-0.004768603481352329,-0.002618256956338882,-0.01650631427764893,-0.003879010677337646,-0.003655016422271729,2,-0.5126882123764681,0.3991536247927327,0.5521402121511312,0.5224638966576254,0.9832382798194885,0.09494462609291077,-0.1556543558835983,61.73186492919922,-5.240938186645508,11.89840698242188,2,11058.73698954167,2,0,1580907342.978156,1580903939.50652,2377,0.4626901,0,0,2938.329,10,11,1580907321.19788,11056.042891,0,14.14169,97.03895
1580907343.395307,27,0,1580907286.99823,41.20781296037784,29.0754925099451,275.2123,0.1345286,-1,23.46983528137207,200,-9999,11059.18028754167,0.967193603515625,0.0909576416015625,-0.1578521728515625,11059.17525254167,1.70724189123299,1.413744677917673,-0.09515484820628961,-0.0002110814675688744,-0.004752624779939651,-0.006768261082470417,-0.01579082012176514,-0.005105584859848022,-0.003564238548278809,2,-0.5126896771784416,0.3991236068825103,0.5521348769783534,0.5224909613889258,0.983224630355835,0.09501131623983383,-0.1556992828845978,61.73630523681641,-5.187307357788086,11.58834838867188,2,11058.73698954167,2,0,1580907342.978156,1580903939.50652,2377,0.4626901,0,0,2938.329,10,11,1580907321.19788,11056.042891,0,14.14169,97.03895
1580907343.398264,28,0,1580907286.99823,41.20781296037784,29.0754925099451,275.2123,0.1345286,-1,23.46983528137207,200,-9999,11059.19032854167,0.965667724609375,0.09234619140625,-0.1573638916015625,11059.18529254167,1.707232879608712,1.41371176516571,-0.09521850733894782,0.000242721289396286,-0.002864442765712738,-0.006015917751938105,-0.01829737424850464,-0.004802912473678589,-0.004433035850524902,2,-0.5126939517552308,0.3990984419221036,0.5521265079038582,0.5225147914234459,0.9832135438919067,0.09507469087839127,-0.1557306945323944,61.73630523681641,-5.187307357788086,11.58834838867188,2,11058.73698954167,2,0,1580907342.978156,1580903939.50652,2377,0.4626901,0,0,2938.329,10,11,1580907321.19788,11056.042891,0,14.14169,97.03895
1580907343.40833,29,0,1580907286.99823,41.20781296037784,29.0754925099451,275.2123,0.1345286,-1,23.46983528137207,200,-9999,11059.20036854167,0.9672088623046875,0.092254638671875,-0.157012939453125,11059.19533254167,1.707215892696987,1.413665381971468,-0.09528831373637402,0.0009854771196842194,-0.004223188385367393,-0.008083595894277096,-0.0196874737739563,-0.003331422805786133,-0.003747701644897461,2,-0.5126944016828687,0.3990699579941781,0.5521180859631245,0.5225448721250094,0.9831995964050293,0.09514417499303818,-0.1557752341032028,61.59296417236328,-5.203462600708008,11.83633422851562,2,11058.73698954167,2,0,1580907342.978156,1580903939.50652,2377,0.4626901,0,0,2938.329,10,11,1580907321.19788,11056.042891,0,14.14169,97.03895
1580907343.418664,30,0,1580907286.99823,41.20781296037784,29.0754925099451,275.2123,0.1345286,-1,23.46983528137207,200,-9999,11059.21043954167,0.9644622802734375,0.0925140380859375,-0.1570892333984375,11059.20537354167,1.707222789190584,1.413614310820008,-0.09536159240378597,-0.003016224130988121,-0.005327632650732994,-0.007621390279382467,-0.01921480894088745,-0.003236740827560425,-0.003744184970855713,2,-0.512699122680524,0.3990331209963308,0.5521163503843376,0.522570179623808,0.9831847548484802,0.09521712362766266,-0.1558243632316589,61.59296417236328,-5.203462600708008,11.83633422851562,2,11058.73698954167,2,0,1580907342.978156,1580903939.50652,2377,0.4626901,0,0,2938.329,10,11,1580907321.19788,11056.042891,0,14.14169,97.03895
1580907343.428418,31,0,1580907286.99823,41.20781296037784,29.0754925099451,275.2123,0.1345286,-1,23.46983528137207,200,-9999,11059.22048625,0.9644622802734375,0.092803955078125,-0.158447265625,11059.21542025,1.707214982392771,1.413562860700414,-0.09540222587763257,0.001419803127646446,-0.004187267273664474,-0.004178722389042377,-0.01999640464782715,-0.003185749053955078,-0.002870082855224609,2,-0.512693033279511,0.3990096326120351,0.5521182798386824,0.5225920408109116,0.9831728935241699,0.09525757282972336,-0.1558743268251419,61.57381439208984,-5.098909378051758,11.68093872070312,2,11058.73698954167,2,0,1580907342.978156,1580903939.50652,2377,0.4626901,0,0,2938.329,10,11,1580907321.19788,11056.042891,0,14.14169,97.03895
1580907343.453994,32,0,1580907286.99823,41.20781296037784,29.0754925099451,275.2123,0.1345286,-1,23.46983528137207,200,-9999,11059.23052625,0.9648590087890625,0.0945587158203125,-0.1565704345703125,11059.22546025,1.707216724166307,1.413479904144598,-0.0953982505974957,0.000165882520377636,-0.00800765585154295,0.0009228866547346115,-0.02205908298492432,-0.003059715032577515,-0.004985570907592773,2,-0.5126695124913917,0.3989887075138633,0.5521409273705957,0.522607247790822,0.9831604361534119,0.09525361657142639,-0.155955970287323,61.57381439208984,-5.098909378051758,11.68093872070312,2,11058.73698954167,2,0,1580907342.978156,1580903939.50652,2377,0.4626901,0,0,2938.329,10,11,1580907321.19788,11056.042891,0,14.14169,97.03895
1580907343.455345,33,0,1580907286.99823,41.20781296037784,29.0754925099451,275.2123,0.1345286,-1,23.46983528137207,200,-9999,11059.24056625,0.962890625,0.094818115234375,-0.156646728515625,11059.23550125,1.707213941336922,1.413388571725652,-0.0953523681397429,0.0005200831219553947,-0.00900021567940712,0.004277937114238739,-0.02078258991241455,-0.001396507024765015,-0.003368914127349854,2,-0.5126328117438399,0.3989791667244572,0.5521740320955268,0.522615603373512,0.9831505417823792,0.09520794451236725,-0.156046450138092,61.75704193115234,-5.290811538696289,11.80313110351562,2,11058.73698954167,2,0,1580907342.978156,1580903939.50652,2377,0.4626901,0,0,2938.329,10,11,1580907321.19788,11056.042891,0,14.14169,97.03895
1580907343.458651,34,0,1580907286.99823,41.20781296037784,29.0754925099451,275.2123,0.1345286,-1,23.46983528137207,200,-9999,11059.25060725,0.9615631103515625,0.093658447265625,-0.1577911376953125,11059.24557125,1.707200854692301,1.413306847566681,-0.09526264973880978,0.002769128419458866,-0.008684872649610043,0.008326569572091103,-0.02233469486236572,-0.0004524886608123779,-0.002752959728240967,2,-0.5125862993641358,0.3989877468184864,0.5522118884304174,0.5226146170018166,0.9831461310386658,0.09511863440275192,-0.1561281234025955,61.75704193115234,-5.290811538696289,11.80313110351562,2,11058.73698954167,2,0,1580907342.978156,1580903939.50652,2377,0.4626901,0,0,2938.329,10,11,1580907321.19788,11056.042891,0,14.14169,97.03895
1580907343.46867,35,0,1580907286.99823,41.20781296037784,29.0754925099451,275.2123,0.1345286,-1,23.46983528137207,200,-9999,11059.26064725,0.9638519287109375,0.091949462890625,-0.15875244140625,11059.25561225,1.707188013039955,1.413278080914043,-0.09517559825046322,0.002826918847858906,-0.001975838094949722,0.008519915863871574,-0.02421510219573975,-0.001403152942657471,-0.003470718860626221,2,-0.5125550273051098,0.3990093696830412,0.552235704925348,0.5226038046339301,0.9831500053405762,0.0950319766998291,-0.1561577320098877,61.74007415771484,-5.191553115844727,11.67147827148438,2,11058.73698954167,2,0,1580907342.978156,1580903939.50652,2377,0.4626901,0,0,2938.329,10,11,1580907321.19788,11056.042891,0,14.14169,97.03895
1580907343.478609,36,0,1580907286.99823,41.20781296037784,29.0754925099451,275.2123,0.1345286,-1,23.46983528137207,200,-9999,11059.27068725,0.9667816162109375,0.089935302734375,-0.159759521484375,11059.26565225,1.707194707098349,1.413281332567398,-0.09512235101222002,-0.0007193461060523987,-0.0004868637770414352,0.004445279017090797,-0.02327454090118408,-0.00283011794090271,-0.004541337490081787,2,-0.5125446140802028,0.3990242612374039,0.5522486616294938,0.5225888449302135,0.9831554293632507,0.09497896581888199,-0.1561553180217743,61.74007415771484,-5.191553115844727,11.67147827148438,2,11058.73698954167,2,0,1580907342.978156,1580903939.50652,2377,0.4626901,0,0,2938.329,10,11,1580907321.19788,11056.042891,0,14.14169,97.03895
1580907343.488713,37,0,1580907286.99823,41.20781296037784,29.0754925099451,275.2123,0.1345286,-1,23.46983528137207,200,-9999,11059.28072825,0.9663543701171875,0.089447021484375,-0.1592254638671875,11059.27569225,1.70720112626897,1.413339377094207,-0.09509153883814951,6.36465847492218e-06,0.006950546056032181,0.002727273851633072,-0.01924300193786621,-0.004844009876251221,-0.005727410316467285,2,-0.5125546213506273,0.3990468844434742,0.5522424099687531,0.5225682281590825,0.9831672310829163,0.09494829177856445,-0.1560986936092377,61.81557464599609,-5.301054000854492,11.66677856445312,2,11058.73698954167,2,0,1580907342.978156,1580903939.50652,2377,0.4626901,0,0,2938.329,10,11,1580907321.19788,11056.042891,0,14.14169,97.03895
1580907343.514999,38,0,1580907286.99823,41.20781296037784,29.0754925099451,275.2123,0.1345286,-1,23.46983528137207,200,-9999,11059.29079825,0.969268798828125,0.0903167724609375,-0.1571197509765625,11059.28573225,1.707231946044639,1.413399970012366,-0.09509273828173745,-0.003969649318605661,0.006220927461981773,0.0007304269820451736,-0.01972544193267822,-0.005852341651916504,-0.006168663501739502,2,-0.5125777852530463,0.3990544636704544,0.5522346637798475,0.5225479126321716,0.983176589012146,0.09494949132204056,-0.1560391038656235,61.81557464599609,-5.301054000854492,11.66677856445312,2,11058.73698954167,2,0,1580907342.978156,1580903939.50652,2377,0.4626901,0,0,2938.329,10,11,1580907321.19788,11056.042891,0,14.14169,97.03895
1580907343.516776,39,0,1580907286.99823,41.20781296037784,29.0754925099451,275.2123,0.1345286,-1,23.46983528137207,200,-9999,11059.30083925,0.963531494140625,0.092620849609375,-0.1584320068359375,11059.29577325,1.707254866465231,1.413465401362,-0.09509505027298898,-0.002022612374275923,0.005581501871347427,0.0009203106164932251,-0.01703453063964844,-0.005381554365158081,-0.003791570663452148,2,-0.5126009231701161,0.3990650480947892,0.5522234219948357,0.5225292216496147,0.9831867814064026,0.09495179355144501,-0.1559747606515884,61.83171844482422,-5.151140213012695,11.69479370117188,2,11058.73698954167,2,0,1580907342.978156,1580903939.50652,2377,0.4626901,0,0,2938.329,10,11,1580907321.19788,11056.042891,0,14.14169,97.03895
1580907343.518931,40,0,1580907286.99823,41.20781296037784,29.0754925099451,275.2123,0.1345286,-1,23.46983528137207,200,-9999,11059.31087925,0.9625091552734375,0.09326171875,-0.1565704345703125,11059.30581325,1.707269951592524,1.413559122046438,-0.09507364152990747,-0.001406943425536156,0.01089494116604328,0.002326080575585365,-0.01990461349487305,-0.003254532814025879,-0.004616022109985352,2,-0.512624724603248,0.3990920033097377,0.5522081851906064,0.5225013483379563,0.9832033514976501,0.09493047744035721,-0.1558829247951508,61.83171844482422,-5.151140213012695,11.69479370117188,2,11058.73698954167,2,0,1580907342.978156,1580903939.50652,2377,0.4626901,0,0,2938.329,10,11,1580907321.19788,11056.042891,0,14.14169,97.03895
1580907343.528895,41,0,1580907286.99823,41.20781296037784,29.0754925099451,275.2123,0.1345286,-1,23.46983528137207,200,-9999,11059.32091925,0.9639129638671875,0.0932769775390625,-0.15753173828125,11059.31585325,1.707281347849092,1.413621057651722,-0.09501370949049355,-0.0004921481013298035,0.004682319238781929,0.005406026728451252,-0.02449756860733032,-0.002111285924911499,-0.003882765769958496,2,-0.5126298359163306,0.3991230253119773,0.5522088789721479,0.5224719042153074,0.9832186102867126,0.09487081319093704,-0.1558229178190231,61.83908843994141,-5.286249160766602,11.63290405273438,2,11058.73698954167,2,0,1580907342.978156,1580903939.50652,2377,0.4626901,0,0,2938.329,10,11,1580907321.19788,11056.042891,0,14.14169,97.03895
1580907343.538885,42,0,1580907286.99823,41.20781296037784,29.0754925099451,275.2123,0.1345286,-1,23.46983528137207,200,-9999,11059.33096025,0.960113525390625,0.09112548828125,-0.1605987548828125,11059.32592425,1.707318051678933,1.413735139118326,-0.09491529204425202,-0.002998128533363342,0.01066174916923046,0.01021607406437397,-0.02125924825668335,-0.001509517431259155,-0.003261327743530273,2,-0.512645239579645,0.3991725831996266,0.5522115414277247,0.5224161036428931,0.9832456111907959,0.09477284550666809,-0.155712217092514,61.83908843994141,-5.286249160766602,11.63290405273438,2,11058.73698954167,2,0,1580907342.978156,1580903939.50652,2377,0.4626901,0,0,2938.329,10,11,1580907321.19788,11056.042891,0,14.14169,97.03895
1580907343.552939,43,0,1580907286.99823,41.20781296037784,29.0754925099451,275.2123,0.1345286,-1,23.46983528137207,200,-9999,11059.34100025,0.962493896484375,0.0908660888671875,-0.159698486328125,11059.33596425,1.707368386596399,1.413914855581383,-0.09478909355885216,-0.00210889894515276,0.01866002008318901,0.01337804645299911,-0.02567833662033081,-0.003138333559036255,-0.006900370121002197,2,-0.5126748821717718,0.3992440111809026,0.5522072304961422,0.5223369518602049,0.9832853674888611,0.09464721381664276,-0.1555373668670654,61.76718902587891,-5.264673233032227,11.53067016601562,2,11058.73698954167,2,0,1580907342.978156,1580903939.50652,2377,0.4626901,0,0,2938.329,10,11,1580907321.19788,11056.042891,0,14.14169,97.03895
1580907343.57355,44,0,1580907286.99823,41.20781296037784,29.0754925099451,275.2123,0.1345286,-1,23.46983528137207,200,-9999,11059.35104025,0.9617919921875,0.0908660888671875,-0.1597747802734375,11059.34600525,1.70744376425704,1.414152405458934,-0.09464869356959059,-0.005430146586149931,0.02439027465879917,0.01507182046771049,-0.02397382259368896,-0.003730565309524536,-0.006980001926422119,2,-0.5127221167042912,0.3993283169583264,0.5521978477431356,0.522236019593893,0.9833353757858276,0.09450744092464447,-0.1553058475255966,61.76718902587891,-5.264673233032227,11.53067016601562,2,11058.73698954167,2,0,1580907342.978156,1580903939.50652,2377,0.4626901,0,0,2938.329,10,11,1580907321.19788,11056.042891,0,14.14169,97.03895
1580907343.574566,45,0,1580907286.99823,41.20781296037784,29.0754925099451,275.2123,0.1345286,-1,23.46983528137207,200,-9999,11059.36108025,0.96588134765625,0.090911865234375,-0.157501220703125,11059.35604525,1.707517910151504,1.41442045857797,-0.09452138524006215,-0.004678070079535246,0.02644197456538677,0.01296153105795383,-0.02446985244750977,-0.003847628831863403,-0.006937265396118164,2,-0.5127806315057639,0.3994170193073616,0.5521773631407737,0.5221324103159701,0.9833888411521912,0.0943806990981102,-0.1550441384315491,61.67885589599609,-5.286596298217773,11.47955322265625,2,11058.73698954167,2,0,1580907342.978156,1580903939.50652,2377,0.4626901,0,0,2938.329,10,11,1580907321.19788,11056.042891,0,14.14169,97.03895
1580907343.579013,46,0,1580907286.99823,41.20781296037784,29.0754925099451,275.2123,0.1345286,-1,23.46983528137207,200,-9999,11059.37115125,0.963775634765625,0.090911865234375,-0.1581573486328125,11059.36608525,1.707609546547519,1.41474557242979,-0.09438887003983347,-0.007056046277284622,0.03230757638812065,0.01454054657369852,-0.02137422561645508,-0.003730565309524536,-0.005653679370880127,2,-0.5128571632024429,0.399517647326652,0.5521479758281664,0.5220113275437486,0.9834515452384949,0.09424877911806107,-0.1547263562679291,61.67885589599609,-5.286596298217773,11.47955322265625,2,11058.73698954167,2,0,1580907342.978156,1580903939.50652,2377,0.4626901,0,0,2938.329,10,11,1580907321.19788,11056.042891,0,14.14169,97.03895
1580907343.589216,47,0,1580907286.99823,41.20781296037784,29.0754925099451,275.2123,0.1345286,-1,23.46983528137207,200,-9999,11059.38119125,0.9616851806640625,0.0904083251953125,-0.1579437255859375,11059.37612625,1.707695487690637,1.415137704560968,-0.09425426994686659,-0.005696768872439861,0.03840301930904388,0.01404386665672064,-0.02117288112640381,-0.002985894680023193,-0.005519628524780273,2,-0.5129505633646078,0.3996378153235815,0.5521003734837929,0.5218779228316992,0.9835246801376343,0.09411477297544479,-0.1543426662683487,61.73560333251953,-5.380865097045898,11.62338256835938,2,11058.73698954167,2,0,1580907342.978156,1580903939.50652,2377,0.4626901,0,0,2938.329,10,11,1580907321.19788,11056.042891,0,14.14169,97.03895
1580907343.59937,48,0,1580907286.99823,41.20781296037784,29.0754925099451,275.2123,0.1345286,-1,23.46983528137207,200,-9999,11059.39123225,0.9629058837890625,0.0911865234375,-0.157257080078125,11059.38616625,1.707801598035116,1.415584975595723,-0.09411676890967172,-0.008387833833694458,0.04344313219189644,0.01500869914889336,-0.02441340684890747,-0.003886252641677856,-0.006996333599090576,2,-0.5130625308876551,0.3997680110160584,0.5520445184203914,0.5217272059992375,0.9836063981056213,0.09397788345813751,-0.1539047509431839,61.73560333251953,-5.380865097045898,11.62338256835938,2,11058.73698954167,2,0,1580907342.978156,1580903939.50652,2377,0.4626901,0,0,2938.329,10,11,1580907321.19788,11056.042891,0,14.14169,97.03895
1580907343.60936,49,0,1580907286.99823,41.20781296037784,29.0754925099451,275.2123,0.1345286,-1,23.46983528137207,200,-9999,11059.40127225,0.9664459228515625,0.09185791015625,-0.1556243896484375,11059.39620625,1.707912077274483,1.416063198297255,-0.0939609237234635,-0.008058400824666023,0.04835240170359612,0.01749555952847004,-0.02442526817321777,-0.003242403268814087,-0.005924582481384277,2,-0.5131795648084025,0.3999105313998132,0.5519859790650654,0.521564746317432,0.983694314956665,0.09382272511720657,-0.1534366011619568,61.85265350341797,-5.279165267944336,11.712890625,2,11058.73698954167,2,0,1580907342.978156,1580903939.50652,2377,0.4626901,0,0,2938.329,10,11,1580907321.19788,11056.988638,0,14.14169,97.03895
1580907343.634122,50,0,1580907286.99823,41.20781296037784,29.0754925099451,275.2123,0.1345286,-1,23.46983528137207,200,-9999,11059.41131225,0.9693145751953125,0.090667724609375,-0.15362548828125,11059.40627725,1.708024786779462,1.416469979872013,-0.09380233659939963,-0.008137783035635948,0.03890157490968704,0.01861009560525417,-0.02105402946472168,-0.002260059118270874,-0.005713224411010742,2,-0.5132766542452089,0.4000346351832969,0.5519469753462515,0.5214153491100291,0.9837713837623596,0.09366483986377716,-0.1530387401580811,61.85265350341797,-5.279165267944336,11.712890625,2,11058.73698954167,2,0,1580907342.978156,1580903939.50652,2377,0.4626901,0,0,2938.329,10,11,1580907321.19788,11056.988638,0,14.14169,97.03895
1580907343.63536,51,0,1580907286.99823,41.20781296037784,29.0754925099451,275.2123,0.1345286,-1,23.46983528137207,200,-9999,11059.42135325,0.97003173828125,0.09100341796875,-0.1544189453125,11059.41631725,1.708141417933857,1.41683112640107,-0.09365657454626769,-0.009814509190618992,0.03489537537097931,0.0158286914229393,-0.01830005645751953,-0.002526581287384033,-0.003488659858703613,2,-0.5133649898002759,0.4001419979440624,0.5519177708457109,0.5212769523844335,0.9838401079177856,0.09351971745491028,-0.1526855379343033,61.91324615478516,-5.134721755981445,11.71780395507812,2,11058.73698954167,2,0,1580907342.978156,1580903939.50652,2377,0.4626901,0,0,2938.329,10,11,1580907321.19788,11056.988638,0,14.14169,97.03895
1580907343.639316,52,0,1580907286.99823,41.20781296037784,29.0754925099451,275.2123,0.1345286,-1,23.46983528137207,200,-9999,11059.43139325,0.969207763671875,0.091766357421875,-0.1537933349609375,11059.42635725,1.70823904024332,1.417155316537852,-0.09349770613501902,-0.008007588796317577,0.0320175364613533,0.01690449006855488,-0.01593822240829468,-0.003008782863616943,-0.004370987415313721,2,-0.5134362767736637,0.400248395213625,0.5518959762803877,0.5211479244515947,0.9839040637016296,0.09336154162883759,-0.1523688286542892,61.91324615478516,-5.134721755981445,11.71780395507812,2,11058.73698954167,2,0,1580907342.978156,1580903939.50652,2377,0.4626901,0,0,2938.329,10,11,1580907321.19788,11056.988638,0,14.14169,97.03895
1580907343.649503,53,0,1580907286.99823,41.20781296037784,29.0754925099451,275.2123,0.1345286,-1,23.46983528137207,200,-9999,11059.44143325,0.970428466796875,0.0919036865234375,-0.1518096923828125,11059.43639825,1.708328190281379,1.417383565744507,-0.09333506054413788,-0.005631516221910715,0.02027938701212406,0.01726028881967068,-0.01774287223815918,-0.001579999923706055,-0.004364967346191406,2,-0.51347845662362,0.4003331035606859,0.5518975034702195,0.5210396656206313,0.9839538335800171,0.09319960325956345,-0.1521465629339218,61.85385894775391,-5.376974105834961,11.78179931640625,2,11058.73698954167,2,0,1580907342.978156,1580903939.50652,2377,0.4626901,0,0,2938.329,10,11,1580907321.19788,11056.988638,0,14.14169,97.03895
1580907343.659428,54,0,1580907286.99823,41.20781296037784,29.0754925099451,275.2123,0.1345286,-1,23.46983528137207,200,-9999,11059.45150425,0.9678955078125,0.089935302734375,-0.153411865234375,11059.44643825,1.708402410993916,1.417598673242851,-0.09316213065299302,-0.003621894866228104,0.02273455820977688,0.01804112829267979,-0.0161893367767334,-0.001468360424041748,-0.00243830680847168,2,-0.5135115411064343,0.4004212860377238,0.5519008918950572,0.5209358643704695,0.9840025901794434,0.09302742779254913,-0.1519373804330826,61.85385894775391,-5.376974105834961,11.78179931640625,2,11058.73698954167,2,0,1580907342.978156,1580903939.50652,2377,0.4626901,0,0,2938.329,10,11,1580907321.19788,11056.988638,0,14.14169,97.03895
1580907343.669554,55,0,1580907286.99823,41.20781296037784,29.0754925099451,275.2123,0.1345286,-1,23.46983528137207,200,-9999,11059.46154425,0.972442626953125,0.0910491943359375,-0.149627685546875,11059.45647825,1.708476214694715,1.417716108689318,-0.09300810555588032,-0.006632864475250244,0.009991597384214401,0.01660009101033211,-0.01867818832397461,-0.00244373083114624,-0.003849029541015625,2,-0.5135221366693984,0.4004784815597027,0.5519248918540174,0.5208559826715857,0.984034538269043,0.09287407249212265,-0.1518239974975586,61.77545928955078,-5.421003341674805,11.76116943359375,2,11058.73698954167,2,0,1580907342.978156,1580903939.50652,2377,0.4626901,0,0,2938.329,10,11,1580907321.19788,11056.988638,0,14.14169,97.03895
1580907343.695624,56,0,1580907286.99823,41.20781296037784,29.0754925099451,275.2123,0.1345286,-1,23.46983528137207,200,-9999,11059.47158525,0.97161865234375,0.0892791748046875,-0.151214599609375,11059.46651925,1.708532617085327,1.417740124970581,-0.09288968349790576,-0.002112613525241613,0.0006085522472858429,0.01243460923433304,-0.0155189037322998,-0.002676427364349365,-0.001261711120605469,2,-0.5135119081875932,0.4005052988685193,0.5519602914512309,0.5208079818298725,0.9840490818023682,0.09275615960359573,-0.1518020480871201,61.77545928955078,-5.421003341674805,11.76116943359375,2,11058.73698954167,2,0,1580907342.978156,1580903939.50652,2377,0.4626901,0,0,2938.329,10,11,1580907321.19788,11056.988638,0,14.14169,97.03895
1580907343.69685,57,0,1580907286.99823,41.20781296037784,29.0754925099451,275.2123,0.1345286,-1,23.46983528137207,200,-9999,11059.48162525,0.97021484375,0.086090087890625,-0.15576171875,11059.47655925,1.708613757036122,1.417837993909524,-0.09283986172291227,-0.007682881318032742,0.01106545515358448,0.004963910207152367,-0.01404297351837158,-0.002504587173461914,-0.0007014870643615723,2,-0.5135433194038587,0.4005246971237029,0.5519676033663209,0.5207543795483583,0.9840685129165649,0.09270655363798141,-0.1517064571380615,61.69181060791016,-5.314275741577148,11.77139282226562,2,11058.73698954167,2,0,1580907342.978156,1580903939.50652,2377,0.4626901,0,0,2938.329,10,11,1580907321.19788,11056.988638,0,14.14169,97.03895
1580907343.699833,58,0,1580907286.99823,41.20781296037784,29.0754925099451,275.2123,0.1345286,-1,23.46983528137207,200,-9999,11059.49166525,0.9689178466796875,0.0881805419921875,-0.15472412109375,11059.48663025,1.70870602727968,1.417996887661417,-0.09284527209127967,-0.01071543619036674,0.01534385234117508,-0.0005422970280051231,-0.01618766784667969,-0.006523072719573975,-0.005787134170532227,2,-0.5136069844752768,0.400540726034334,0.5519495369530165,0.5206982097006101,0.9840919375419617,0.09271194040775299,-0.1515499800443649,61.69181060791016,-5.314275741577148,11.77139282226562,2,11058.73698954167,2,0,1580907342.978156,1580903939.50652,2377,0.4626901,0,0,2938.329,10,11,1580907321.19788,11056.988638,0,14.14169,97.03895
1580907343.709744,59,0,1580907286.99823,41.20781296037784,29.0754925099451,275.2123,0.1345286,-1,23.46983528137207,200,-9999,11059.50170525,0.96783447265625,0.0897216796875,-0.15374755859375,11059.49667025,1.708781617575895,1.418135891114321,-0.0928776451464844,-0.007377696689218283,0.01181329786777496,-0.00228160759434104,-0.01730448007583618,-0.005365252494812012,-0.005924820899963379,2,-0.5136681687828291,0.4005479294314421,0.5519261801369512,0.5206570909671456,0.9841100573539734,0.09274417161941528,-0.1514127403497696,61.81897735595703,-5.303377151489258,11.82373046875,2,11058.73698954167,2,0,1580907342.978156,1580903939.50652,2377,0.4626901,0,0,2938.329,10,11,1580907321.19788,11056.988638,0,14.14169,97.03895
1580907343.719564,60,0,1580907286.99823,41.20781296037784,29.0754925099451,275.2123,0.1345286,-1,23.46983528137207,200,-9999,11059.51174625,0.97381591796875,0.090362548828125,-0.1502838134765625,11059.50671025,1.708859658144795,1.4182641292846,-0.09294118762104359,-0.008993557654321194,0.01508989557623863,-0.004670401569455862,-0.01933211088180542,-0.003612816333770752,-0.005487442016601562,2,-0.513734246338032,0.4005425014739123,0.5518991825197813,0.5206248192934599,0.9841237664222717,0.09280744194984436,-0.1512856632471085,61.81897735595703,-5.303377151489258,11.82373046875,2,11058.73698954167,2,0,1580907342.978156,1580903939.50652,2377,0.4626901,0,0,2938.329,10,11,1580907321.19788,11056.988638,0,14.14169,97.03895
1580907343.732353,61,0,1580907286.99823,41.20781296037784,29.0754925099451,275.2123,0.1345286,-1,23.46983528137207,200,-9999,11059.52178625,0.97100830078125,0.08990478515625,-0.1517333984375,11059.51675125,1.708935107655597,1.418296500895364,-0.09305214788184409,-0.009603154845535755,0.001538665965199471,-0.01004039961844683,-0.01487135887145996,-0.002548784017562866,-0.002316832542419434,2,-0.5137846826998576,0.4004986820171399,0.5518852816831642,0.5206233221404482,0.9841183423995972,0.09291791915893555,-0.1512522101402283,61.86626434326172,-5.425874710083008,11.79718017578125,2,11058.73698954167,2,0,1580907342.978156,1580903939.50652,2377,0.4626901,0,0,2938.329,10,11,1580907321.19788,11056.988638,0,14.14169,97.03895
1580907343.755097,62,0,1580907286.99823,41.20781296037784,29.0754925099451,275.2123,0.1345286,-1,23.46983528137207,200,-9999,11059.53185725,0.969482421875,0.088134765625,-0.1523895263671875,11059.52679125,1.70899780178412,1.418323530765132,-0.09322098266589245,-0.008238682523369789,0.002360913902521133,-0.0155434962362051,-0.01424962282180786,-0.003159821033477783,-0.001567721366882324,2,-0.5138447756066694,0.4004396724622928,0.5518563639124853,0.5206400965143014,0.9841068983078003,0.09308602660894394,-0.1512232273817062,61.86626434326172,-5.425874710083008,11.79718017578125,2,11058.73698954167,2,0,1580907342.978156,1580903939.50652,2377,0.4626901,0,0,2938.329,10,11,1580907321.19788,11056.988638,0,14.14169,97.03895
1580907343.756306,63,0,1580907286.99823,41.20781296037784,29.0754925099451,275.2123,0.1345286,-1,23.46983528137207,200,-9999,11059.54189725,0.96612548828125,0.0899810791015625,-0.1538238525390625,11059.53683125,1.709060982274861,1.418342822440488,-0.09342951722297775,-0.008088214322924614,0.0006847195327281952,-0.02038672007620335,-0.01699507236480713,-0.004970192909240723,-0.003710627555847168,2,-0.5139122505462058,0.4003667692147774,0.5518205455352667,0.5206675540743236,0.9840906262397766,0.09329365193843842,-0.1512012928724289,61.70475006103516,-5.372121810913086,11.9622802734375,2,11058.73698954167,2,0,1580907342.978156,1580903939.50652,2377,0.4626901,0,0,2938.329,10,11,1580907321.19788,11056.988638,0,14.14169,97.03895
1580907343.76001,64,0,1580907286.99823,41.20781296037784,29.0754925099451,275.2123,0.1345286,-1,23.46983528137207,200,-9999,11059.55193725,0.9651947021484375,0.0912628173828125,-0.151275634765625,11059.54687125,1.709131097396585,1.418383108230761,-0.09362146950453223,-0.009780716150999069,0.003574606031179428,-0.01820556446909904,-0.01928752660751343,-0.004231035709381104,-0.004653394222259521,2,-0.5139829575478345,0.4003024503084256,0.5517848974531429,0.5206850241940142,0.9840790629386902,0.09348476678133011,-0.1511589288711548,61.70475006103516,-5.372121810913086,11.9622802734375,2,11058.73698954167,2,0,1580907342.978156,1580903939.50652,2377,0.4626901,0,0,2938.329,10,11,1580907321.19788,11056.988638,0,14.14169,97.03895
1580907343.769949,65,0,1580907286.99823,41.20781296037784,29.0754925099451,275.2123,0.1345286,-1,23.46983528137207,200,-9999,11059.56197825,0.9645843505859375,0.093292236328125,-0.150482177734375,11059.55691225,1.709190737951811,1.418427257612219,-0.09378670437411481,-0.009462734684348106,0.003660893067717552,-0.01630699634552002,-0.021598219871521,-0.003175288438796997,-0.003966867923736572,2,-0.5140463022296925,0.4002497111287421,0.5517515642136546,0.5206983110537375,0.9840704202651978,0.09364927560091019,-0.1511131376028061,61.76175689697266,-5.46452522277832,11.92202758789062,2,11058.73698954167,2,0,1580907342.978156,1580903939.50652,2377,0.4626901,0,0,2938.329,10,11,1580907321.19788,11056.988638,0,14.14169,97.03895
1580907343.780013,66,0,1580907286.99823,41.20781296037784,29.0754925099451,275.2123,0.1345286,-1,23.46983528137207,200,-9999,11059.57201825,0.9618072509765625,0.091339111328125,-0.15338134765625,11059.56698225,1.709250034901702,1.418497620943233,-0.09390077563007374,-0.006986132357269526,0.007700357586145401,-0.01019803062081337,-0.02138471603393555,-0.0007256865501403809,-0.001093029975891113,2,-0.5141046371585578,0.4002190438550448,0.5517230408227844,0.5206945636580145,0.9840704798698425,0.0937628448009491,-0.1510422825813293,61.82886505126953,-5.306222915649414,11.69375610351562,2,11058.73698954167,2,0,1580907342.978156,1580903939.50652,2377,0.4626901,0,0,2938.329,10,11,1580907321.19788,11056.988638,0,14.14169,97.03895
1580907343.792391,67,0,1580907286.99823,41.20781296037784,29.0754925099451,275.2123,0.1345286,-1,23.46983528137207,200,-9999,11059.58205825,0.9603424072265625,0.092193603515625,-0.1533660888671875,11059.57702325,1.709340674708228,1.418600318908159,-0.09396536906649958,-0.01052387524396181,0.008101163432002068,-0.005278905853629112,-0.02484273910522461,-0.002026110887527466,-0.004262268543243408,2,-0.5141664390727493,0.4002033568271786,0.5517055662464685,0.5206640796372496,0.9840800166130066,0.09382715076208115,-0.1509402990341187,61.82886505126953,-5.306222915649414,11.69375610351562,2,11058.73698954167,2,0,1580907342.978156,1580903939.50652,2377,0.4626901,0,0,2938.329,10,11,1580907321.19788,11056.988638,0,14.14169,97.03895
1580907343.819649,68,0,1580907286.99823,41.20781296037784,29.0754925099451,275.2123,0.1345286,-1,23.46983528137207,200,-9999,11059.59209825,0.95965576171875,0.09283447265625,-0.154144287109375,11059.58706325,1.709414650444955,1.418796717554871,-0.09397419942487301,-0.006135851144790649,0.01858861930668354,-0.0007070251740515232,-0.02552765607833862,-0.002523183822631836,-0.004791915416717529,2,-0.5142375284437318,0.4002328355739367,0.5516723052907662,0.5206063893318711,0.9841087460517883,0.09383594244718552,-0.1507468819618225,61.89415740966797,-5.138570785522461,12.0269775390625,2,11058.73698954167,2,0,1580907342.978156,1580903939.50652,2377,0.4626901,0,0,2938.329,10,11,1580907321.19788,11056.988638,0,14.14169,97.03895
1580907343.821074,69,0,1580907286.99823,41.20781296037784,29.0754925099451,275.2123,0.1345286,-1,23.46983528137207,200,-9999,11059.60213925,0.96356201171875,0.092681884765625,-0.1522674560546875,11059.59710325,1.709488937590709,1.419048034601336,-0.09394451095762162,-0.005746496841311455,0.02459804154932499,0.003402498550713062,-0.02750623226165771,-0.001166015863418579,-0.005848228931427002,2,-0.5143146659851091,0.4002879391565676,0.5516337663179867,0.5205286847246179,0.9841493964195251,0.09380638599395752,-0.1504999846220016,61.89415740966797,-5.138570785522461,12.0269775390625,2,11058.73698954167,2,0,1580907342.978156,1580903939.50652,2377,0.4626901,0,0,2938.329,10,11,1580907321.19788,11056.988638,0,14.14169,97.03895
1580907343.822108,70,0,1580907286.99823,41.20781296037784,29.0754925099451,275.2123,0.1345286,-1,23.46983528137207,200,-9999,11059.61221025,0.9696502685546875,0.091461181640625,-0.1503448486328125,11059.60714425,1.709558526714994,1.419295639070175,-0.09392306754858433,-0.007130630314350128,0.02521221525967121,0.002477223984897137,-0.02476847171783447,-0.001190483570098877,-0.005024135112762451,2,-0.5143918044125371,0.400340821116725,0.5515930613266545,0.5204549051734049,0.9841886162757874,0.09378504008054733,-0.1502566039562225,61.89447784423828,-5.519128799438477,11.69387817382812,2,11058.73698954167,2,0,1580907342.978156,1580903939.50652,2377,0.4626901,0,0,2938.329,10,11,1580907321.19788,11056.988638,0,14.14169,97.03895
1580907343.830424,71,0,1580907286.99823,41.20781296037784,29.0754925099451,275.2123,0.1345286,-1,23.46983528137207,200,-9999,11059.62225025,0.9748077392578125,0.091064453125,-0.1490631103515625,11059.61718425,1.709627780478656,1.419451566864535,-0.09393682865164452,-0.008094428107142448,0.01541498117148876,-0.0007220311090350151,-0.01951110363006592,-0.002287536859512329,-0.002721548080444336,2,-0.5144519478931682,0.4003594984190095,0.5515678343026856,0.5204077688819161,0.9842106699943542,0.09379873424768448,-0.1501029282808304,61.89447784423828,-5.519128799438477,11.69387817382812,2,11058.73698954167,2,0,1580907342.978156,1580903939.50652,2377,0.4626901,0,0,2938.329,10,11,1580907321.19788,11056.988638,0,14.14169,97.03895
1580907343.840321,72,0,1580907286.99823,41.20781296037784,29.0754925099451,275.2123,0.1345286,-1,23.46983528137207,200,-9999,11059.63229025,0.9741058349609375,0.0908966064453125,-0.149139404296875,11059.62722425,1.709694249835269,1.419507156438838,-0.09399336825707562,-0.006897919811308384,0.005197837948799133,-0.004175464622676373,-0.01257133483886719,-0.003015339374542236,-0.001571536064147949,2,-0.5144939461500921,0.4003401778143285,0.5515580467156744,0.5203916635100323,0.9842139482498169,0.09385503083467484,-0.1500474363565445,61.78955841064453,-5.397821426391602,11.90664672851562,2,11058.73698954167,2,0,1580907342.978156,1580903939.50652,2377,0.4626901,0,0,2938.329,10,11,1580907321.19788,11056.988638,0,14.14169,97.03895
1580907343.85268,73,0,1580907286.99823,41.20781296037784,29.0754925099451,275.2123,0.1345286,-1,23.46983528137207,200,-9999,11059.64233025,0.970184326171875,0.0906829833984375,-0.150360107421875,11059.63726425,1.709761769192411,1.419503589870359,-0.09410075030399015,-0.008436961099505424,-0.001932242885231972,-0.009238933213055134,-0.01248461008071899,-0.003061532974243164,-0.001325368881225586,2,-0.5145319188034221,0.4002901238876028,0.5515521717334039,0.5203989201214868,0.9842035174369812,0.0939619392156601,-0.1500494480133057,61.78955841064453,-5.397821426391602,11.90664672851562,2,11058.73698954167,2,0,1580907342.978156,1580903939.50652,2377,0.4626901,0,0,2938.329,10,11,1580907321.19788,11056.988638,0,14.14169,97.03895
1580907343.87615,74,0,1580907286.99823,41.20781296037784,29.0754925099451,275.2123,0.1345286,-1,23.46983528137207,200,-9999,11059.65237125,0.9659576416015625,0.0916900634765625,-0.1522369384765625,11059.64733525,1.709822332021882,1.419517417013862,-0.09422883530708565,-0.007862021215260029,0.001718388870358467,-0.01039246656000614,-0.014443039894104,-0.003677636384963989,-0.001920700073242188,2,-0.5145782265765259,0.400240230401868,0.5515352765145504,0.5204093738415596,0.9841936230659485,0.09408945590257645,-0.1500340104103088,61.70113372802734,-5.158098220825195,12.036376953125,2,11058.73698954167,2,0,1580907342.978156,1580903939.50652,2377,0.4626901,0,0,2938.329,10,11,1580907321.19788,11056.988638,0,14.14169,97.03895
1580907343.877438,75,0,1580907286.99823,41.20781296037784,29.0754925099451,275.2123,0.1345286,-1,23.46983528137207,200,-9999,11059.66241125,0.965484619140625,0.0912628173828125,-0.152130126953125,11059.65737625,1.709884888525084,1.41955721824755,-0.09437891368015885,-0.008695856668055058,0.004719238728284836,-0.01415418181568384,-0.0205538272857666,-0.003033965826034546,-0.004662871360778809,2,-0.5146372920920899,0.400190081342257,0.5515072346294047,0.5204192574158796,0.9841856360435486,0.09423886239528656,-0.1499927192926407,61.70113372802734,-5.158098220825195,12.036376953125,2,11058.73698954167,2,0,1580907342.978156,1580903939.50652,2377,0.4626901,0,0,2938.329,10,11,1580907321.19788,11056.988638,0,14.14169,97.03895
1580907343.880485,76,0,1580907286.99823,41.20781296037784,29.0754925099451,275.2123,0.1345286,-1,23.46983528137207,200,-9999,11059.67245125,0.9656829833984375,0.0916595458984375,-0.1527252197265625,11059.66741625,1.709938262590242,1.419615484239474,-0.0945342290619505,-0.007005373015999794,0.006409982219338417,-0.01580075733363628,-0.02071595191955566,-0.003128021955490112,-0.00418853759765625,2,-0.514700850188972,0.4001455419030733,0.551470853142989,0.5204291912357588,0.9841798543930054,0.09439348429441452,-0.1499331593513489,61.70003509521484,-5.31236457824707,11.98141479492188,2,11058.73698954167,2,0,1580907342.978156,1580903939.50652,2377,0.4626901,0,0,2938.329,10,11,1580907321.19788,11056.988638,0,14.14169,97.03895
1580907343.890501,77,0,1580907286.99823,41.20781296037784,29.0754925099451,275.2123,0.1345286,-1,23.46983528137207,200,-9999,11059.68249225,0.9688262939453125,0.0922698974609375,-0.151123046875,11059.67745625,1.71000105222553,1.41967365474904,-0.09468735331112063,-0.008538821712136269,0.005669357255101204,-0.01414293982088566,-0.02197682857513428,-0.003647089004516602,-0.005438327789306641,2,-0.5147657494988986,0.4000991887600203,0.5514374257363364,0.5204360050875353,0.9841742515563965,0.09454593062400818,-0.1498737186193466,61.70003509521484,-5.31236457824707,11.98141479492188,2,11058.73698954167,2,0,1580907342.978156,1580903939.50652,2377,0.4626901,0,0,2938.329,10,11,1580907321.19788,11056.988638,0,14.14169,97.03895
1580907343.900648,78,0,1580907286.99823,41.20781296037784,29.0754925099451,275.2123,0.1345286,-1,23.46983528137207,200,-9999,11059.69256225,0.9669647216796875,0.092437744140625,-0.15234375,11059.68749625,1.710063041301423,1.419742407837338,-0.09484493131429517,-0.007909041829407215,0.006142836064100266,-0.01420951262116432,-0.01853907108306885,-0.002461642026901245,-0.003814756870269775,2,-0.5148344501400816,0.400054476264506,0.5514000535561361,0.5204419762117278,0.9841697812080383,0.09470279514789581,-0.1498038172721863,61.61249542236328,-5.21729850769043,12.00909423828125,2,11058.73698954167,2,0,1580907342.978156,1580903939.50652,2377,0.4626901,0,0,2938.329,10,11,1580907321.19788,11056.988638,0,14.14169,97.03895
1580907343.912496,79,0,1580907286.99823,41.20781296037784,29.0754925099451,275.2123,0.1345286,-1,23.46983528137207,200,-9999,11059.70260325,0.9660797119140625,0.0930938720703125,-0.151641845703125,11059.69753725,1.710127604414073,1.419823560491278,-0.09500102568959286,-0.007737267762422562,0.007273346185684204,-0.01422948576509953,-0.01900959014892578,-0.002968430519104004,-0.004736244678497314,2,-0.5149066992951669,0.4000127859835945,0.5513605207017034,0.5204444867073164,0.9841673374176025,0.09485819190740585,-0.1497217267751694,61.61249542236328,-5.21729850769043,12.00909423828125,2,11058.73698954167,2,0,1580907342.978156,1580903939.50652,2377,0.4626901,0,0,2938.329,10,11,1580907321.19788,11056.988638,0,14.14169,97.03895
1580907343.934953,80,0,1580907286.99823,41.20781296037784,29.0754925099451,275.2123,0.1345286,-1,23.46983528137207,200,-9999,11059.71264325,0.9667510986328125,0.0941925048828125,-0.150360107421875,11059.70757725,1.710189099032871,1.419907005864893,-0.09511915329038827,-0.007508142851293087,0.007488861680030823,-0.009313710033893585,-0.02078115940093994,-0.002323329448699951,-0.004515171051025391,2,-0.5149699705728623,0.3999837118355027,0.5513282130110723,0.5204384961900399,0.9841687679290771,0.0949757844209671,-0.1496379226446152,61.50597381591797,-5.320219039916992,12.11676025390625,2,11058.73698954167,2,0,1580907342.978156,1580903939.50652,2377,0.4626901,0,0,2938.329,10,11,1580907321.19788,11056.988638,0,14.14169,97.03895
1580907343.936231,81,0,1580907286.99823,41.20781296037784,29.0754925099451,275.2123,0.1345286,-1,23.46983528137207,200,-9999,11059.72268325,0.963409423828125,0.0944061279296875,-0.15191650390625,11059.71761725,1.710233942672428,1.420003086415548,-0.09519141103614243,-0.006386418826878071,0.008531222119927406,-0.006416989956051111,-0.02013254165649414,-0.001418918371200562,-0.003558158874511719,2,-0.5150225354872563,0.3999757790134553,0.5512987248929178,0.5204238182006232,0.9841763973236084,0.0950477123260498,-0.1495423316955566,61.50597381591797,-5.320219039916992,12.11676025390625,2,11058.73698954167,2,0,1580907342.978156,1580903939.50652,2377,0.4626901,0,0,2938.329,10,11,1580907321.19788,11056.988638,0,14.14169,97.03895
1580907343.940694,82,0,1580907286.99823,41.20781296037784,29.0754925099451,275.2123,0.1345286,-1,23.46983528137207,200,-9999,11059.73272325,0.9599456787109375,0.09454345703125,-0.15093994140625,11059.72768825,1.710270655761903,1.420155050002404,-0.09521139031651295,-0.004657972138375044,0.01531036384403706,-0.001844785176217556,-0.02178609371185303,-0.00104212760925293,-0.003952503204345703,2,-0.5150765000503285,0.3999999485402713,0.5512645988806669,0.5203879675784154,0.984197199344635,0.09506760537624359,-0.1493924856185913,61.72417449951172,-5.49229621887207,11.90994262695312,2,11058.73698954167,2,0,1580907342.978156,1580903939.50652,2377,0.4626901,0,0,2938.329,10,11,1580907321.19788,11056.988638,0,14.14169,97.03895
1580907343.950786,83,0,1580907286.99823,41.20781296037784,29.0754925099451,275.2123,0.1345286,-1,23.46983528137207,200,-9999,11059.74276425,0.9648590087890625,0.0948486328125,-0.1498870849609375,11059.73772825,1.710286483416206,1.420330279872324,-0.09521339135168977,-0.001914117485284805,0.0171442162245512,0.0004537887871265411,-0.0269850492477417,-0.000922083854675293,-0.004736065864562988,2,-0.5151284689978425,0.4000408412100134,0.5512230916514437,0.520348928899855,0.9842230677604675,0.09506959468126297,-0.1492199748754501,61.72417449951172,-5.49229621887207,11.90994262695312,2,11058.73698954167,2,0,1580907342.978156,1580903939.50652,2377,0.4626901,0,0,2938.329,10,11,1580907321.19788,11056.988638,0,14.14169,97.03895
1580907343.96119,84,0,1580907286.99823,41.20781296037784,29.0754925099451,275.2123,0.1345286,-1,23.46983528137207,200,-9999,11059.75280425,0.9708404541015625,0.0934600830078125,-0.1497344970703125,11059.74776925,1.710289499575661,1.420469601740387,-0.09525543184168025,-0.001827855594456196,0.01278460025787354,-0.003921226132661104,-0.02430105209350586,-0.000674128532409668,-0.003317475318908691,2,-0.5151773770784432,0.4000639125012629,0.5511784923568522,0.5203301986273294,0.9842400550842285,0.09511144459247589,-0.1490822732448578,61.72458648681641,-5.38630485534668,12.091796875,2,11058.73698954167,2,0,1580907342.978156,1580903939.50652,2377,0.4626901,0,0,2938.329,10,11,1580907321.19788,11056.988638,0,14.14169,97.03895
1580907343.996666,85,0,1580907286.99823,41.20781296037784,29.0754925099451,275.2123,0.1345286,-1,23.46983528137207,200,-9999,11059.76284425,0.9725494384765625,0.0912628173828125,-0.1490020751953125,11059.75780925,1.710279847557759,1.420556845367174,-0.09536074680419279,-0.0002318229526281357,0.008485989645123482,-0.01066967658698559,-0.0170714259147644,-0.001145452260971069,-0.003145694732666016,2,-0.5152244417382211,0.4000579072634412,0.5511295431921275,0.5203399747154125,0.9842430949211121,0.09521628171205521,-0.1489948928356171,61.72458648681641,-5.38630485534668,12.091796875,2,11058.73698954167,2,0,1580907342.978156,1580903939.50652,2377,0.4626901,0,0,2938.329,10,11,1580907321.19788,11056.988638,0,14.14169,97.03895
1580907343.997912,86,0,1580907286.99823,41.20781296037784,29.0754925099451,275.2123,0.1345286,-1,23.46983528137207,200,-9999,11059.77291525,0.966827392578125,0.0910797119140625,-0.152099609375,11059.76784925,1.710267412722725,1.420660477509784,-0.09551448732386687,-0.0002919705584645271,0.01088859513401985,-0.01634189486503601,-0.01446306705474854,-0.004014968872070312,-0.002578854560852051,2,-0.5152869151619925,0.4000425591246027,0.5510646437521384,0.5203585889561099,0.9842439889907837,0.09536932408809662,-0.1488906890153885,61.76918792724609,-5.247007369995117,11.93539428710938,2,11058.73698954167,2,0,1580907342.978156,1580903939.50652,2377,0.4626901,0,0,2938.329,10,11,1580907321.19788,11056.988638,0,14.14169,97.03895
1580907343.998827,87,0,1580907286.99823,41.20781296037784,29.0754925099451,275.2123,0.1345286,-1,23.46983528137207,200,-9999,11059.78295525,0.959991455078125,0.093597412109375,-0.1521148681640625,11059.77788925,1.710265441072221,1.420843014413984,-0.09565208059324314,-0.002164705656468868,0.0182514376938343,-0.01331787742674351,-0.01740694046020508,-0.004976332187652588,-0.004515767097473145,2,-0.5153693913644992,0.4000498233860391,0.5509857958594528,0.5203547575234708,0.9842581152915955,0.09550628811120987,-0.1487090587615967,61.76918792724609,-5.247007369995117,11.93539428710938,2,11058.73698954167,2,0,1580907342.978156,1580903939.50652,2377,0.4626901,0,0,2938.329,10,11,1580907321.19788,11056.988638,0,14.14169,97.03895
1580907344.001136,88,0,1580907286.99823,41.20781296037784,29.0754925099451,275.2123,0.1345286,-1,23.46983528137207,200,-9999,11059.79299625,0.9625091552734375,0.0942840576171875,-0.15045166015625,11059.78793025,1.710254490580174,1.421091005971952,-0.09575603639818048,-0.0009340988472104073,0.02505777776241302,-0.01051654480397701,-0.02603995800018311,-0.002974331378936768,-0.006501495838165283,2,-0.5154601051021129,0.4000864097979756,0.5508954094286138,0.5203325112433099,0.9842851161956787,0.09560976922512054,-0.1484634876251221,61.66390228271484,-5.225332260131836,12.10626220703125,2,11058.73698954167,2,0,1580907342.978156,1580903939.50652,2377,0.4626901,0,0,2938.329,10,11,1580907321.19788,11056.988638,0,14.14169,97.03895
1580907344.011127,89,0,1580907286.99823,41.20781296037784,29.0754925099451,275.2123,0.1345286,-1,23.46983528137207,200,-9999,11059.80303625,0.964874267578125,0.0934906005859375,-0.15045166015625,11059.79797025,1.710253503322054,1.421362259172141,-0.09582552770169105,-0.002362352330237627,0.0266394279897213,-0.006936457008123398,-0.02578389644622803,-0.001777231693267822,-0.00509178638458252,2,-0.5155510376598866,0.4001366890419092,0.5508094572044124,0.5202948373066656,0.9843188524246216,0.09567894041538239,-0.1481955200433731,61.66390228271484,-5.225332260131836,12.10626220703125,2,11058.73698954167,2,0,1580907342.978156,1580903939.50652,2377,0.4626901,0,0,2938.329,10,11,1580907321.19788,11056.988638,0,14.14169,97.03895
1580907344.021023,90,0,1580907286.99823,41.20781296037784,29.0754925099451,275.2123,0.1345286,-1,23.46983528137207,200,-9999,11059.81307625,0.96258544921875,0.0940399169921875,-0.151031494140625,11059.80804125,1.710243699401143,1.421684754557097,-0.09587592880654526,0.0001090681180357933,0.03331098333001137,-0.0041968640871346,-0.02199709415435791,-0.002086907625198364,-0.004693567752838135,2,-0.5156497979963748,0.4002082045572033,0.5507123134312566,0.5202448306384647,0.9843618869781494,0.09572911262512207,-0.1478773504495621,61.67279815673828,-5.377729415893555,12.15542602539062,2,11058.73698954167,2,0,1580907342.978156,1580903939.50652,2377,0.4626901,0,0,2938.329,10,11,1580907321.19788,11056.988638,0,14.14169,97.03895
1580907344.032387,91,0,1580907286.99823,41.20781296037784,29.0754925099451,275.2123,0.1345286,-1,23.46983528137207,200,-9999,11059.82311725,0.9673309326171875,0.09222412109375,-0.15032958984375,11059.81808125,1.710239803109112,1.422032155078003,-0.0959579984733616,-0.001253405585885048,0.03412085026502609,-0.008356189355254173,-0.0246042013168335,-0.002199321985244751,-0.006197273731231689,2,-0.5157640818769793,0.4002752866159175,0.5506030421849194,0.5201955735339489,0.9844053983688354,0.09581080079078674,-0.1475342065095901,61.67279815673828,-5.377729415893555,12.15542602539062,2,11058.73698954167,2,0,1580907342.978156,1580903939.50652,2377,0.4626901,0,0,2938.329,10,11,1580907321.19788,11056.988638,0,14.14169,97.03895
1580907344.056303,92,0,1580907286.99823,41.20781296037784,29.0754925099451,275.2123,0.1345286,-1,23.46983528137207,200,-9999,11059.83315725,0.9669036865234375,0.092376708984375,-0.1506500244140625,11059.82812125,1.710233092162873,1.422433317697172,-0.09605849660861175,-0.0004443740472197533,0.04136986285448074,-0.00961358193308115,-0.02067136764526367,-0.003123611211776733,-0.005114614963531494,2,-0.515896902632755,0.4003516495538649,0.5504749911194198,0.5201407274968995,0.9844551086425781,0.09591083973646164,-0.1471378803253174,61.62238311767578,-5.344846725463867,12.32107543945312,2,11058.73698954167,2,0,1580907342.978156,1580903939.50652,2377,0.4626901,0,0,2938.329,10,11,1580907321.19788,11056.988638,0,14.14169,97.03895
1580907344.05767,93,0,1580907286.99823,41.20781296037784,29.0754925099451,275.2123,0.1345286,-1,23.46983528137207,200,-9999,11059.84319725,0.9696044921875,0.094696044921875,-0.1465606689453125,11059.83816225,1.710227903198733,1.422799364871503,-0.09617109802430675,-0.001216957345604897,0.03582702577114105,-0.01037977356463671,-0.02074503898620605,-0.00453302264213562,-0.006850838661193848,2,-0.5160232628693086,0.4004148360954806,0.5503535224835312,0.5200951103966682,0.9844980239868164,0.09602291882038116,-0.1467759013175964,61.62238311767578,-5.344846725463867,12.32107543945312,2,11058.73698954167,2,0,1580907342.978156,1580903939.50652,2377,0.4626901,0,0,2938.329,10,11,1580907321.19788,11056.988638,0,14.14169,97.03895
1580907344.061333,94,0,1580907286.99823,41.20781296037784,29.0754925099451,275.2123,0.1345286,-1,23.46983528137207,200,-9999,11059.85326825,0.96759033203125,0.0951690673828125,-0.1452789306640625,11059.84820225,1.710213715953712,1.423127783323858,-0.0962697964331132,-0.0007979497313499451,0.03334079310297966,-0.01026797853410244,-0.01783907413482666,-0.002464801073074341,-0.003316283226013184,2,-0.5161341470414801,0.4004746750354969,0.550242571173187,0.5200562639058069,0.9845367074012756,0.0961211621761322,-0.1464511603116989,61.58165740966797,-5.197874069213867,12.19479370117188,2,11058.73698954167,2,0,1580907342.978156,1580903939.50652,2377,0.4626901,0,0,2938.329,10,11,1580907321.19788,11056.988638,0,14.14169,97.03895
1580907344.071624,95,0,1580907286.99823,41.20781296037784,29.0754925099451,275.2123,0.1345286,-1,23.46983528137207,200,-9999,11059.86330825,0.9661407470703125,0.095672607421875,-0.1445159912109375,11059.85824225,1.710188465351579,1.423419865898576,-0.09631796991351831,0.002355499193072319,0.02923313155770302,-0.004921948537230492,-0.01882350444793701,-0.001276910305023193,-0.001728475093841553,2,-0.5162208022989431,0.40054291465636,0.5501496788321061,0.5200160689353852,0.9845749139785767,0.096169114112854,-0.1461629122495651,61.58165740966797,-5.197874069213867,12.19479370117188,2,11058.73698954167,2,0,1580907342.978156,1580903939.50652,2377,0.4626901,0,0,2938.329,10,11,1580907321.19788,11056.988638,0,14.14169,97.03895
1580907344.08133,96,0,1580907286.99823,41.20781296037784,29.0754925099451,275.2123,0.1345286,-1,23.46983528137207,200,-9999,11059.87334825,0.9665679931640625,0.09576416015625,-0.14581298828125,11059.86828325,1.710169546083007,1.423682901103028,-0.09632989037726591,0.001797154545783997,0.0257599726319313,-0.0006096959114074707,-0.02122592926025391,-0.001044660806655884,-0.0009504556655883789,2,-0.5162921258578627,0.4006127125337275,0.5500742133865959,0.519971540015121,0.9846124053001404,0.09618097543716431,-0.1459037959575653,61.66590118408203,-5.154474258422852,12.39822387695312,2,11058.73698954167,2,0,1580907342.978156,1580903939.50652,2377,0.4626901,0,0,2938.329,10,11,1580907321.19788,11056.988638,0,14.14169,97.03895
1580907344.092403,97,0,1580907286.99823,41.20781296037784,29.0754925099451,275.2123,0.1345286,-1,23.46983528137207,200,-9999,11059.88338925,0.9637908935546875,0.0942230224609375,-0.1477203369140625,11059.87832325,1.710132950649707,1.423965247397702,-0.09631312855049536,0.003979881294071674,0.02783937007188797,0.002043877728283405,-0.02047544717788696,-0.000707477331161499,-0.001839518547058105,2,-0.516358514057223,0.4007004905149423,0.5499955912004874,0.5199210294043797,0.9846550226211548,0.09616429358720779,-0.1456260085105896,61.66590118408203,-5.154474258422852,12.39822387695312,2,11058.73698954167,2,0,1580907342.978156,1580903939.50652,2377,0.4626901,0,0,2938.329,10,11,1580907321.19788,11056.988638,0,14.14169,97.03895
1580907344.115747,98,0,1580907286.99823,41.20781296037784,29.0754925099451,275.2123,0.1345286,-1,23.46983528137207,200,-9999,11059.89342925,0.966766357421875,0.093841552734375,-0.14874267578125,11059.88839425,1.710096168159471,1.424295619769397,-0.09629794993854104,0.003182460553944111,0.0343945324420929,0.001901182346045971,-0.02302753925323486,-0.001638442277908325,-0.004072904586791992,2,-0.5164384050809961,0.4008003510821311,0.549904183435083,0.5198613813331272,0.9847045540809631,0.09614918380975723,-0.1453009098768234,61.61171722412109,-5.249486923217773,12.2977294921875,2,11058.73698954167,2,0,1580907342.978156,1580903939.50652,2377,0.4626901,0,0,2938.329,10,11,1580907321.19788,11056.988638,0,14.14169,97.03895
1580907344.117116,99,0,1580907286.99823,41.20781296037784,29.0754925099451,275.2123,0.1345286,-1,23.46983528137207,200,-9999,11059.90346925,0.97039794921875,0.09423828125,-0.1443023681640625,11059.89843425,1.710050446056013,1.42459389802662,-0.09630066925950878,0.004145726561546326,0.03089194186031818,-0.001010717824101448,-0.02235352993011475,-0.00243455171585083,-0.006396889686584473,2,-0.5165118804213185,0.4008888910876187,0.5498146638417805,0.5198148334743343,0.984747588634491,0.09615189582109451,-0.1450071483850479,61.61171722412109,-5.249486923217773,12.2977294921875,2,11058.73698954167,2,0,1580907342.978156,1580903939.50652,2377,0.4626901,0,0,2938.329,10,11,1580907321.19788,11056.988638,0,14.14169,97.03895
1580907344.121515,100,0,1580907286.99823,41.20781296037784,29.0754925099451,275.2123,0.1345286,-1,23.46983528137207,200,-9999,11059.91351025,0.9701995849609375,0.0933837890625,-0.1440887451171875,11059.90847425,1.710006826197462,1.424851281409775,-0.0963203916696824,0.00412767194211483,0.02589229680597782,-0.002821692731231451,-0.01746046543121338,-0.002530515193939209,-0.00349271297454834,2,-0.5165785294403994,0.4009612369497864,0.5497323757832711,0.5197798975487844,0.9847830533981323,0.09617152065038681,-0.1447534114122391,61.77857208251953,-5.136640548706055,12.42318725585938,2,11058.73698954167,2,0,1580907342.978156,1580903939.50652,2377,0.4626901,0,0,2938.329,10,11,1580907321.19788,11056.988638,0,14.14169,97.03895
1580907344.131543,101,0,1580907286.99823,41.20781296037784,29.0754925099451,275.2123,0.1345286,-1,23.46983528137207,200,-9999,11059.92355025,0.9652252197265625,0.0938720703125,-0.14605712890625,11059.91851425,1.70996338116437,1.425101116228513,-0.09632429475671211,0.004206235520541668,0.02626966498792171,0.0001200353726744652,-0.01659607887268066,-0.002702325582504272,-0.001191258430480957,2,-0.5166394056602516,0.4010362339037316,0.5496556632870412,0.5197426646650519,0.9848188161849976,0.0961754098534584,-0.1445073336362839,61.77857208251953,-5.136640548706055,12.42318725585938,2,11058.73698954167,2,0,1580907342.978156,1580903939.50652,2377,0.4626901,0,0,2938.329,10,11,1580907321.19788,11056.988638,0,14.14169,97.03895
1580907344.141633,102,0,1580907286.99823,41.20781296037784,29.0754925099451,275.2123,0.1345286,-1,23.46983528137207,200,-9999,11059.93362125,0.9606170654296875,0.094757080078125,-0.1469268798828125,11059.92855525,1.709919318797328,1.425375104104346,-0.09627913924210799,0.005411014892160892,0.02662090770900249,0.005195103585720062,-0.0210651159286499,-0.002870887517929077,-0.004207849502563477,2,-0.5166952210189022,0.401132138160342,0.5495837059543032,0.5196891846869913,0.9848626255989075,0.09613046050071716,-0.1442381143569946,61.70189666748047,-5.20289421081543,12.47015380859375,2,11058.73698954167,2,0,1580907342.978156,1580903939.50652,2377,0.4626901,0,0,2938.329,10,11,1580907321.19788,11056.988638,0,14.14169,97.03895
1580907344.152539,103,0,1580907286.99823,41.20781296037784,29.0754925099451,275.2123,0.1345286,-1,23.46983528137207,200,-9999,11059.94366125,0.9581756591796875,0.09490966796875,-0.147125244140625,11059.93859525,1.709880869791685,1.425731594434031,-0.09616384058524609,0.005958294495940208,0.03569483011960983,0.01159068569540977,-0.02570515871047974,-0.001870781183242798,-0.004695534706115723,2,-0.5167582519124894,0.4012687461289388,0.5495078924459049,0.5196011682687453,0.9849249124526978,0.09601569920778275,-0.1438886076211929,61.70189666748047,-5.20289421081543,12.47015380859375,2,11058.73698954167,2,0,1580907342.978156,1580903939.50652,2377,0.4626901,0,0,2938.329,10,11,1580907321.19788,11056.988638,0,14.14169,97.03895
1580907344.176246,104,0,1580907286.99823,41.20781296037784,29.0754925099451,275.2123,0.1345286,-1,23.46983528137207,200,-9999,11059.95370125,0.9588623046875,0.09375,-0.1462249755859375,11059.94863525,1.709850286783439,1.426160559627506,-0.09597987987728263,0.004790849983692169,0.04321569949388504,0.01834067516028881,-0.02908039093017578,-0.001153141260147095,-0.006413698196411133,2,-0.5168265268355123,0.4014424241481436,0.5494310773488639,0.5194803708193246,0.9850040078163147,0.09583258628845215,-0.1434686481952667,61.65991973876953,-5.092832565307617,12.43179321289062,2,11058.73698954167,2,0,1580907342.978156,1580903939.50652,2377,0.4626901,0,0,2938.329,10,11,1580907321.19788,11056.988638,0,14.14169,97.03895
1580907344.177579,105,0,1580907286.99823,41.20781296037784,29.0754925099451,275.2123,0.1345286,-1,23.46983528137207,200,-9999,11059.96374225,0.9709320068359375,0.0939178466796875,-0.1419525146484375,11059.95867625,1.709807250155858,1.426580261886802,-0.09577420335375067,0.006408720277249813,0.04348094761371613,0.0204421766102314,-0.0299232006072998,-0.001817584037780762,-0.005619943141937256,2,-0.5168846242868681,0.4016232799031295,0.5493583576402685,0.5193596773488982,0.9850836396217346,0.09562785178422928,-0.1430580466985703,61.65991973876953,-5.092832565307617,12.43179321289062,2,11058.73698954167,2,0,1580907342.978156,1580903939.50652,2377,0.4626901,0,0,2938.329,10,11,1580907321.19788,11056.988638,0,14.14169,97.03895
1580907344.181798,106,0,1580907286.99823,41.20781296037784,29.0754925099451,275.2123,0.1345286,-1,23.46983528137207,200,-9999,11059.97378225,0.975494384765625,0.094390869140625,-0.141265869140625,11059.96874625,1.709775595725243,1.42687656779645,-0.09557567321502404,0.004617121070623398,0.03018663451075554,0.02013451606035233,-0.02134805917739868,-0.002092421054840088,-0.003087043762207031,2,-0.5169127664162249,0.4017670289662643,0.5493188790015145,0.5192623331715346,0.9851448535919189,0.09543023258447647,-0.1427688896656036,61.77112579345703,-5.118158340454102,12.50933837890625,2,11058.73698954167,2,0,1580907342.978156,1580903939.50652,2377,0.4626901,0,0,2938.329,10,11,1580907321.19788,11056.988638,0,14.14169,97.03895
1580907344.191824,107,0,1580907286.99823,41.20781296037784,29.0754925099451,275.2123,0.1345286,-1,23.46983528137207,200,-9999,11059.98382225,0.975830078125,0.0928802490234375,-0.1424407958984375,11059.97878725,1.709745096582583,1.427068495658235,-0.09541811193349742,0.004508464597165585,0.02092576026916504,0.01526679005473852,-0.01232671737670898,-0.001172244548797607,-0.0004518032073974609,2,-0.516922211046601,0.4018711959414214,0.5492972389320768,0.5191950086069596,0.9851869344711304,0.09527339041233063,-0.1425819396972656,61.57405853271484,-5.159887313842773,12.69488525390625,2,11058.73698954167,2,0,1580907342.978156,1580903939.50652,2377,0.4626901,0,0,2938.329,10,11,1580907321.19788,11056.988638,0,14.14169,97.03895
1580907344.202019,108,0,1580907286.99823,41.20781296037784,29.0754925099451,275.2123,0.1345286,-1,23.46983528137207,200,-9999,11059.99386225,0.972320556640625,0.0918121337890625,-0.1432952880859375,11059.98882725,1.709707181330659,1.427215093117421,-0.09530570285963492,0.005160732194781303,0.01530789956450462,0.01066534966230392,-0.01251101493835449,-0.001975566148757935,-0.00244140625,2,-0.516928311478719,0.4019522322381706,0.5492751623520138,0.5191495918606868,0.9852184653282166,0.09516149014234543,-0.1424390524625778,61.57405853271484,-5.159887313842773,12.69488525390625,2,11058.73698954167,2,0,1580907342.978156,1580903939.50652,2377,0.4626901,0,0,2938.329,10,11,1580907321.19788,11056.988638,0,14.14169,97.03895
1580907344.212447,109,0,1580907286.99823,41.20781296037784,29.0754925099451,275.2123,0.1345286,-1,23.46983528137207,200,-9999,11060.00390325,0.9691162109375,0.0912933349609375,-0.1448516845703125,11059.99886725,1.709671736491214,1.427392565506264,-0.09524593106909977,0.004091738723218441,0.01843258738517761,0.004956331104040146,-0.01396083831787109,-0.003426522016525269,-0.002829313278198242,2,-0.5169557898341905,0.402025123381107,0.5492337618065265,0.5191096996765111,0.985249400138855,0.09510198980569839,-0.1422650218009949,61.64786529541016,-5.241762161254883,12.85995483398438,2,11058.73698954167,2,0,1580907342.978156,1580903939.50652,2377,0.4626901,0,0,2938.329,10,11,1580907321.19788,11056.988638,0,14.14169,97.03895
1580907344.237672,110,0,1580907286.99823,41.20781296037784,29.0754925099451,275.2123,0.1345286,-1,23.46983528137207,200,-9999,11060.01397325,0.973907470703125,0.0901031494140625,-0.1441802978515625,11060.00890825,1.709626076014607,1.427576482808183,-0.09527625749566067,0.004848032258450985,0.02037636563181877,-0.005070342216640711,-0.0187603235244751,-0.003731429576873779,-0.004903674125671387,2,-0.517004307154359,0.402075680753005,0.5491674071137762,0.5190922856251909,0.9852725863456726,0.09513217955827713,-0.1420833915472031,61.64786529541016,-5.241762161254883,12.85995483398438,2,11058.73698954167,2,0,1580907342.978156,1580903939.50652,2377,0.4626901,0,0,2938.329,10,11,1580907321.19788,11056.988638,0,14.14169,97.03895
1580907344.238947,111,0,1580907286.99823,41.20781296037784,29.0754925099451,275.2123,0.1345286,-1,23.46983528137207,200,-9999,11060.02401425,0.974578857421875,0.090850830078125,-0.1406097412109375,11060.01894825,1.709587906946038,1.427702657361604,-0.09538652669014025,0.002458910457789898,0.01254427433013916,-0.01058947760611773,-0.01609748601913452,-0.00497061014175415,-0.005151748657226562,2,-0.5170572594593511,0.4020858033192614,0.5490997705061097,0.5191034263331862,0.9852802753448486,0.09524194896221161,-0.1419575959444046,61.64392852783203,-5.232515335083008,12.7889404296875,2,11058.73698954167,2,0,1580907342.978156,1580903939.50652,2377,0.4626901,0,0,2938.329,10,11,1580907321.19788,11056.988638,0,14.14169,97.03895
1580907344.241931,112,0,1580907286.99823,41.20781296037784,29.0754925099451,275.2123,0.1345286,-1,23.46983528137207,200,-9999,11060.03405425,0.9691925048828125,0.09185791015625,-0.1430206298828125,11060.02898825,1.709557247141088,1.427828644743096,-0.09554409487851039,-7.709488272666931e-06,0.01506442576646805,-0.01497170887887478,-0.01184332370758057,-0.005173712968826294,-0.001600980758666992,2,-0.5171228914333671,0.4020799190263965,0.5490232438644145,0.5191234499873916,0.9852831959724426,0.09539879858493805,-0.1418313086032867,61.64392852783203,-5.232515335083008,12.7889404296875,2,11058.73698954167,2,0,1580907342.978156,1580903939.50652,2377,0.4626901,0,0,2938.329,10,11,1580907321.19788,11056.988638,0,14.14169,97.03895
1580907344.252106,113,0,1580907286.99823,41.20781296037784,29.0754925099451,275.2123,0.1345286,-1,23.46983528137207,200,-9999,11060.04409425,0.967529296875,0.09234619140625,-0.14410400390625,11060.03902825,1.709520451925358,1.427956710580495,-0.09571900908241578,0.001498575322329998,0.01341779157519341,-0.01807455718517303,-0.01836037635803223,-0.004158109426498413,-0.002981126308441162,2,-0.517191916791837,0.402071071657642,0.5489406494755225,0.519148892349334,0.9852848649024963,0.09557291120290756,-0.1417027562856674,61.64356231689453,-5.216070175170898,12.7117919921875,2,11058.73698954167,2,0,1580907342.978156,1580903939.50652,2377,0.4626901,0,0,2938.329,10,11,1580907321.19788,11056.988638,0,14.14169,97.03895
1580907344.262102,114,0,1580907286.99823,41.20781296037784,29.0754925099451,275.2123,0.1345286,-1,23.46983528137207,200,-9999,11060.05413525,0.96429443359375,0.0933837890625,-0.144500732421875,11060.04909925,1.70947941418979,1.428141433946388,-0.09586834856568005,0.002939345315098763,0.0205627866089344,-0.01462736167013645,-0.0192267894744873,-0.003498494625091553,-0.004539012908935547,2,-0.5172696234435857,0.4020855485944331,0.5488480908800665,0.5191580105842721,0.9852967858314514,0.09572156518697739,-0.141518697142601,61.64356231689453,-5.216070175170898,12.7117919921875,2,11058.73698954167,2,0,1580907342.978156,1580903939.50652,2377,0.4626901,0,0,2938.329,10,11,1580907321.19788,11056.988638,0,14.14169,97.03895
1580907344.272382,115,0,1580907286.99823,41.20781296037784,29.0754925099451,275.2123,0.1345286,-1,23.46983528137207,200,-9999,11060.06417525,0.966766357421875,0.096099853515625,-0.1401214599609375,11060.05913925,1.709450285175571,1.428279770907686,-0.09599203882471095,0.0008002938702702522,0.01226890459656715,-0.01339911203831434,-0.02365970611572266,-0.003530293703079224,-0.006355524063110352,2,-0.5173308714049576,0.4020925341330255,0.5487765426662701,0.5191673438891115,0.9853047132492065,0.09584468603134155,-0.1413807272911072,61.72570037841797,-5.33888053894043,12.80300903320312,2,11058.73698954167,2,0,1580907342.978156,1580903939.50652,2377,0.4626901,0,0,2938.329,10,11,1580907321.19788,11056.988638,0,14.14169,97.03895
1580907344.294362,116,0,1580907286.99823,41.20781296037784,29.0754925099451,275.2123,0.1345286,-1,23.46983528137207,200,-9999,11060.07421525,0.963226318359375,0.0958099365234375,-0.141693115234375,11060.06918025,1.709424649961571,1.428388764369031,-0.09605518172064181,0.0006650052964687347,0.01070429757237434,-0.006301787681877613,-0.02196025848388672,-0.0008315443992614746,-0.001993536949157715,2,-0.5173705486925191,0.4021087989475543,0.5487272312529132,0.5191671970899819,0.9853140115737915,0.0959075391292572,-0.1412724554538727,61.72570037841797,-5.33888053894043,12.80300903320312,2,11058.73698954167,2,0,1580907342.978156,1580903939.50652,2377,0.4626901,0,0,2938.329,10,11,1580907321.19788,11056.988638,0,14.14169,97.03895
1580907344.295737,117,0,1580907286.99823,41.20781296037784,29.0754925099451,275.2123,0.1345286,-1,23.46983528137207,200,-9999,11060.08425525,0.95953369140625,0.0951690673828125,-0.144287109375,11060.07922025,1.709399332489161,1.428527652909197,-0.09603420030584264,0.001906570978462696,0.01397998631000519,0.003023270517587662,-0.02297365665435791,-6.285309791564941e-05,-0.00182497501373291,2,-0.5173985639606924,0.4021576386485248,0.5486895854777679,0.5191414397150786,0.9853358268737793,0.09588665515184402,-0.1411359161138535,61.60057830810547,-5.157594680786133,12.80746459960938,2,11058.73698954167,2,0,1580907342.978156,1580903939.50652,2377,0.4626901,0,0,2938.329,10,11,1580907321.19788,11056.988638,0,14.14169,97.03895
1580907344.30226,118,0,1580907286.99823,41.20781296037784,29.0754925099451,275.2123,0.1345286,-1,23.46983528137207,200,-9999,11060.09432625,0.9600372314453125,0.095245361328125,-0.1454620361328125,11060.08926025,1.709373901088837,1.428763923552474,-0.09593357276310442,0.003312187269330025,0.02343234419822693,0.01057413034141064,-0.02812826633453369,-0.0008321404457092285,-0.004986822605133057,2,-0.5174345299635374,0.4022552284914135,0.5486448523837257,0.5190772746617333,0.9853786826133728,0.09578648954629898,-0.1409044712781906,61.60057830810547,-5.157594680786133,12.80746459960938,2,11058.73698954167,2,0,1580907342.978156,1580903939.50652,2377,0.4626901,0,0,2938.329,10,11,1580907321.19788,11056.988638,0,14.14169,97.03895
1580907344.312364,119,0,1580907286.99823,41.20781296037784,29.0754925099451,275.2123,0.1345286,-1,23.46983528137207,200,-9999,11060.10436725,0.9637451171875,0.0934906005859375,-0.145233154296875,11060.09930125,1.709337387719096,1.4291342417384,-0.09580359854491204,0.005352435633540154,0.03902621567249298,0.01243248395621777,-0.02800989151000977,-0.0005498826503753662,-0.00709068775177002,2,-0.5174981660548236,0.4023990580750515,0.548569191252984,0.5189820948996812,0.9854429364204407,0.0956571102142334,-0.140541285276413,61.66098785400391,-5.275678634643555,12.79495239257812,2,11058.73698954167,2,0,1580907342.978156,1580903939.50652,2377,0.4626901,0,0,2938.329,10,11,1580907321.19788,11056.988638,0,14.14169,97.03895
1580907344.322855,120,0,1580907286.99823,41.20781296037784,29.0754925099451,275.2123,0.1345286,-1,23.46983528137207,200,-9999,11060.11440725,0.9721527099609375,0.09393310546875,-0.14093017578125,11060.10934125,1.709298056725699,1.429502506430188,-0.09567531124348205,0.00600841548293829,0.03753916919231415,0.0123740341514349,-0.02647173404693604,-0.001840949058532715,-0.007849574089050293,2,-0.5175609898809531,0.4025426258733006,0.5484930208965864,0.5188886580109784,0.9855067729949951,0.09552941471338272,-0.1401801109313965,61.66098785400391,-5.275678634643555,12.79495239257812,2,11058.73698954167,2,0,1580907342.978156,1580903939.50652,2377,0.4626901,0,0,2938.329,10,11,1580907321.19788,11056.988638,0,14.14169,97.03895
1580907344.354137,121,0,1580907286.99823,41.20781296037784,29.0754925099451,275.2123,0.1345286,-1,23.46983528137207,200,-9999,11060.12444725,0.9743194580078125,0.091949462890625,-0.1391448974609375,11060.11938125,1.709283703176897,1.429791317333136,-0.09557264213337702,0.002385984174907207,0.02919362112879753,0.009343622252345085,-0.01829755306243896,-0.002013117074966431,-0.004853010177612305,2,-0.5176130972174786,0.4026515281629979,0.5484380125073237,0.5188103079732298,0.9855569005012512,0.09542721509933472,-0.1398968547582626,61.59520721435547,-5.352537155151367,12.78872680664062,2,11058.73698954167,2,0,1580907342.978156,1580903939.50652,2377,0.4626901,0,0,2938.329,10,11,1580907321.19788,11056.988638,0,14.14169,97.03895
1580907344.355657,122,0,1580907286.99823,41.20781296037784,29.0754925099451,275.2123,0.1345286,-1,23.46983528137207,200,-9999,11060.13448725,0.9735107421875,0.0915069580078125,-0.139434814453125,11060.12945225,1.709278029967076,1.430023783688063,-0.09551599551177312,0.001791404560208321,0.02332301624119282,0.005401410162448883,-0.01343739032745361,-0.002917885780334473,-0.002091169357299805,2,-0.5176623274177307,0.4027300082240448,0.5483893400497732,0.5187517839593154,0.9855948090553284,0.0953708216547966,-0.1396685093641281,61.59520721435547,-5.352537155151367,12.78872680664062,2,11058.73698954167,2,0,1580907342.978156,1580903939.50652,2377,0.4626901,0,0,2938.329,10,11,1580907321.19788,11056.988638,0,14.14169,97.03895
1580907344.356846,123,0,1580907286.99823,41.20781296037784,29.0754925099451,275.2123,0.1345286,-1,23.46983528137207,200,-9999,11060.14452825,0.977020263671875,0.0915374755859375,-0.1407470703125,11060.13949225,1.709282643213822,1.430202128021244,-0.09553910468727159,-0.0006983838975429535,0.01773677207529545,-0.003190214280039072,-0.01552021503448486,-0.004008978605270386,-0.001932084560394287,2,-0.5177175812701934,0.4027682811926996,0.5483391185007518,0.5187201059035077,0.9856176376342773,0.0953938290476799,-0.1394924372434616,61.63283538818359,-5.366155624389648,12.95138549804688,2,11058.73698954167,2,0,1580907342.978156,1580903939.50652,2377,0.4626901,0,0,2938.329,10,11,1580907321.19788,11056.988638,0,14.14169,97.03895
1580907344.362486,124,0,1580907286.99823,41.20781296037784,29.0754925099451,275.2123,0.1345286,-1,23.46983528137207,200,-9999,11060.15456825,0.9686126708984375,0.09197998046875,-0.1402740478515625,11060.14953325,1.709289976189188,1.430360485973877,-0.09559370598877082,-0.0008888747543096542,0.0171377919614315,-0.004902305547147989,-0.01091378927230835,-0.004414498805999756,-0.003477871417999268,2,-0.5177753462552255,0.4027913596143073,0.548287541435703,0.5186990392845555,0.9856345057487488,0.09544818103313446,-0.1393356174230576,61.63283538818359,-5.366155624389648,12.95138549804688,2,11058.73698954167,2,0,1580907342.978156,1580903939.50652,2377,0.4626901,0,0,2938.329,10,11,1580907321.19788,11056.988638,0,14.14169,97.03895
1580907344.372709,125,0,1580907286.99823,41.20781296037784,29.0754925099451,275.2123,0.1345286,-1,23.46983528137207,200,-9999,11060.16460825,0.9725341796875,0.0926513671875,-0.1387176513671875,11060.15957325,1.709305423999266,1.430477169784314,-0.0956952166933125,-0.003670813050121069,0.01260402426123619,-0.01051518321037292,-0.01800060272216797,-0.00367659330368042,-0.003793120384216309,2,-0.5178344272320269,0.402787650354653,0.5482380596618954,0.5186950104745813,0.9856409430503845,0.09554922580718994,-0.1392192244529724,61.62613677978516,-5.336332321166992,12.76290893554688,2,11058.73698954167,2,0,1580907342.978156,1580903939.50652,2377,0.4626901,0,0,2938.329,10,11,1580907321.19788,11056.988638,0,14.14169,97.03895
1580907344.382659,126,0,1580907286.99823,41.20781296037784,29.0754925099451,275.2123,0.1345286,-1,23.46983528137207,200,-9999,11060.17467925,0.9738006591796875,0.0931549072265625,-0.1368408203125,11060.16961325,1.709321175706615,1.430482731394886,-0.09581546322551233,-0.003782549872994423,0.0008323956280946732,-0.01096824463456869,-0.01756274700164795,-0.003613561391830444,-0.00219804048538208,2,-0.5178674313258148,0.4027496064820257,0.5482132516527572,0.5187179512208382,0.9856304526329041,0.09566892683506012,-0.1392121613025665,61.62613677978516,-5.336332321166992,12.76290893554688,2,11058.73698954167,2,0,1580907342.978156,1580903939.50652,2377,0.4626901,0,0,2938.329,10,11,1580907321.19788,11056.988638,0,14.14169,97.03895
1580907344.411368,127,0,1580907286.99823,41.20781296037784,29.0754925099451,275.2123,0.1345286,-1,23.46983528137207,200,-9999,11060.18471925,0.9654083251953125,0.093719482421875,-0.1386566162109375,11060.17965325,1.709329280807933,1.430422764716779,-0.09594467058073469,-0.002511689439415932,-0.006805816665291786,-0.01265083067119122,-0.01403254270553589,-0.002994775772094727,-0.0004621148109436035,2,-0.5178830980731773,0.4026938506761397,0.5482013099496525,0.5187581251703774,0.985609769821167,0.09579753875732422,-0.1392695158720016,61.59304046630859,-5.332635879516602,12.713134765625,2,11058.73698954167,2,0,1580907342.978156,1580903939.50652,2377,0.4626901,0,0,2938.329,10,11,1580907321.19788,11056.988638,0,14.14169,97.03895
1580907344.412874,128,0,1580907286.99823,41.20781296037784,29.0754925099451,275.2123,0.1345286,-1,23.46983528137207,200,-9999,11060.19476025,0.9585418701171875,0.093048095703125,-0.14385986328125,11060.18969425,1.709337770820422,1.430455727134652,-0.09605015992052512,-0.002266775351017714,0.002812083810567856,-0.01056406460702419,-0.01982533931732178,-0.002627015113830566,-0.0002974271774291992,2,-0.5179186510893162,0.4026691571468657,0.5481709164725129,0.5187741177691592,0.9856045842170715,0.09590253978967667,-0.139235645532608,61.59304046630859,-5.332635879516602,12.713134765625,2,11058.73698954167,2,0,1580907342.978156,1580903939.50652,2377,0.4626901,0,0,2938.329,10,11,1580907321.19788,11056.988638,0,14.14169,97.03895
1580907344.413958,129,0,1580907286.99823,41.20781296037784,29.0754925099451,275.2123,0.1345286,-1,23.46983528137207,200,-9999,11060.20480025,0.96185302734375,0.09490966796875,-0.141876220703125,11060.19973425,1.709348983242981,1.430596819425927,-0.09610275197318027,-0.001786607317626476,0.01476568356156349,-0.004744525067508221,-0.02876639366149902,-0.002771109342575073,-0.006037592887878418,2,-0.5179719799783675,0.4026873395924879,0.548125246709009,0.5187549768871088,0.9856191873550415,0.09595488756895065,-0.1390958726406097,61.62551116943359,-5.365251541137695,12.8619384765625,2,11058.73698954167,2,0,1580907342.978156,1580903939.50652,2377,0.4626901,0,0,2938.329,10,11,1580907321.19788,11056.988638,0,14.14169,97.03895
1580907344.422651,130,0,1580907286.99823,41.20781296037784,29.0754925099451,275.2123,0.1345286,-1,23.46983528137207,200,-9999,11060.21485325,0.96612548828125,0.09576416015625,-0.1385040283203125,11060.20980525,1.709368654641148,1.430735883057122,-0.09610151330177302,-0.001784120686352253,0.01343989185988903,0.0003424640744924545,-0.02826708555221558,-0.002144277095794678,-0.006922721862792969,2,-0.5180137821332969,0.4027186572787335,0.5480945876211113,0.5187212277347533,0.9856385588645935,0.09595365822315216,-0.1389588117599487,61.62551116943359,-5.365251541137695,12.8619384765625,2,11058.73698954167,2,0,1580907342.978156,1580903939.50652,2377,0.4626901,0,0,2938.329,10,11,1580907321.19788,11056.988638,0,14.14169,97.03895
1580907344.433283,131,0,1580907286.99823,41.20781296037784,29.0754925099451,275.2123,0.1345286,-1,23.46983528137207,200,-9999,11060.22489325,0.965179443359375,0.0942840576171875,-0.140167236328125,11060.21985825,1.709405193331957,1.43086447585833,-0.09605292161940691,-0.004632104653865099,0.01198793761432171,0.005089548416435719,-0.0228726863861084,-0.0002646744251251221,-0.002151131629943848,2,-0.5180449495802808,0.4027568478796404,0.5480818484809993,0.518673838560034,0.9856609702110291,0.09590528905391693,-0.1388327032327652,61.82154083251953,-5.227537155151367,12.81961059570312,2,11058.73698954167,2,0,1580907342.978156,1580903939.50652,2377,0.4626901,0,0,2938.329,10,11,1580907321.19788,11056.988638,0,14.14169,97.03895
1580907344.442828,132,0,1580907286.99823,41.20781296037784,29.0754925099451,275.2123,0.1345286,-1,23.46983528137207,200,-9999,11060.23493425,0.964447021484375,0.0955047607421875,-0.1402740478515625,11060.22989825,1.709423051705741,1.431003845203076,-0.09596436276528032,-0.0002824235707521439,0.01327328756451607,0.008467266336083412,-0.02250385284423828,-0.00208359956741333,-0.003432095050811768,2,-0.5180658643044093,0.4028144736916191,0.5480706486672893,0.5186200785748618,0.9856887459754944,0.09581714123487473,-0.1386965215206146,61.82154083251953,-5.227537155151367,12.81961059570312,2,11058.73698954167,2,0,1580907342.978156,1580903939.50652,2377,0.4626901,0,0,2938.329,10,11,1580907321.19788,11056.988638,0,14.14169,97.03895
1580907344.473159,133,0,1580907286.99823,41.20781296037784,29.0754925099451,275.2123,0.1345286,-1,23.46983528137207,200,-9999,11060.24497425,0.9648284912109375,0.0935211181640625,-0.1417083740234375,11060.23993925,1.709448172544823,1.431201169086366,-0.09585171873851998,-0.001495493575930595,0.02047048136591911,0.01138902083039284,-0.02389991283416748,-0.0004606246948242188,-0.003899991512298584,2,-0.5180984215741206,0.4028923630124894,0.5480518613568739,0.5185470645635036,0.9857268929481506,0.09570500999689102,-0.1385035365819931,61.68573760986328,-5.376523971557617,12.63186645507812,2,11058.73698954167,2,0,1580907342.978156,1580903939.50652,2377,0.4626901,0,0,2938.329,10,11,1580907321.19788,11056.988638,0,14.14169,97.03895
1580907344.474936,134,0,1580907286.99823,41.20781296037784,29.0754925099451,275.2123,0.1345286,-1,23.46983528137207,200,-9999,11060.25504525,0.9722137451171875,0.0927886962890625,-0.139801025390625,11060.24997925,1.709465638931908,1.431409747856612,-0.09574184958884872,-8.551962673664093e-05,0.02136567980051041,0.01153584942221642,-0.02435123920440674,-0.001632720232009888,-0.005554556846618652,2,-0.518133263242989,0.4029742383329314,0.5480274249580701,0.518474254989621,0.9857659935951233,0.09559565037488937,-0.1382993757724762,61.68573760986328,-5.376523971557617,12.63186645507812,2,11058.73698954167,2,0,1580907342.978156,1580903939.50652,2377,0.4626901,0,0,2938.329,10,11,1580907321.19788,11056.988638,0,14.14169,97.03895
1580907344.475937,135,0,1580907286.99823,41.20781296037784,29.0754925099451,275.2123,0.1345286,-1,23.46983528137207,200,-9999,11060.26508525,0.9745025634765625,0.092071533203125,-0.1395111083984375,11060.26001925,1.709487303163763,1.431586337545068,-0.09568427087883993,-0.0004317313432693481,0.01772487163543701,0.005401258356869221,-0.01832342147827148,-0.003177434206008911,-0.004629731178283691,2,-0.5181724592824465,0.4030313593071647,0.5480004532321755,0.5184191646159035,0.9857958555221558,0.09553833305835724,-0.1381260454654694,61.86791229248047,-5.314878463745117,12.6717529296875,2,11058.73698954167,2,0,1580907342.978156,1580903939.50652,2377,0.4626901,0,0,2938.329,10,11,1580907321.19788,11056.988638,0,14.14169,97.03895
1580907344.483189,136,0,1580907286.99823,41.20781296037784,29.0754925099451,275.2123,0.1345286,-1,23.46983528137207,200,-9999,11060.27512525,0.9735107421875,0.091949462890625,-0.138458251953125,11060.27005925,1.709524473559075,1.431727460151932,-0.09568119453218615,-0.003634544089436531,0.01332681998610497,0.0004514176398515701,-0.01419299840927124,-0.003494769334793091,-0.004097700119018555,2,-0.518217867299078,0.4030592378544048,0.5479742579836022,0.5183798909719367,0.985815703868866,0.0955352708697319,-0.1379869878292084,61.86791229248047,-5.314878463745117,12.6717529296875,2,11058.73698954167,2,0,1580907342.978156,1580903939.50652,2377,0.4626901,0,0,2938.329,10,11,1580907321.19788,11056.988638,0,14.14169,97.03895
1580907344.493114,137,0,1580907286.99823,41.20781296037784,29.0754925099451,275.2123,0.1345286,-1,23.46983528137207,200,-9999,11060.28516625,0.9689788818359375,0.0921173095703125,-0.139495849609375,11060.28010025,1.709561167913175,1.431844433437526,-0.09572065893071514,-0.004035349935293198,0.01050919480621815,-0.003584869205951691,-0.0143885612487793,-0.004144459962844849,-0.002886354923248291,2,-0.5182665942130189,0.4030684316262667,0.5479444434798031,0.5183555859529246,0.985828161239624,0.09557455033063889,-0.1378711462020874,61.68216705322266,-5.459478378295898,12.85452270507812,2,11058.73698954167,2,0,1580907342.978156,1580903939.50652,2377,0.4626901,0,0,2938.329,10,11,1580907321.19788,11056.988638,0,14.14169,97.03895
1580907344.503253,138,0,1580907286.99823,41.20781296037784,29.0754925099451,275.2123,0.1345286,-1,23.46983528137207,200,-9999,11060.29520625,0.965667724609375,0.0939178466796875,-0.1394195556640625,11060.29017125,1.709587794374337,1.431984197834834,-0.09575667443272673,-0.003108836244791746,0.01393881440162659,-0.002717477269470692,-0.01773083209991455,-0.003707408905029297,-0.003742218017578125,2,-0.518318727122078,0.403087149310961,0.5479068909392363,0.5183286164578534,0.9858440160751343,0.09561040252447128,-0.1377328932285309,61.68216705322266,-5.459478378295898,12.85452270507812,2,11058.73698954167,2,0,1580907342.978156,1580903939.50652,2377,0.4626901,0,0,2938.329,10,11,1580907321.19788,11056.988638,0,14.14169,97.03895
1580907344.531742,139,0,1580907286.99823,41.20781296037784,29.0754925099451,275.2123,0.1345286,-1,23.46983528137207,200,-9999,11060.30524625,0.9679412841796875,0.0953369140625,-0.1366729736328125,11060.30021125,1.709609380912493,1.432123439492724,-0.09575251849421719,-0.001346888951957226,0.01404853537678719,0.001788591034710407,-0.02284693717956543,-0.00272667407989502,-0.004566431045532227,2,-0.5183602468692179,0.4031188614754883,0.5478773453464565,0.5182936515939525,0.9858635663986206,0.09560626745223999,-0.1375956833362579,61.90836334228516,-5.366243362426758,12.82302856445312,2,11058.73698954167,2,0,1580907342.978156,1580903939.50652,2377,0.4626901,0,0,2938.329,10,11,1580907321.19788,11056.988638,0,14.14169,97.03895
1580907344.533445,140,0,1580907286.99823,41.20781296037784,29.0754925099451,275.2123,0.1345286,-1,23.46983528137207,200,-9999,11060.31528625,0.968719482421875,0.0936279296875,-0.1363677978515625,11060.31025125,1.709646292852323,1.432231364745778,-0.09573483545375866,-0.003946942742913961,0.0107541885226965,0.00295571330934763,-0.02116990089416504,-0.0005881190299987793,-0.002475857734680176,2,-0.5183931248425854,0.4031424349039702,0.5478629378013753,0.5182575121930081,0.9858799576759338,0.09558866173028946,-0.1374894976615906,61.90836334228516,-5.366243362426758,12.82302856445312,2,11058.73698954167,2,0,1580907342.978156,1580903939.50652,2377,0.4626901,0,0,2938.329,10,11,1580907321.19788,11056.988638,0,14.14169,97.03895
1580907344.53468,141,0,1580907286.99823,41.20781296037784,29.0754925099451,275.2123,0.1345286,-1,23.46983528137207,200,-9999,11060.32532725,0.970611572265625,0.0933685302734375,-0.1384735107421875,11060.32029125,1.709682215102181,1.432294373011465,-0.09573327489775704,-0.003747205715626478,0.005432926118373871,-6.164796650409698e-05,-0.02040058374404907,-0.001639395952224731,-0.0009511709213256836,2,-0.5184172390754472,0.4031499289552578,0.547856295239433,0.5182346612498633,0.9858888387680054,0.0955871120095253,-0.1374274045228958,61.87122344970703,-5.505346298217773,12.91311645507812,2,11058.73698954167,2,0,1580907342.978156,1580903939.50652,2377,0.4626901,0,0,2938.329,10,11,1580907321.19788,11056.988638,0,14.14169,97.03895
1580907344.543839,142,0,1580907286.99823,41.20781296037784,29.0754925099451,275.2123,0.1345286,-1,23.46983528137207,200,-9999,11060.33539825,0.967193603515625,0.093719482421875,-0.1393890380859375,11060.33033225,1.709710637961875,1.432342219101991,-0.09571611921700203,-0.001932220067828894,0.004062600433826447,0.001416929997503757,-0.0179063081741333,-0.002659857273101807,-0.002478361129760742,2,-0.5184320580087344,0.4031599907369567,0.5478551556371952,0.5182131246061485,0.9858969449996948,0.09557003527879715,-0.137380450963974,61.87122344970703,-5.505346298217773,12.91311645507812,2,11058.73698954167,2,0,1580907342.978156,1580903939.50652,2377,0.4626901,0,0,2938.329,10,11,1580907321.19788,11056.988638,0,14.14169,97.03895
1580907344.553282,143,0,1580907286.99823,41.20781296037784,29.0754925099451,275.2123,0.1345286,-1,23.46983528137207,200,-9999,11060.34543825,0.9663848876953125,0.093536376953125,-0.1385498046875,11060.34037225,1.709737219140136,1.432412032191048,-0.09567090528484577,-0.002355129923671484,0.007377436384558678,0.00504628662019968,-0.02014791965484619,-0.001805990934371948,-0.004316568374633789,2,-0.5184458433017276,0.4031845576205708,0.5478543575673411,0.5181812795604153,0.9859110116958618,0.09552502632141113,-0.1373122334480286,61.94156646728516,-5.520929336547852,12.84710693359375,2,11058.73698954167,2,0,1580907342.978156,1580903939.50652,2377,0.4626901,0,0,2938.329,10,11,1580907321.19788,11057.934574,0,14.14435,97.03889
1580907344.563379,144,0,1580907286.99823,41.20781296037784,29.0754925099451,275.2123,0.1345286,-1,23.46983528137207,200,-9999,11060.35547825,0.9695892333984375,0.0936126708984375,-0.1364288330078125,11060.35041225,1.709750685433438,1.432466321750782,-0.09562136246250351,-0.001075747422873974,0.005281530320644379,0.005115262232720852,-0.02246415615081787,-0.002290576696395874,-0.004201769828796387,2,-0.518451774919828,0.4032097162568691,0.5478550988801858,0.518154951805607,0.9859231114387512,0.09547571092844009,-0.1372593641281128,61.94156646728516,-5.520929336547852,12.84710693359375,2,11060.34748325,4,2,1580907344.58865,1580903939.50652,2377,0.4626901,0,0,2938.329,10,11,1580907321.19788,11057.934574,0,14.14435,97.03889
1580907344.593203,145,0,1580907286.99823,41.20781296037784,29.0754925099451,275.2123,0.1345286,-1,23.46983528137207,200,-9999,11060.36551825,0.9696807861328125,0.0930633544921875,-0.1372222900390625,11060.36045325,1.709752377905318,1.432478974001014,-0.09557078455844825,6.136856973171234e-05,0.0008094664663076401,0.005164028145372868,-0.01995307207107544,-0.001858681440353394,-0.002001285552978516,2,-0.5184437133288713,0.4032274148622919,0.5478637826812557,0.5181399096405326,0.9859294891357422,0.09542536735534668,-0.1372475326061249,61.83882904052734,-5.533674240112305,12.94830322265625,2,11060.34748325,4,2,1580907344.58865,1580903939.50652,2377,0.4626901,0,0,2938.329,10,11,1580907321.19788,11057.934574,0,14.14435,97.03889
1580907344.594897,146,0,1580907286.99823,41.20781296037784,29.0754925099451,275.2123,0.1345286,-1,23.46983528137207,200,-9999,11060.37555925,0.9698333740234375,0.0930328369140625,-0.13677978515625,11060.37052325,1.70974048830802,1.432450586121877,-0.09553023065057703,0.001455110497772694,-0.002271652221679688,0.003525326959788799,-0.01877808570861816,-0.002489566802978516,-0.002018392086029053,2,-0.518423989516983,0.4032350893256026,0.547877343720403,0.5181393465500383,0.9859294295310974,0.09538499265909195,-0.1372760534286499,61.81737518310547,-5.400053024291992,12.79910278320312,2,11060.34748325,4,2,1580907344.58865,1580903939.50652,2377,0.4626901,0,0,2938.329,10,11,1580907321.19788,11057.934574,0,14.14435,97.03889
1580907344.595953,147,0,1580907286.99823,41.20781296037784,29.0754925099451,275.2123,0.1345286,-1,23.46983528137207,200,-9999,11060.38559925,0.96783447265625,0.0929718017578125,-0.1381072998046875,11060.38056425,1.709714547674619,1.432401102603737,-0.09548025704288364,0.003228509798645973,-0.004580346867442131,0.00482441671192646,-0.01886749267578125,-0.002454936504364014,-0.001922845840454102,2,-0.5183933978694455,0.4032437509293692,0.5478949338320218,0.5181447794902638,0.9859275221824646,0.09533525258302689,-0.1373255252838135,61.81737518310547,-5.400053024291992,12.79910278320312,2,11060.34748325,4,2,1580907344.58865,1580903939.50652,2377,0.4626901,0,0,2938.329,10,11,1580907321.19788,11057.934574,0,14.14435,97.03889
1580907344.603692,148,0,1580907286.99823,41.20781296037784,29.0754925099451,275.2123,0.1345286,-1,23.46983528137207,200,-9999,11060.39563925,0.96533203125,0.0939178466796875,-0.1402435302734375,11060.39060425,1.709686142840565,1.432383235289543,-0.09541421499888933,0.003235974349081516,-0.001513004302978516,0.006141883321106434,-0.01995468139648438,-0.002709448337554932,-0.00242316722869873,2,-0.5183672360828945,0.4032659251410289,0.5479073033541388,0.5181405782517979,0.9859312772750854,0.09526950865983963,-0.1373440027236938,61.77465057373047,-5.54155158996582,12.8939208984375,2,11060.34748325,4,2,1580907344.58865,1580903939.50652,2377,0.4626901,0,0,2938.329,10,11,1580907321.19788,11057.934574,0,14.14435,97.03889
1580907344.613659,149,0,1580907286.99823,41.20781296037784,29.0754925099451,275.2123,0.1345286,-1,23.46983528137207,200,-9999,11060.40568025,0.9639892578125,0.093597412109375,-0.140228271484375,11060.40064425,1.709659896373782,1.432420419613917,-0.09533951217304185,0.003033308312296867,0.004487363621592522,0.006702745333313942,-0.02283543348312378,-0.001643091440200806,-0.004900336265563965,2,-0.5183545430720484,0.4033043589118565,0.5479079541561896,0.5181226672011269,0.9859434366226196,0.09519514441490173,-0.1373083293437958,61.77465057373047,-5.54155158996582,12.8939208984375,2,11060.34748325,4,2,1580907344.58865,1580903939.50652,2377,0.4626901,0,0,2938.329,10,11,1580907321.19788,11057.934574,0,14.14435,97.03889
1580907344.62366,150,0,1580907286.99823,41.20781296037784,29.0754925099451,275.2123,0.1345286,-1,23.46983528137207,200,-9999,11060.41575025,0.9656829833984375,0.09271240234375,-0.1387481689453125,11060.41068425,1.709626764630263,1.432500058925384,-0.09524404290767823,0.005138306878507137,0.008323127403855324,0.009736858308315277,-0.02425920963287354,-0.001654595136642456,-0.005771219730377197,2,-0.5183472024858637,0.4033616872070846,0.547900567435453,0.5180931818756118,0.9859633445739746,0.09510010480880737,-0.1372310519218445,61.77930450439453,-5.382966995239258,12.7445068359375,2,11060.34748325,4,2,1580907344.58865,1580903939.50652,2377,0.4626901,0,0,2938.329,10,11,1580907321.19788,11057.934574,0,14.14435,97.03889
1580907344.654256,151,0,1580907286.99823,41.20781296037784,29.0754925099451,275.2123,0.1345286,-1,23.46983528137207,200,-9999,11060.42579125,0.9685516357421875,0.091827392578125,-0.138153076171875,11060.42072525,1.709599922400798,1.432584489395277,-0.09515036017479464,0.004192352294921875,0.008519135415554047,0.008846830576658249,-0.02405083179473877,-0.00223243236541748,-0.004159748554229736,2,-0.5183428446791568,0.4034181135703879,0.5478931816007778,0.5180614749275847,0.9859837889671326,0.09500685334205627,-0.1371490359306335,61.77930450439453,-5.382966995239258,12.7445068359375,2,11060.34748325,4,2,1580907344.58865,1580903939.50652,2377,0.4626901,0,0,2938.329,10,11,1580907321.19788,11057.934574,0,14.14435,97.03889
1580907344.656195,152,0,1580907286.99823,41.20781296037784,29.0754925099451,275.2123,0.1345286,-1,23.46983528137207,200,-9999,11060.43583125,0.9702911376953125,0.092010498046875,-0.1378021240234375,11060.43076525,1.709573735896663,1.432653697815702,-0.095067897072194,0.003666012547910213,0.007506512105464935,0.007987217977643013,-0.02078765630722046,-0.003264069557189941,-0.003632187843322754,2,-0.5183371321673714,0.4034670789463827,0.5478872912179521,0.5180351705138604,0.9860009551048279,0.09492476284503937,-0.1370818614959717,61.73696136474609,-5.41883659362793,12.74307250976562,2,11060.34748325,4,2,1580907344.58865,1580903939.50652,2377,0.4626901,0,0,2938.329,10,11,1580907321.19788,11057.934574,0,14.14435,97.03889
1580907344.657439,153,0,1580907286.99823,41.20781296037784,29.0754925099451,275.2123,0.1345286,-1,23.46983528137207,200,-9999,11060.44587125,0.96942138671875,0.0924530029296875,-0.1377410888671875,11060.44080525,1.709556617654463,1.432700170901207,-0.09500862415565942,0.002387695014476776,0.004127493128180504,0.005515804514288902,-0.01878535747528076,-0.003235369920730591,-0.003173649311065674,2,-0.5183324219145906,0.4035010326762983,0.5478844105516785,0.5180166067999001,0.9860129952430725,0.09486575424671173,-0.1370368301868439,61.73696136474609,-5.41883659362793,12.74307250976562,2,11060.34748325,4,2,1580907344.58865,1580903939.50652,2377,0.4626901,0,0,2938.329,10,11,1580907321.19788,11057.934574,0,14.14435,97.03889
1580907344.663823,154,0,1580907286.99823,41.20781296037784,29.0754925099451,275.2123,0.1345286,-1,23.46983528137207,200,-9999,11060.45591125,0.9691314697265625,0.092376708984375,-0.136993408203125,11060.45087625,1.709547842861627,1.432759267064397,-0.09495675564007126,0.0009648222476243973,0.006433155387639999,0.004655572585761547,-0.0190272331237793,-0.002649575471878052,-0.003063559532165527,2,-0.5183346320376431,0.4035338773552354,0.5478786806708585,0.5179948460429812,0.9860259294509888,0.09481412172317505,-0.1369792371988297,61.62389373779297,-5.27229118347168,12.73434448242188,2,11060.34748325,4,2,1580907344.58865,1580903939.50652,2377,0.4626901,0,0,2938.329,10,11,1580907321.19788,11057.934574,0,14.14435,97.03889
1580907344.673916,155,0,1580907286.99823,41.20781296037784,29.0754925099451,275.2123,0.1345286,-1,23.46983528137207,200,-9999,11060.46595225,0.9662322998046875,0.092926025390625,-0.13916015625,11060.46091625,1.709532341099465,1.432843217758374,-0.09490938390643362,0.001788537949323654,0.008751437067985535,0.003330649808049202,-0.01960790157318115,-0.002739608287811279,-0.002703666687011719,2,-0.5183433743730127,0.4035735554200343,0.5478637101569889,0.5179709031548883,0.986041784286499,0.09476695954799652,-0.1368970572948456,61.62389373779297,-5.27229118347168,12.73434448242188,2,11060.34748325,4,2,1580907344.58865,1580903939.50652,2377,0.4626901,0,0,2938.329,10,11,1580907321.19788,11057.934574,0,14.14435,97.03889
1580907344.684531,156,0,1580907286.99823,41.20781296037784,29.0754925099451,275.2123,0.1345286,-1,23.46983528137207,200,-9999,11060.47599225,0.966644287109375,0.0928802490234375,-0.1376953125,11060.47095725,1.709515253346281,1.432956001056687,-0.09485415360835214,0.002992563880980015,0.01244539394974709,0.004749439656734467,-0.02130699157714844,-0.002272516489028931,-0.00394362211227417,2,-0.5183578268107708,0.4036234387559976,0.5478426745258896,0.5179397700562234,0.9860623478889465,0.09471198171377182,-0.1367865651845932,61.61305999755859,-5.509698867797852,12.63568115234375,2,11060.34748325,4,2,1580907344.58865,1580903939.50652,2377,0.4626901,0,0,2938.329,10,11,1580907321.19788,11057.934574,0,14.14435,97.03889
1580907344.714332,157,0,1580907286.99823,41.20781296037784,29.0754925099451,275.2123,0.1345286,-1,23.46983528137207,200,-9999,11060.48603225,0.9699249267578125,0.092559814453125,-0.1373291015625,11060.48099725,1.709501165616951,1.433059770244972,-0.0947989561153809,0.001658054068684578,0.01087040081620216,0.004983797669410706,-0.02308124303817749,-0.001805424690246582,-0.004182815551757812,2,-0.5183704018820758,0.4036702173878711,0.5478247696123969,0.5179096984444199,0.9860817193984985,0.09465702623128891,-0.1366849690675735,61.61305999755859,-5.509698867797852,12.63568115234375,2,11060.34748325,4,2,1580907344.58865,1580903939.50652,2377,0.4626901,0,0,2938.329,10,11,1580907321.19788,11057.934574,0,14.14435,97.03889
1580907344.715661,158,0,1580907286.99823,41.20781296037784,29.0754925099451,275.2123,0.1345286,-1,23.46983528137207,200,-9999,11060.49610325,0.9707489013671875,0.093536376953125,-0.1369171142578125,11060.49103725,1.709472889843375,1.43314006449587,-0.09474698800466831,0.004308697767555714,0.007988328114151955,0.003396820276975632,-0.01955711841583252,-0.002363860607147217,-0.002888262271881104,2,-0.5183744356147744,0.4037136483853572,0.5478085448565366,0.5178890297209893,0.9860976338386536,0.09460529685020447,-0.1366064697504044,61.83147430419922,-5.639848709106445,12.70114135742188,2,11060.34748325,4,2,1580907344.58865,1580903939.50652,2377,0.4626901,0,0,2938.329,10,11,1580907321.19788,11057.934574,0,14.14435,97.03889
1580907344.716856,159,0,1580907286.99823,41.20781296037784,29.0754925099451,275.2123,0.1345286,-1,23.46983528137207,200,-9999,11060.50614325,0.969940185546875,0.0925445556640625,-0.1375579833984375,11060.50107825,1.709464419734471,1.433200438206134,-0.09469403326710327,0.001507319509983063,0.00440983846783638,0.004731862805783749,-0.01821231842041016,-0.001670151948928833,-0.002809882164001465,2,-0.5183767766352213,0.4037470776068005,0.5478028391796878,0.5178667256615886,0.9861108660697937,0.09455257654190063,-0.1365476250648499,61.83147430419922,-5.639848709106445,12.70114135742188,2,11060.34748325,4,2,1580907344.58865,1580903939.50652,2377,0.4626901,0,0,2938.329,10,11,1580907321.19788,11057.934574,0,14.14435,97.03889
1580907344.724137,160,0,1580907286.99823,41.20781296037784,29.0754925099451,275.2123,0.1345286,-1,23.46983528137207,200,-9999,11060.51618425,0.967498779296875,0.093109130859375,-0.1375885009765625,11060.51111825,1.70944402728476,1.433264820592564,-0.09464659357405776,0.002465049736201763,0.006950067356228828,0.004436363466084003,-0.01836287975311279,-0.001851677894592285,-0.003101825714111328,2,-0.5183791194606068,0.4037829983089061,0.5477917300826085,0.5178481386765478,0.9861241579055786,0.09450534731149673,-0.136484757065773,61.76396942138672,-5.492273330688477,12.739013671875,2,11060.34748325,4,2,1580907344.58865,1580903939.50652,2377,0.4626901,0,0,2938.329,10,11,1580907321.19788,11057.934574,0,14.14435,97.03889
1580907344.734071,161,0,1580907286.99823,41.20781296037784,29.0754925099451,275.2123,0.1345286,-1,23.46983528137207,200,-9999,11060.52622425,0.9673919677734375,0.0927886962890625,-0.1382293701171875,11060.52115825,1.709406350264685,1.433314684830765,-0.09458655970851354,0.00497348140925169,0.006079213693737984,0.00528537854552269,-0.02083206176757812,-0.00195959210395813,-0.003547072410583496,2,-0.518371040046252,0.4038233345127462,0.5477827771826677,0.5178342136816891,0.9861365556716919,0.09444558620452881,-0.1364363580942154,61.76396942138672,-5.492273330688477,12.739013671875,2,11060.34748325,4,2,1580907344.58865,1580903939.50652,2377,0.4626901,0,0,2938.329,10,11,1580907321.19788,11057.934574,0,14.14435,97.03889
1580907344.744039,162,0,1580907286.99823,41.20781296037784,29.0754925099451,275.2123,0.1345286,-1,23.46983528137207,200,-9999,11060.53626425,0.9655609130859375,0.0923614501953125,-0.138885498046875,11060.53122925,1.709374337829038,1.433406374885453,-0.09450294366605833,0.004358729347586632,0.01136785000562668,0.008282270282506943,-0.02106606960296631,-0.001479387283325195,-0.003834962844848633,2,-0.5183699823990985,0.4038799912708659,0.5477698749571918,0.5178047965192186,0.9861569404602051,0.09436234086751938,-0.1363470256328583,61.64833831787109,-5.328126907348633,12.90234375,2,11060.34748325,4,2,1580907344.58865,1580903939.50652,2377,0.4626901,0,0,2938.329,10,11,1580907321.19788,11057.934574,0,14.14435,97.03889
