loggingTime,loggingSample,identifierForVendor,locationTimestamp_since1970,locationLatitude,locationLongitude,locationAltitude,locationSpeed,locationCourse,locationVerticalAccuracy,locationHorizontalAccuracy,locationFloor,accelerometerTimestamp_sinceReboot,accelerometerAccelerationX,accelerometerAccelerationY,accelerometerAccelerationZ,motionTimestamp_sinceReboot,motionYaw,motionRoll,motionPitch,motionRotationRateX,motionRotationRateY,motionRotationRateZ,motionUserAccelerationX,motionUserAccelerationY,motionUserAccelerationZ,motionAttitudeReferenceFrame,motionQuaternionX,motionQuaternionY,motionQuaternionZ,motionQuaternionW,motionGravityX,motionGravityY,motionGravityZ,motionMagneticFieldX,motionMagneticFieldY,motionMagneticFieldZ,motionMagneticFieldCalibrationAccuracy,activityTimestamp_sinceReboot,activity,activityActivityConfidence,activityActivityStartDate,pedometerStartDate,pedometerNumberofSteps,pedometerAverageActivePace,pedometerCurrentPace,pedometerCurrentCadence,pedometerDistance,pedometerFloorAscended,pedometerFloorDescended,pedometerEndDate,altimeterTimestamp_sinceReboot,altimeterReset,altimeterRelativeAltitude,altimeterPressure
1580904889.860823,1,0,1580904337.000819,41.20701635159924,29.07533761282497,172.748,-1,-1,5.74967098236084,48.00724964208526,-9999,8605.622461625,0.969085693359375,0.098846435546875,-0.155487060546875,8605.617395625,-0.2363352561968643,1.3858200948537,-0.1113359586119641,0.00315920589491725,-9.35085117816925e-05,0.004767072387039661,-0.01258635520935059,-0.009710624814033508,0.02058291435241699,2,-0.03268102344187078,-0.6383883964408705,0.125858403941218,-0.7586513124912803,0.9768547415733337,0.1111060902476311,-0.1827844083309174,44.1402587890625,28.98992538452148,20.59066772460938,2,8605.253595625001,2,0,1580904889.494762,1580903939.50652,414,0.5962474,0,0,444.1992,1,0,1580904868.356961,8602.997883,0,2.621185,97.17264
1580904889.861689,2,0,1580904337.000819,41.20701635159924,29.07533761282497,172.748,-1,-1,5.74967098236084,48.00724964208526,-9999,8605.632501625001,0.965087890625,0.0975799560546875,-0.1635284423828125,8605.627435625,-0.2363401508654008,1.385792100989652,-0.1112807578747001,0.002686792518943548,-0.003215257078409195,0.005123591050505638,-0.008299648761749268,-0.01226499676704407,0.02688276767730713,2,-0.03270198905387113,-0.6383761677544711,0.1258433738645596,-0.7586632399691279,0.9768556952476501,0.1110512241721153,-0.18281289935112,44.1402587890625,28.98992538452148,20.59066772460938,2,8605.253595625001,2,0,1580904889.494762,1580903939.50652,414,0.5962474,0,0,444.1992,1,0,1580904868.356961,8602.997883,0,2.621185,97.17264
1580904889.86919,3,0,1580904337.000819,41.20701635159924,29.07533761282497,172.748,-1,-1,5.74967098236084,48.00724964208526,-9999,8605.642542625001,0.9637908935546875,0.09820556640625,-0.16143798828125,8605.637506625,-0.2363229827827356,1.385746796605511,-0.1112360189432519,-0.0004682540893554688,-0.006828367710113525,0.004665527492761612,-0.01229417324066162,-0.01348696649074554,0.01888662576675415,2,-0.03271081533786413,-0.6383580245458991,0.1258235468286047,-0.7586814306426388,0.9768523573875427,0.1110067665576935,-0.1828580647706985,44.05490112304688,28.84392166137695,20.62191772460938,2,8605.253595625001,2,0,1580904889.494762,1580903939.50652,414,0.5962474,0,0,444.1992,1,0,1580904868.356961,8602.997883,0,2.621185,97.17264
1580904889.885101,4,0,1580904337.000819,41.20701635159924,29.07533761282497,172.748,-1,-1,5.74967098236084,48.00724964208526,-9999,8605.652582625,0.9585418701171875,0.097076416015625,-0.1664886474609375,8605.647547625,-0.2362878513178084,1.385749070957405,-0.1112073949958257,-0.003294445108622313,-0.001640770584344864,0.003056207671761513,-0.01359462738037109,-0.01283292472362518,0.02097541093826294,2,-0.03271072904323982,-0.6383586745359751,0.1258011943148035,-0.7586845451117463,0.9768558144569397,0.1109783202409744,-0.1828564256429672,44.05490112304688,28.84392166137695,20.62191772460938,2,8605.253595625001,2,0,1580904889.494762,1580903939.50652,414,0.5962474,0,0,444.1992,1,0,1580904868.356961,8602.997883,0,2.621185,97.17264
1580904889.889348,5,0,1580904337.000819,41.20701635159924,29.07533761282497,172.748,-1,-1,5.74967098236084,48.00724964208526,-9999,8605.662622625001,0.9609527587890625,0.09844970703125,-0.16607666015625,8605.657587625001,-0.2362641025987365,1.38585391864986,-0.1111670349499793,-0.0006587146781384945,0.0103429239243269,0.004221606999635696,-0.01886719465255737,-0.01392191648483276,0.0158231258392334,2,-0.03272521714580594,-0.6383977161682822,0.1257777885230233,-0.758654989710714,0.9768794178962708,0.1109382063150406,-0.1827548295259476,43.964111328125,28.83752822875977,20.5374755859375,2,8605.253595625001,2,0,1580904889.494762,1580903939.50652,414,0.5962474,0,0,444.1992,1,0,1580904868.356961,8602.997883,0,2.621185,97.17264
1580904889.899373,6,0,1580904337.000819,41.20701635159924,29.07533761282497,172.748,-1,-1,5.74967098236084,48.00724964208526,-9999,8605.672663625,0.9651641845703125,0.09832763671875,-0.162384033203125,8605.667627625,-0.2362443478382548,1.385952794846954,-0.1111424988753897,-0.0005516544915735722,0.008006507530808449,0.001473087817430496,-0.01647710800170898,-0.01252426207065582,0.01613885164260864,2,-0.03273454522960738,-0.6384348714590715,0.1257609722865709,-0.7586260529524932,0.9769001007080078,0.1109138205647469,-0.1826587319374084,43.964111328125,28.83752822875977,20.5374755859375,2,8605.253595625001,2,0,1580904889.494762,1580903939.50652,414,0.5962474,0,0,444.1992,1,0,1580904868.356961,8602.997883,0,2.621185,97.17264
1580904889.90985,7,0,1580904337.000819,41.20701635159924,29.07533761282497,172.748,-1,-1,5.74967098236084,48.00724964208526,-9999,8605.682703625,0.965972900390625,0.0990753173828125,-0.1624908447265625,8605.677667625001,-0.2362252939565029,1.386048794460252,-0.111130565544561,-0.00199668575078249,0.009184690192341805,0.0008515063673257828,-0.01228451728820801,-0.01263448596000671,0.01973789930343628,2,-0.03273907235304081,-0.6384712646693755,0.125748422675976,-0.7585973331768054,0.9769189953804016,0.1109019592404366,-0.1825651973485947,43.97518920898438,28.82287216186523,20.65988159179688,2,8605.253595625001,2,0,1580904889.494762,1580903939.50652,414,0.5962474,0,0,444.1992,1,0,1580904868.356961,8602.997883,0,2.621185,97.17264
1580904889.919439,8,0,1580904337.000819,41.20701635159924,29.07533761282497,172.748,-1,-1,5.74967098236084,48.00724964208526,-9999,8605.692743625001,0.9662933349609375,0.0991363525390625,-0.1619873046875,8605.687708625001,-0.2362086942114779,1.386100359785476,-0.1111318045217495,-0.002226283308118582,0.003549700602889061,-9.265448898077011e-05,-0.01148533821105957,-0.01188801229000092,0.01958054304122925,2,-0.03273654402038852,-0.6384911319514144,0.1257416740555239,-0.758581805096971,0.9769282341003418,0.1109031960368156,-0.1825147867202759,43.97518920898438,28.82287216186523,20.65988159179688,2,8605.253595625001,2,0,1580904889.494762,1580903939.50652,414,0.5962474,0,0,444.1992,1,0,1580904868.356961,8602.997883,0,2.621185,97.17264
1580904889.929536,9,0,1580904337.000819,41.20701635159924,29.07533761282497,172.748,-1,-1,5.74967098236084,48.00724964208526,-9999,8605.702783625,0.96282958984375,0.099273681640625,-0.1622314453125,8605.697748625,-0.2362234334535852,1.386137425160656,-0.1111375267283899,0.002405752893537283,0.003191770985722542,-0.0007690978236496449,-0.01117098331451416,-0.01183266937732697,0.02004772424697876,2,-0.03274138683124654,-0.6385051081135806,0.125748456431733,-0.7585686977353328,0.9769343137741089,0.1109088808298111,-0.1824784576892853,44.03447723388672,28.87612724304199,20.54806518554688,2,8605.253595625001,2,0,1580904889.494762,1580903939.50652,414,0.5962474,0,0,444.1992,1,0,1580904868.356961,8602.997883,0,2.621185,97.17264
1580904889.946682,10,0,1580904337.000819,41.20701635159924,29.07533761282497,172.748,-1,-1,5.74967098236084,48.00724964208526,-9999,8605.712854625001,0.9617767333984375,0.0980224609375,-0.163116455078125,8605.707788625001,-0.2362572309121996,1.386201188685307,-0.1111564398353709,0.005152851808816195,0.005882373079657555,-0.003682935610413551,-0.01464426517486572,-0.01171417534351349,0.01974087953567505,2,-0.03274892907137429,-0.6385292582078244,0.1257661712484476,-0.7585451475443105,0.9769439697265625,0.1109276786446571,-0.182415783405304,44.03447723388672,28.87612724304199,20.54806518554688,2,8605.253595625001,2,0,1580904889.494762,1580903939.50652,414,0.5962474,0,0,444.1992,1,0,1580904868.356961,8602.997883,0,2.621185,97.17264
1580904889.949627,11,0,1580904337.000819,41.20701635159924,29.07533761282497,172.748,-1,-1,5.74967098236084,48.00724964208526,-9999,8605.722894625,0.96368408203125,0.098052978515625,-0.1624298095703125,8605.717829625,-0.2362793579511118,1.386265507237408,-0.1111760024888447,0.002293149475008249,0.006363606080412865,-0.003187853842973709,-0.01570671796798706,-0.01298484206199646,0.01879262924194336,2,-0.03275253976388519,-0.6385538323461977,0.12577965888374,-0.7585220456025491,0.9769535064697266,0.1109471172094345,-0.1823525428771973,43.98301696777344,28.9440860748291,20.68511962890625,2,8605.253595625001,2,0,1580904889.494762,1580903939.50652,414,0.5962474,0,0,444.1992,1,0,1580904868.356961,8602.997883,0,2.621185,97.17264
1580904889.95992,12,0,1580904337.000819,41.20701635159924,29.07533761282497,172.748,-1,-1,5.74967098236084,48.00724964208526,-9999,8605.732935625001,0.96630859375,0.098846435546875,-0.16082763671875,8605.727869625001,-0.2363165938846139,1.386282938550475,-0.1111932526082349,0.003538705874234438,4.843622446060181e-05,-0.003123607952147722,-0.01380050182342529,-0.01297144591808319,0.01946204900741577,2,-0.03275890717388347,-0.6385603080741495,0.125798914332563,-0.7585131520312155,0.9769548773765564,0.110964260995388,-0.1823351681232452,43.98301696777344,28.9440860748291,20.68511962890625,2,8605.253595625001,2,0,1580904889.494762,1580903939.50652,414,0.5962474,0,0,444.1992,1,0,1580904868.356961,8602.997883,0,2.621185,97.17264
1580904889.969608,13,0,1580904337.000819,41.20701635159924,29.07533761282497,172.748,-1,-1,5.74967098236084,48.00724964208526,-9999,8605.742975625,0.9665985107421875,0.0983123779296875,-0.161163330078125,8605.737909625001,-0.236365877063819,1.386279412095043,-0.1112134513272774,0.004921685438603163,0.0002348590642213821,-0.00382934557273984,-0.0111730694770813,-0.0121980756521225,0.02106720209121704,2,-0.03276668622187273,-0.6385587293065477,0.1258240165308832,-0.758509890542812,0.9769518971443176,0.1109843403100967,-0.1823381930589676,43.74518585205078,28.85083389282227,20.4544677734375,2,8605.253595625001,2,0,1580904889.494762,1580903939.50652,414,0.5962474,0,0,444.1992,1,0,1580904868.356961,8602.997883,0,2.621185,97.17264
1580904889.979813,14,0,1580904337.000819,41.20701635159924,29.07533761282497,172.748,-1,-1,5.74967098236084,48.00724964208526,-9999,8605.753015625001,0.965179443359375,0.1002655029296875,-0.1614227294921875,8605.747949625,-0.2364151525188872,1.386223629701722,-0.1112188167913172,0.004474274348467588,-0.005920505151152611,-0.001785635948181152,-0.01087230443954468,-0.0127374678850174,0.0207861065864563,2,-0.03277683693433413,-0.638536904020388,0.1258452962529417,-0.7585244181544297,0.9769412875175476,0.1109896674752235,-0.1823925971984863,43.74518585205078,28.85083389282227,20.4544677734375,2,8605.253595625001,2,0,1580904889.494762,1580903939.50652,414,0.5962474,0,0,444.1992,1,0,1580904868.356961,8602.997883,0,2.621185,97.17264
1580904889.989793,15,0,1580904337.000819,41.20701635159924,29.07533761282497,172.748,-1,-1,5.74967098236084,48.00724964208526,-9999,8605.763056625001,0.9632110595703125,0.100311279296875,-0.1607513427734375,8605.758020625,-0.2364637987285185,1.386122030384025,-0.1112054583057331,0.00454564718529582,-0.01061512622982264,-0.0002090446650981903,-0.01227426528930664,-0.01077103614807129,0.0206262469291687,2,-0.03279109813657131,-0.6384972044648681,0.1258612150488745,-0.7585545670285491,0.9769241809844971,0.1109763905405998,-0.1824921220541,43.94802093505859,28.97605895996094,20.63931274414062,2,8605.253595625001,2,0,1580904889.494762,1580903939.50652,414,0.5962474,0,0,444.1992,1,0,1580904868.356961,8602.997883,0,2.621185,97.17264
1580904890.014217,16,0,1580904337.000819,41.20701635159924,29.07533761282497,172.748,-1,-1,5.74967098236084,48.00724964208526,-9999,8605.773096625,0.9608612060546875,0.1005096435546875,-0.1627960205078125,8605.768060625,-0.2365225703326003,1.386008198559775,-0.111155657328799,0.007576472591608763,-0.01113710645586252,0.003943185321986675,-0.01422715187072754,-0.01067571341991425,0.02140998840332031,2,-0.03282180210750417,-0.6384516927278404,0.1258697311009271,-0.7585900628235988,0.9769087433815002,0.1109268963336945,-0.1826043277978897,43.94802093505859,28.97605895996094,20.63931274414062,2,8605.253595625001,2,0,1580904889.494762,1580903939.50652,414,0.5962474,0,0,444.1992,1,0,1580904868.356961,8602.997883,0,2.621185,97.17264
1580904890.015609,17,0,1580904337.000819,41.20701635159924,29.07533761282497,172.748,-1,-1,5.74967098236084,48.00724964208526,-9999,8605.783136625001,0.9666290283203125,0.09832763671875,-0.161102294921875,8605.778101625001,-0.2365969522956818,1.385884989615735,-0.1110973752498095,0.009650275111198425,-0.01238106843084097,0.003869947977364063,-0.01656091213226318,-0.01041939854621887,0.01948690414428711,2,-0.03286014281294411,-0.6384021232935271,0.1258816575735245,-0.7586281334935492,0.9768925905227661,0.110868975520134,-0.1827258765697479,43.95972442626953,28.7302188873291,20.6226806640625,2,8605.253595625001,2,0,1580904889.494762,1580903939.50652,414,0.5962474,0,0,444.1992,1,0,1580904868.356961,8602.997883,0,2.621185,97.17264
1580904890.020001,18,0,1580904337.000819,41.20701635159924,29.07533761282497,172.748,-1,-1,5.74967098236084,48.00724964208526,-9999,8605.793176625,0.9658203125,0.09735107421875,-0.1638946533203125,8605.788141625,-0.2366806342221358,1.385738799631147,-0.1110632502290011,0.008648065850138664,-0.01424445584416389,0.0009231818839907646,-0.01076996326446533,-0.01256750524044037,0.02132415771484375,2,-0.03289074194670936,-0.6383443504949342,0.1259050852657057,-0.7586715009677795,0.9768695831298828,0.1108350604772568,-0.1828693747520447,43.95972442626953,28.7302188873291,20.6226806640625,2,8605.253595625001,2,0,1580904889.494762,1580903939.50652,414,0.5962474,0,0,444.1992,1,0,1580904868.356961,8602.997883,0,2.621185,97.17264
1580904890.030039,19,0,1580904337.000819,41.20701635159924,29.07533761282497,172.748,-1,-1,5.74967098236084,48.00724964208526,-9999,8605.803217625,0.9652252197265625,0.098541259765625,-0.163970947265625,8605.798181625001,-0.2367810413406097,1.385592083043063,-0.1110516243976174,0.009378837421536446,-0.01451902836561203,-0.001627326942980289,-0.01155322790145874,-0.01353251934051514,0.01867544651031494,2,-0.03291799990463067,-0.6382867130578221,0.1259419310119314,-0.7587127723983942,0.9768440723419189,0.1108235120773315,-0.1830129474401474,43.86680603027344,28.93139266967773,20.42916870117188,2,8605.253595625001,2,0,1580904889.494762,1580903939.50652,414,0.5962474,0,0,444.1992,1,0,1580904868.356961,8602.997883,0,2.621185,97.17264
1580904890.039873,20,0,1580904337.000819,41.20701635159924,29.07533761282497,172.748,-1,-1,5.74967098236084,48.00724964208526,-9999,8605.813257625001,0.9658966064453125,0.097808837890625,-0.1619873046875,8605.808222625001,-0.2368715241358907,1.385448383152134,-0.1110441992185815,0.008343048393726349,-0.01387643348425627,-0.0006263619288802147,-0.0121227502822876,-0.0123349130153656,0.01873987913131714,2,-0.03294067206116794,-0.6382305010952863,0.1259762902115691,-0.7587533821717741,0.9768185615539551,0.11081612855196,-0.1831534802913666,43.86680603027344,28.93139266967773,20.42916870117188,2,8605.253595625001,2,0,1580904889.494762,1580903939.50652,414,0.5962474,0,0,444.1992,1,0,1580904868.356961,8602.997883,0,2.621185,97.17264
1580904890.050159,21,0,1580904337.000819,41.20701635159924,29.07533761282497,172.748,-1,-1,5.74967098236084,48.00724964208526,-9999,8605.823297625,0.9619598388671875,0.0988311767578125,-0.1645965576171875,8605.818262625,-0.2369705601581063,1.385339013508757,-0.1110321880869069,0.01023575849831104,-0.009958390146493912,-0.000793075654655695,-0.01143258810043335,-0.01305541396141052,0.02083063125610352,2,-0.03296999378372555,-0.6381870433214517,0.1260118938600749,-0.7587827350128812,0.9767998456954956,0.1108041927218437,-0.1832605600357056,43.95293426513672,28.96689224243164,20.49163818359375,2,8605.253595625001,2,0,1580904889.494762,1580903939.50652,414,0.5962474,0,0,444.1992,1,0,1580904868.356961,8602.997883,0,2.621185,97.17264
1580904890.079057,22,0,1580904337.000819,41.20701635159924,29.07533761282497,172.748,-1,-1,5.74967098236084,48.00724964208526,-9999,8605.833368625001,0.9616851806640625,0.1000823974609375,-0.1640625,8605.828302625001,-0.237045483368986,1.385242165260567,-0.1110034213129425,0.007208711933344603,-0.009841716848313808,0.0001023132354021072,-0.01535475254058838,-0.01200446486473083,0.01831656694412231,2,-0.03299884502568752,-0.6381482717523544,0.1260328902135529,-0.7588104973254072,0.9767851233482361,0.1107756048440933,-0.1833557188510895,43.95293426513672,28.96689224243164,20.49163818359375,2,8605.253595625001,2,0,1580904889.494762,1580903939.50652,414,0.5962474,0,0,444.1992,1,0,1580904868.356961,8602.997883,0,2.621185,97.17264
1580904890.081011,23,0,1580904337.000819,41.20701635159924,29.07533761282497,172.748,-1,-1,5.74967098236084,48.00724964208526,-9999,8605.843408625,0.9610137939453125,0.1004638671875,-0.1647186279296875,8605.838342625,-0.2370949589758438,1.385143124435836,-0.1109460345460668,0.004856608342379332,-0.01084972359240055,0.003517284989356995,-0.01561737060546875,-0.0106961578130722,0.01894891262054443,2,-0.03303038275149313,-0.6381082647659081,0.1260352645446099,-0.7588425467971411,0.9767733812332153,0.1107185706496239,-0.1834536790847778,44.02523040771484,29.0583324432373,20.46612548828125,2,8605.253595625001,2,0,1580904889.494762,1580903939.50652,414,0.5962474,0,0,444.1992,1,0,1580904868.356961,8602.997883,0,2.621185,97.17264
1580904890.082458,24,0,1580904337.000819,41.20701635159924,29.07533761282497,172.748,-1,-1,5.74967098236084,48.00724964208526,-9999,8605.853449625001,0.96209716796875,0.0999755859375,-0.164764404296875,8605.848383625,-0.2371531087195294,1.38505657906107,-0.1108494509948672,0.007727596443146467,-0.008808955550193787,0.00784722063690424,-0.01628333330154419,-0.01021865010261536,0.01837927103042603,2,-0.03308053461822091,-0.6380717749882531,0.1260284327813676,-0.7588721594334831,0.9767680168151855,0.1106225773692131,-0.1835401803255081,44.02523040771484,29.0583324432373,20.46612548828125,2,8605.253595625001,2,0,1580904889.494762,1580903939.50652,414,0.5962474,0,0,444.1992,1,0,1580904868.356961,8602.997883,0,2.621185,97.17264
1580904890.090345,25,0,1580904337.000819,41.20701635159924,29.07533761282497,172.748,-1,-1,5.74967098236084,48.00724964208526,-9999,8605.863489625001,0.9624786376953125,0.098663330078125,-0.1624755859375,8605.858423625001,-0.2372004582839725,1.384941132174029,-0.1107246551710494,0.007093764375895262,-0.01158077362924814,0.01217858586460352,-0.01519221067428589,-0.01058280467987061,0.01844882965087891,2,-0.03313625471667024,-0.6380237118209934,0.1260091345954683,-0.7589132297736013,0.97676020860672,0.1104985475540161,-0.1836554706096649,43.98967742919922,28.80227851867676,20.33139038085938,2,8605.253595625001,2,0,1580904889.494762,1580903939.50652,414,0.5962474,0,0,444.1992,1,0,1580904868.356961,8602.997883,0,2.621185,97.17264
1580904890.100229,26,0,1580904337.000819,41.20701635159924,29.07533761282497,172.748,-1,-1,5.74967098236084,48.00724964208526,-9999,8605.873529625,0.962921142578125,0.0954132080078125,-0.164947509765625,8605.868463625,-0.2372415193127737,1.384811945557693,-0.1106254347966632,0.005731930490583181,-0.01495234295725822,0.009184295311570168,-0.0147976279258728,-0.01179637014865875,0.02086621522903442,2,-0.03317926438485951,-0.6379712259689662,0.1259956975134393,-0.7589578325033949,0.9767473936080933,0.1103999316692352,-0.183783695101738,43.98967742919922,28.80227851867676,20.33139038085938,2,8605.253595625001,2,0,1580904889.494762,1580903939.50652,414,0.5962474,0,0,444.1992,1,0,1580904868.356961,8602.997883,0,2.621185,97.17264
1580904890.110319,27,0,1580904337.000819,41.20701635159924,29.07533761282497,172.748,-1,-1,5.74967098236084,48.00724964208526,-9999,8605.883569625001,0.96514892578125,0.096038818359375,-0.1660308837890625,8605.878534625001,-0.2372888737611925,1.384734361658048,-0.1105778601679561,0.006541797425597906,-0.007108267396688461,0.00284916814416647,-0.01434594392776489,-0.01499921083450317,0.01847106218338013,2,-0.03320774330523114,-0.6379396742229836,0.1260000249895044,-0.7589823134058495,0.9767382144927979,0.1103526502847672,-0.1838604360818863,44.02042388916016,28.84515762329102,20.35409545898438,2,8605.253595625001,2,0,1580904889.494762,1580903939.50652,414,0.5962474,0,0,444.1992,1,0,1580904868.356961,8602.997883,0,2.621185,97.17264
1580904890.13297,28,0,1580904337.000819,41.20701635159924,29.07533761282497,172.748,-1,-1,5.74967098236084,48.00724964208526,-9999,8605.893610625,0.9672088623046875,0.095062255859375,-0.1634063720703125,8605.888574625,-0.2373308076339319,1.384660105459452,-0.1106080845849701,0.003491729032248259,-0.008291203528642654,-0.004262859001755714,-0.01210123300552368,-0.01440362632274628,0.01745957136154175,2,-0.03320484425603488,-0.6379116439318337,0.1260266601620108,-0.7590015729733484,0.9767212867736816,0.1103826910257339,-0.1839323490858078,44.02042388916016,28.84515762329102,20.35409545898438,2,8605.253595625001,2,0,1580904889.494762,1580903939.50652,414,0.5962474,0,0,444.1992,1,0,1580904868.356961,8602.997883,0,2.621185,97.17264
1580904890.134343,29,0,1580904337.000819,41.20701635159924,29.07533761282497,172.748,-1,-1,5.74967098236084,48.00724964208526,-9999,8605.903650625001,0.9659576416015625,0.0950775146484375,-0.1669464111328125,8605.898615625001,-0.2373717916632899,1.38465796874239,-0.1107080302057914,0.001706345472484827,7.298775017261505e-05,-0.01069519203156233,-0.01003003120422363,-0.01547959446907043,0.0200842022895813,2,-0.03317943164001093,-0.6379129464819668,0.1260736217840383,-0.758993816344099,0.9767100811004639,0.1104820221662521,-0.1839323937892914,43.9656982421875,28.76093292236328,20.38595581054688,2,8605.253595625001,2,0,1580904889.494762,1580903939.50652,414,0.5962474,0,0,444.1992,1,0,1580904868.356961,8602.997883,0,2.621185,97.17264
1580904890.140472,30,0,1580904337.000819,41.20701635159924,29.07533761282497,172.748,-1,-1,5.74967098236084,48.00724964208526,-9999,8605.913690625001,0.96612548828125,0.0970001220703125,-0.1646881103515625,8605.908655625,-0.2373827473394796,1.38470249579635,-0.1108453879320325,-0.002242931630462408,0.002866353839635849,-0.01485977508127689,-0.01127439737319946,-0.01560087502002716,0.01649796962738037,2,-0.03313302782760164,-0.6379334994082364,0.1261201571735734,-0.7589708777288288,0.976703405380249,0.1106185391545296,-0.1838861107826233,43.9656982421875,28.76093292236328,20.38595581054688,2,8605.253595625001,2,0,1580904889.494762,1580903939.50652,414,0.5962474,0,0,444.1992,1,0,1580904868.356961,8602.997883,0,2.621185,97.17264
1580904890.15054,31,0,1580904337.000819,41.20701635159924,29.07533761282497,172.748,-1,-1,5.74967098236084,48.00724964208526,-9999,8605.923731625,0.959869384765625,0.1001434326171875,-0.165496826171875,8605.918695625001,-0.2373736382039578,1.38480427696304,-0.1109851354806004,-0.003480236046016216,0.009024647995829582,-0.01520492136478424,-0.01111006736755371,-0.01381723582744598,0.0186539888381958,2,-0.03308292860280194,-0.6379761797846767,0.1261588878282272,-0.7589307219500736,0.976706862449646,0.1107574254274368,-0.1837838292121887,44.05190277099609,28.84507751464844,20.57583618164062,2,8605.253595625001,2,0,1580904889.494762,1580903939.50652,414,0.5962474,0,0,444.1992,1,0,1580904868.356961,8602.997883,0,2.621185,97.17264
1580904890.160736,32,0,1580904337.000819,41.20701635159924,29.07533761282497,172.748,-1,-1,5.74967098236084,48.00724964208526,-9999,8605.933771625001,0.955108642578125,0.1006927490234375,-0.165863037109375,8605.928736625001,-0.2373688816138158,1.384990212034252,-0.1110700487040696,-0.00261631840839982,0.0186432059854269,-0.008490012958645821,-0.01739108562469482,-0.01075838506221771,0.01766175031661987,2,-0.03306056298226219,-0.6380491803292034,0.1261806659487292,-0.7588667163722552,0.9767317771911621,0.1108418181538582,-0.1836004853248596,44.05190277099609,28.84507751464844,20.57583618164062,2,8605.253595625001,2,0,1580904889.494762,1580903939.50652,414,0.5962474,0,0,444.1992,1,0,1580904868.356961,8602.997883,0,2.621185,97.17264
1580904890.170401,33,0,1580904337.000819,41.20701635159924,29.07533761282497,172.748,-1,-1,5.74967098236084,48.00724964208526,-9999,8605.943811625,0.96142578125,0.101776123046875,-0.164154052734375,8605.938776625,-0.2373683150935448,1.385194178585929,-0.111063211442278,-0.0002069566398859024,0.01954761333763599,0.0008406387642025948,-0.02219003438949585,-0.01020224392414093,0.01709640026092529,2,-0.03307587347807218,-0.6381263876109086,0.1261749319943132,-0.7588020777079467,0.9767699241638184,0.1108350232243538,-0.1834014058113098,43.96744537353516,28.74130630493164,20.53182983398438,2,8605.253595625001,2,0,1580904889.494762,1580903939.50652,414,0.5962474,0,0,444.1992,1,0,1580904868.356961,8602.997883,0,2.621185,97.17264
1580904890.192683,34,0,1580904337.000819,41.20701635159924,29.07533761282497,172.748,-1,-1,5.74967098236084,48.00724964208526,-9999,8605.95388275,0.963226318359375,0.1001129150390625,-0.16375732421875,8605.94881675,-0.2373672441915593,1.385391340173826,-0.1109827076143271,0.001044610980898142,0.01850548014044762,0.008493376895785332,-0.01591777801513672,-0.009038835763931274,0.01861435174942017,2,-0.03311885386528406,-0.6381989635055251,0.1261459857299969,-0.7587439316659871,0.9768148064613342,0.110755018889904,-0.1832104474306107,43.96744537353516,28.74130630493164,20.53182983398438,2,8605.253595625001,2,0,1580904889.494762,1580903939.50652,414,0.5962474,0,0,444.1992,1,0,1580904868.356961,8602.997883,0,2.621185,97.17264
1580904890.193902,35,0,1580904337.000819,41.20701635159924,29.07533761282497,172.748,-1,-1,5.74967098236084,48.00724964208526,-9999,8605.963922750001,0.9697723388671875,0.0996246337890625,-0.160888671875,8605.958856750001,-0.237382887960727,1.385533594700629,-0.1108816624579417,0.003452108707278967,0.0146833099424839,0.009234001860022545,-0.01415437459945679,-0.01060155034065247,0.01887416839599609,2,-0.03317156403976189,-0.6382498432135801,0.126117822956215,-0.7587035926766379,0.9768519401550293,0.1106545925140381,-0.183073565363884,43.99452209472656,29.06987953186035,20.54391479492188,2,8605.253595625001,2,0,1580904889.494762,1580903939.50652,414,0.5962474,0,0,444.1992,1,0,1580904868.356961,8602.997883,0,2.621185,97.17264
1580904890.200646,36,0,1580904337.000819,41.20701635159924,29.07533761282497,172.748,-1,-1,5.74967098236084,48.00724964208526,-9999,8605.973963750001,0.9738922119140625,0.0992889404296875,-0.15850830078125,8605.968897750001,-0.2373646524625007,1.385536336402438,-0.1107687997458251,-0.0009934613481163979,-0.0003398526459932327,0.01095572486519814,-0.007621288299560547,-0.01097765564918518,0.02174210548400879,2,-0.03320921777127089,-0.6382480431424804,0.1260754193408081,-0.758710400789683,0.9768645763397217,0.1105424240231514,-0.1830731630325317,43.99452209472656,29.06987953186035,20.54391479492188,2,8605.253595625001,2,0,1580904889.494762,1580903939.50652,414,0.5962474,0,0,444.1992,1,0,1580904868.356961,8602.997883,0,2.621185,97.17264
1580904890.210686,37,0,1580904337.000819,41.20701635159924,29.07533761282497,172.748,-1,-1,5.74967098236084,48.00724964208526,-9999,8605.98400375,0.9744110107421875,0.0988616943359375,-0.16064453125,8605.97893775,-0.2373420161334205,1.385452023782163,-0.110661608744825,0.0003647506237030029,-0.009168763644993305,0.01009206287562847,-0.003497540950775146,-0.01120674610137939,0.02420699596405029,2,-0.03323779622243857,-0.6382134413729571,0.1260345683984375,-0.7587450159500793,0.9768607616424561,0.110435888171196,-0.1831576973199844,44.05782318115234,28.91092300415039,20.51690673828125,2,8605.253595625001,2,0,1580904889.494762,1580903939.50652,414,0.5962474,0,0,444.1992,1,0,1580904868.356961,8602.997883,0,2.621185,97.17264
1580904890.220674,38,0,1580904337.000819,41.20701635159924,29.07533761282497,172.748,-1,-1,5.74967098236084,48.00724964208526,-9999,8605.994043750001,0.973846435546875,0.0992584228515625,-0.1581268310546875,8605.988977750001,-0.2373070251690481,1.38525495364773,-0.1105744837523837,-0.002620301209390163,-0.0206296518445015,0.008738494478166103,-0.002952098846435547,-0.01154734194278717,0.02226525545120239,2,-0.03324763183757863,-0.638136820546549,0.1259972066153239,-0.7588152380524722,0.9768341183662415,0.1103492975234985,-0.183351993560791,44.05782318115234,28.91092300415039,20.51690673828125,2,8605.253595625001,2,0,1580904889.494762,1580903939.50652,414,0.5962474,0,0,444.1992,1,0,1580904868.356961,8602.997883,0,2.621185,97.17264
1580904890.230787,39,0,1580904337.000819,41.20701635159924,29.07533761282497,172.748,-1,-1,5.74967098236084,48.00724964208526,-9999,8606.00408375,0.9703521728515625,0.1016998291015625,-0.15966796875,8605.99901775,-0.2373085485921665,1.384911960052286,-0.1104812809181034,0.001503870356827974,-0.03670156002044678,0.008675645105540752,-0.003463864326477051,-0.01105794310569763,0.02512001991271973,2,-0.03326226330302726,-0.638004042361895,0.1259742206167285,-0.758930071981737,0.9767813086509705,0.1102566570043564,-0.1836889237165451,43.99667358398438,29.04407691955566,20.318603515625,2,8605.253595625001,2,0,1580904889.494762,1580903939.50652,414,0.5962474,0,0,444.1992,1,0,1580904868.356961,8602.997883,0,2.621185,97.17264
1580904890.24769,40,0,1580904337.000819,41.20701635159924,29.07533761282497,172.748,-1,-1,5.74967098236084,48.00724964208526,-9999,8606.014124750001,0.9678192138671875,0.1002197265625,-0.1646270751953125,8606.009088750001,-0.2373889244003587,1.384531352430366,-0.1103984854320396,0.01079783216118813,-0.03757563978433609,0.005305924452841282,-0.006897032260894775,-0.00853419303894043,0.02395254373550415,2,-0.03329569749520056,-0.6378559513879348,0.125985066815337,-0.7590512284611632,0.9767202138900757,0.110174372792244,-0.1840623617172241,43.99667358398438,29.04407691955566,20.318603515625,2,8605.253595625001,2,0,1580904889.494762,1580903939.50652,414,0.5962474,0,0,444.1992,1,0,1580904868.356961,8602.997883,0,2.621185,97.17264
1580904890.251385,41,0,1580904337.000819,41.20701635159924,29.07533761282497,172.748,-1,-1,5.74967098236084,48.00724964208526,-9999,8606.024164750001,0.9635162353515625,0.0992431640625,-0.1638336181640625,8606.019129750001,-0.2374650501509296,1.384130208955132,-0.1103099741566792,0.007902177050709724,-0.03966142609715462,0.007639918476343155,-0.009365439414978027,-0.009926244616508484,0.01938748359680176,2,-0.03332865857669474,-0.6376999377006868,0.1259928571279643,-0.7591796397161513,0.9766559600830078,0.1100863963365555,-0.1844559758901596,43.95791625976562,28.98751640319824,20.3587646484375,2,8605.253595625001,2,0,1580904889.494762,1580903939.50652,414,0.5962474,0,0,444.1992,1,0,1580904868.356961,8602.997883,0,2.621185,97.17264
1580904890.26111,42,0,1580904337.000819,41.20701635159924,29.07533761282497,172.748,-1,-1,5.74967098236084,48.00724964208526,-9999,8606.03420475,0.958648681640625,0.10284423828125,-0.16693115234375,8606.02916975,-0.2375719619609495,1.383739480354317,-0.110157280041641,0.01334343291819096,-0.03893064334988594,0.01263849996030331,-0.01361286640167236,-0.01075099408626556,0.0205656886100769,2,-0.03339673549660732,-0.637545538845548,0.1259920505406875,-0.7593064084718066,0.9766002893447876,0.1099346280097961,-0.1848406940698624,43.95791625976562,28.98751640319824,20.3587646484375,2,8605.253595625001,2,0,1580904889.494762,1580903939.50652,414,0.5962474,0,0,444.1992,1,0,1580904868.356961,8602.997883,0,2.621185,97.17264
1580904890.270895,43,0,1580904337.000819,41.20701635159924,29.07533761282497,172.748,-1,-1,5.74967098236084,48.00724964208526,-9999,8606.044245750001,0.958404541015625,0.103973388671875,-0.1661224365234375,8606.039209750001,-0.237737004334985,1.383361947407037,-0.1099045412973762,0.02088337391614914,-0.03539849072694778,0.0209552850574255,-0.01843780279159546,-0.006898596882820129,0.01784211397171021,2,-0.03352257168283752,-0.6373923174188768,0.125981743792866,-0.7594311850738238,0.9765576720237732,0.1096834167838097,-0.1852145344018936,44.14591217041016,28.90861320495605,20.41586303710938,2,8605.253595625001,2,0,1580904889.494762,1580903939.50652,414,0.5962474,0,0,444.1992,1,0,1580904868.356961,8602.997883,0,2.621185,97.17264
1580904890.280931,44,0,1580904337.000819,41.20701635159924,29.07533761282497,172.748,-1,-1,5.74967098236084,48.00724964208526,-9999,8606.05428575,0.96533203125,0.1044464111328125,-0.159149169921875,8606.04924975,-0.2379581583373246,1.382799903122151,-0.1095719194719804,0.03005147725343704,-0.05614528805017471,0.02556607872247696,-0.01861351728439331,-0.005438640713691711,0.01920676231384277,2,-0.03368533663895194,-0.6371657593146025,0.1259708544601766,-0.7596158719658996,0.9764891862869263,0.1093527972698212,-0.185770183801651,44.14591217041016,28.90861320495605,20.41586303710938,2,8605.253595625001,2,0,1580904889.494762,1580903939.50652,414,0.5962474,0,0,444.1992,1,0,1580904868.356961,8602.997883,0,2.621185,97.17264
1580904890.292631,45,0,1580904337.000819,41.20701635159924,29.07533761282497,172.748,-1,-1,5.74967098236084,48.00724964208526,-9999,8606.06432575,0.9524078369140625,0.1020355224609375,-0.16558837890625,8606.059290750001,-0.2381564686600032,1.382114362937255,-0.1091251940648794,0.02855584397912025,-0.06921262294054031,0.03810131177306175,-0.01160627603530884,-0.004521280527114868,0.02685904502868652,2,-0.03387686704689943,-0.6368893116665479,0.1259177056622036,-0.7598480321677453,0.9764095544815063,0.1089087426662445,-0.186448723077774,44.19387817382812,29.12596321105957,20.32156372070312,2,8605.253595625001,2,0,1580904889.494762,1580903939.50652,414,0.5962474,0,0,444.1992,1,0,1580904868.356961,8602.997883,0,2.621185,97.17264
1580904890.304026,46,0,1580904337.000819,41.20701635159924,29.07533761282497,172.748,-1,-1,5.74967098236084,48.00724964208526,-9999,8606.07439675,0.9406585693359375,0.100616455078125,-0.177093505859375,8606.069330750001,-0.238338837722691,1.381577915167672,-0.1085547350543099,0.0267802570015192,-0.05563822388648987,0.05216262489557266,-0.02449119091033936,-0.006364807486534119,0.02095550298690796,2,-0.03412027361341319,-0.6366661043086068,0.1258173309866158,-0.7600408448616167,0.9763703346252441,0.1083416566252708,-0.1869841516017914,44.19387817382812,29.12596321105957,20.32156372070312,2,8605.253595625001,2,0,1580904889.494762,1580903939.50652,414,0.5962474,0,0,444.1992,1,0,1580904868.356961,8602.997883,0,2.621185,97.17264
1580904890.311534,47,0,1580904337.000819,41.20701635159924,29.07533761282497,172.748,-1,-1,5.74967098236084,48.00724964208526,-9999,8606.084436750001,0.9420166015625,0.0958404541015625,-0.18060302734375,8606.07937075,-0.2385782299412857,1.381425779234855,-0.1079032343598701,0.03680146858096123,-0.01206810865551233,0.05972254276275635,-0.0362812876701355,-0.007135853171348572,0.009612023830413818,2,-0.03443718894183072,-0.6365855186491201,0.1257067744501807,-0.7601122213592391,0.9764108657836914,0.1076939702033997,-0.1871459186077118,43.94668579101562,28.79962539672852,20.43402099609375,2,8605.253595625001,2,0,1580904889.494762,1580903939.50652,414,0.5962474,0,0,444.1992,1,0,1580904868.356961,8602.997883,0,2.621185,97.17264
1580904890.32108,48,0,1580904337.000819,41.20701635159924,29.07533761282497,172.748,-1,-1,5.74967098236084,48.00724964208526,-9999,8606.09447675,0.9563140869140625,0.094390869140625,-0.17181396484375,8606.089411750001,-0.2388083134957665,1.38150419408962,-0.1072610612291305,0.03309126943349838,0.00954660028219223,0.05784200876951218,-0.03500574827194214,-0.0112730860710144,0.006038844585418701,2,-0.03476202454819116,-0.6365928323549636,0.1255916275347007,-0.7601103918754721,0.9764932990074158,0.1070555076003075,-0.1870823353528976,43.94668579101562,28.79962539672852,20.43402099609375,2,8605.253595625001,2,0,1580904889.494762,1580903939.50652,414,0.5962474,0,0,444.1992,1,0,1580904868.356961,8602.997883,0,2.621185,97.17264
1580904890.331092,49,0,1580904337.000819,41.20701635159924,29.07533761282497,172.748,-1,-1,5.74967098236084,48.00724964208526,-9999,8606.10451775,0.9604034423828125,0.0978240966796875,-0.169464111328125,8606.09945175,-0.2390996121528487,1.381665908317188,-0.1066320771727078,0.04150313138961792,0.01782689988613129,0.0558592900633812,-0.02080452442169189,-0.01209692656993866,0.01468253135681152,2,-0.03510649285762582,-0.6366309852862796,0.1255023880415559,-0.7600773593863335,0.9765895009040833,0.1064301207661629,-0.1869370490312576,44.06943511962891,28.84836959838867,20.19607543945312,2,8605.253595625001,2,0,1580904889.494762,1580903939.50652,414,0.5962474,0,0,444.1992,1,0,1580904868.356961,8602.997883,0,2.621185,97.17264
1580904890.341734,50,0,1580904337.000819,41.20701635159924,29.07533761282497,172.748,-1,-1,5.74967098236084,48.00724964208526,-9999,8606.114557750001,0.9557342529296875,0.0951995849609375,-0.1698455810546875,8606.109491750001,-0.2393926375407648,1.381888262979562,-0.1059879914089231,0.04100051894783974,0.02364565618336201,0.05690326541662216,-0.01682418584823608,-0.008022919297218323,0.01682782173156738,2,-0.03546108455014181,-0.6366915597977995,0.125407933919757,-0.7600258025927621,0.9766982197761536,0.1057896688580513,-0.1867327392101288,44.06948089599609,28.66858100891113,20.17312622070312,2,8605.253595625001,2,0,1580904889.494762,1580903939.50652,414,0.5962474,0,0,444.1992,1,0,1580904868.356961,8602.997883,0,2.621185,97.17264
1580904890.352557,51,0,1580904337.000819,41.20701635159924,29.07533761282497,172.748,-1,-1,5.74967098236084,48.00724964208526,-9999,8606.12459775,0.9477386474609375,0.100006103515625,-0.1699981689453125,8606.119531750001,-0.2396796461957724,1.382215343937199,-0.1052300921684015,0.04279069602489471,0.0342482328414917,0.06935087591409683,-0.02163302898406982,-0.009893357753753662,0.01614153385162354,2,-0.03586401496376991,-0.6367885546231702,0.1252735615455372,-0.7599476722072412,0.9768375754356384,0.1050359904766083,-0.1864282190799713,44.06948089599609,28.66858100891113,20.17312622070312,2,8605.253595625001,2,0,1580904889.494762,1580903939.50652,414,0.5962474,0,0,444.1992,1,0,1580904868.356961,8602.997883,0,2.621185,97.17264
1580904890.367976,52,0,1580904337.000819,41.20701635159924,29.07533761282497,172.748,-1,-1,5.74967098236084,48.00724964208526,-9999,8606.13463875,0.9408416748046875,0.1004638671875,-0.1739349365234375,8606.129602750001,-0.2399999628747641,1.382742594112768,-0.1043660746047901,0.04781204089522362,0.05361635982990265,0.07868903875350952,-0.02981555461883545,-0.00422707200050354,0.01549065113067627,2,-0.036330735547175,-0.6369576457935128,0.1251147771574633,-0.7598100240972487,0.9770246148109436,0.1041767150163651,-0.185930073261261,44.13414764404297,28.68160057067871,20.24807739257812,2,8605.253595625001,2,0,1580904889.494762,1580903939.50652,414,0.5962474,0,0,444.1992,1,0,1580904868.356961,8602.997883,0,2.621185,97.17264
1580904890.371445,53,0,1580904337.000819,41.20701635159924,29.07533761282497,172.748,-1,-1,5.74967098236084,48.00724964208526,-9999,8606.144678750001,0.9488067626953125,0.092376708984375,-0.176239013671875,8606.13964275,-0.2402970280128305,1.38356493160894,-0.1034120854075779,0.04554595798254013,0.08625872433185577,0.09065888077020645,-0.03696221113204956,-0.002819910645484924,0.01076871156692505,2,-0.03684291056516774,-0.637236297774492,0.1249132453293472,-0.7595849381720845,0.9772745370864868,0.1032278686761856,-0.1851450055837631,44.13414764404297,28.68160057067871,20.24807739257812,2,8605.253595625001,2,0,1580904889.494762,1580903939.50652,414,0.5962474,0,0,444.1992,1,0,1580904868.356961,8602.997883,0,2.621185,97.17264
1580904890.381691,54,0,1580904337.000819,41.20701635159924,29.07533761282497,172.748,-1,-1,5.74967098236084,48.00724964208526,-9999,8606.15471875,0.9666290283203125,0.087890625,-0.1699981689453125,8606.14968375,-0.2405557354017275,1.384532317910022,-0.1024404523961466,0.04182630032300949,0.1002925038337708,0.09329666197299957,-0.02927398681640625,-0.009940087795257568,0.007536947727203369,2,-0.03735852108329407,-0.6375698833775764,0.124688500530062,-0.75931657084144,0.9775511026382446,0.1022613793611526,-0.1842179745435715,44.15457153320312,28.41117286682129,20.22528076171875,2,8605.253595625001,2,0,1580904889.494762,1580903939.50652,414,0.5962474,0,0,444.1992,1,0,1580904868.356961,8602.997883,0,2.621185,97.17264
1580904890.391647,55,0,1580904337.000819,41.20701635159924,29.07533761282497,172.748,-1,-1,5.74967098236084,48.00724964208526,-9999,8606.164758750001,0.9836273193359375,0.0823974609375,-0.1595611572265625,8606.159723750001,-0.240748216624426,1.385403254269778,-0.1015871500332728,0.03345385193824768,0.08990643918514252,0.08037553727626801,-0.01169699430465698,-0.01357677578926086,0.01294219493865967,2,-0.03780139670186723,-0.6378712963509908,0.1244771377803217,-0.7590761235779917,0.9777965545654297,0.1014125123620033,-0.1833825260400772,44.15457153320312,28.41117286682129,20.22528076171875,2,8605.253595625001,2,0,1580904889.494762,1580903939.50652,414,0.5962474,0,0,444.1992,1,0,1580904868.356961,8602.997883,0,2.621185,97.17264
1580904890.402037,56,0,1580904337.000819,41.20701635159924,29.07533761282497,172.748,-1,-1,5.74967098236084,48.00724964208526,-9999,8606.174799750001,0.9882049560546875,0.0852508544921875,-0.1540985107421875,8606.16976375,-0.2408586565252096,1.386005663372585,-0.1008667699873837,0.02372812665998936,0.06045828014612198,0.06895288079977036,0.005119383335113525,-0.01835286617279053,0.02280336618423462,2,-0.03815025659028808,-0.6380761149208711,0.1242811812029957,-0.7589187191681853,0.977978527545929,0.1006958186626434,-0.1828068643808365,44.08303070068359,28.53992462158203,20.18911743164062,2,8605.253595625001,2,0,1580904889.494762,1580903939.50652,414,0.5962474,0,0,444.1992,1,0,1580904868.356961,8602.997883,0,2.621185,97.17264
1580904890.420018,57,0,1580904337.000819,41.20701635159924,29.07533761282497,172.748,-1,-1,5.74967098236084,48.00724964208526,-9999,8606.18483975,0.9812164306640625,0.087860107421875,-0.158538818359375,8606.17980475,-0.2409767047968639,1.38635056388252,-0.1002311258468561,0.02318111248314381,0.03255528211593628,0.05921129882335663,0.0095711350440979,-0.01486670970916748,0.02793997526168823,2,-0.03845299764219548,-0.6381855218481802,0.1241195177592265,-0.7588377609707652,0.9781040549278259,0.1000633835792542,-0.1824812144041061,44.08303070068359,28.53992462158203,20.18911743164062,2,8605.253595625001,2,0,1580904889.494762,1580903939.50652,414,0.5962474,0,0,444.1992,1,0,1580904868.356961,8602.997883,0,2.621185,97.17264
1580904890.457697,58,0,1580904337.000819,41.20701635159924,29.07533761282497,172.748,-1,-1,5.74967098236084,48.00724964208526,-9999,8606.19491075,0.9657745361328125,0.089202880859375,-0.158294677734375,8606.189844750001,-0.2411053688712031,1.386556616083551,-0.09956034926878939,0.02466057427227497,0.02014306001365185,0.061191376298666,0.002479195594787598,-0.01158969104290009,0.02331024408340454,2,-0.03876390619210322,-0.638240861264568,0.1239534041299379,-0.7588025549081158,0.9782074093818665,0.09939595311880112,-0.1822919249534607,44.04128265380859,28.48298645019531,20.14364624023438,2,8605.253595625001,2,0,1580904889.494762,1580903939.50652,414,0.5962474,0,0,444.1992,1,0,1580904868.356961,8602.997883,0,2.621185,97.17264
1580904890.45961,59,0,1580904337.000819,41.20701635159924,29.07533761282497,172.748,-1,-1,5.74967098236084,48.00724964208526,-9999,8606.20495075,0.947174072265625,0.099945068359375,-0.1663055419921875,8606.19988475,-0.241238090592643,1.386774691774038,-0.09871431919121978,0.02859060280025005,0.02132230810821056,0.0814947783946991,-0.01308488845825195,-0.009404584765434265,0.02335631847381592,2,-0.03914395871387605,-0.6382952157124306,0.1237333874380111,-0.7587733033993728,0.9783295392990112,0.09855407476425171,-0.182093933224678,44.04128265380859,28.48298645019531,20.14364624023438,2,8605.253595625001,2,0,1580904889.494762,1580903939.50652,414,0.5962474,0,0,444.1992,1,0,1580904868.356961,8602.997883,0,2.621185,97.17264
1580904890.461063,60,0,1580904337.000819,41.20701635159924,29.07533761282497,172.748,-1,-1,5.74967098236084,48.00724964208526,-9999,8606.214990750001,0.947113037109375,0.0926513671875,-0.1705322265625,8606.209924750001,-0.241421074593258,1.387211533122635,-0.09778231804407957,0.03494841977953911,0.04713898897171021,0.08881847560405731,-0.03185474872589111,0.002265647053718567,0.01493459939956665,2,-0.03958644535711033,-0.638428767084031,0.1235009625276759,-0.7586759023497502,0.9784989953041077,0.09762656688690186,-0.1816832423210144,44.18540954589844,28.32305717468262,20.0855712890625,2,8605.253595625001,2,0,1580904889.494762,1580903939.50652,414,0.5962474,0,0,444.1992,1,0,1580904868.356961,8602.997883,0,2.621185,97.17264
1580904890.462532,61,0,1580904337.000819,41.20701635159924,29.07533761282497,172.748,-1,-1,5.74967098236084,48.00724964208526,-9999,8606.22503175,0.963531494140625,0.0810546875,-0.1634368896484375,8606.21996575,-0.2416240575894814,1.387753705739526,-0.09686716765803488,0.03772077336907387,0.05778443813323975,0.08632442355155945,-0.03210145235061646,-0.004116728901863098,0.01019352674484253,2,-0.04003524635670296,-0.6386021705200182,0.1232791160461437,-0.7585424981547058,0.9786847829818726,0.09671574831008911,-0.1811688989400864,44.18540954589844,28.32305717468262,20.0855712890625,2,8605.253595625001,2,0,1580904889.494762,1580903939.50652,414,0.5962474,0,0,444.1992,1,0,1580904868.356961,8602.997883,0,2.621185,97.17264
1580904890.463979,62,0,1580904337.000819,41.20701635159924,29.07533761282497,172.748,-1,-1,5.74967098236084,48.00724964208526,-9999,8606.235071750001,0.97705078125,0.0787353515625,-0.1549530029296875,8606.23000575,-0.2417891622132851,1.388172634295893,-0.09602219263356632,0.03198255226016045,0.04464227706193924,0.07955530285835266,-0.01583898067474365,-0.01487191021442413,0.01689332723617554,2,-0.04043736592306624,-0.6387315492101792,0.1230672496534682,-0.7584466284902854,0.9788405895233154,0.09587470442056656,-0.1807736605405807,44.17819976806641,28.36001014709473,20.11361694335938,2,8605.253595625001,2,0,1580904889.494762,1580903939.50652,414,0.5962474,0,0,444.1992,1,0,1580904868.356961,8602.997883,0,2.621185,97.17264
1580904890.473873,63,0,1580904337.000819,41.20701635159924,29.07533761282497,172.748,-1,-1,5.74967098236084,48.00724964208526,-9999,8606.24511175,0.98614501953125,0.0768280029296875,-0.1463470458984375,8606.240045750001,-0.2419230908121324,1.388252867719309,-0.09529956672265209,0.02554303221404552,0.009233152493834496,0.06867682188749313,-0.002402305603027344,-0.01647157967090607,0.0253109335899353,2,-0.04076178711519646,-0.6387367712897386,0.1228888362119177,-0.7584537013348707,0.9789229035377502,0.09515538066625595,-0.1807076334953308,44.17819976806641,28.36001014709473,20.11361694335938,2,8605.253595625001,2,0,1580904889.494762,1580903939.50652,414,0.5962474,0,0,444.1992,1,0,1580904868.356961,8602.997883,0,2.621185,97.17264
1580904890.502437,64,0,1580904337.000819,41.20701635159924,29.07533761282497,172.748,-1,-1,5.74967098236084,48.00724964208526,-9999,8606.25515275,0.99005126953125,0.079254150390625,-0.1464385986328125,8606.250116750001,-0.2421226161162202,1.38790115466482,-0.09473427440536476,0.02797861024737358,-0.03268576413393021,0.05175894498825073,0.006702721118927002,-0.01781587302684784,0.0342710018157959,2,-0.04102036660198749,-0.6385816283127984,0.1227936765404191,-0.7585857843244395,0.9789119958877563,0.09459263831377029,-0.1810616701841354,44.22081756591797,28.53105545043945,20.00735473632812,2,8605.253595625001,2,0,1580904889.494762,1580903939.50652,414,0.5962474,0,0,444.1992,1,0,1580904868.356961,8602.997883,0,2.621185,97.17264
1580904890.50369,65,0,1580904337.000819,41.20701635159924,29.07533761282497,172.748,-1,-1,5.74967098236084,48.00724964208526,-9999,8606.265192750001,0.9820098876953125,0.0853271484375,-0.1416473388671875,8606.260156750001,-0.2424783551072366,1.387032549427734,-0.09430675462827218,0.04229576140642166,-0.08713541924953461,0.03342414647340775,0.0107269287109375,-0.01496389508247375,0.03503751754760742,2,-0.04124432157153292,-0.6382313580417776,0.1228119005032445,-0.7588655026488208,0.9787940979003906,0.09416702389717102,-0.181919276714325,44.22081756591797,28.53105545043945,20.00735473632812,2,8605.253595625001,2,0,1580904889.494762,1580903939.50652,414,0.5962474,0,0,444.1992,1,0,1580904868.356961,8602.997883,0,2.621185,97.17264
1580904890.504717,66,0,1580904337.000819,41.20701635159924,29.07533761282497,172.748,-1,-1,5.74967098236084,48.00724964208526,-9999,8606.27523275,0.96185302734375,0.0914764404296875,-0.154510498046875,8606.27019775,-0.2429438596598483,1.38585104888919,-0.09385754679990975,0.05317662283778191,-0.1173269227147102,0.03563763201236725,0.002859890460968018,-0.00844341516494751,0.04099369049072266,2,-0.04149235971215406,-0.6377591218854578,0.122871676789696,-0.7592392985473504,0.9786200523376465,0.09371980279684067,-0.1830833703279495,44.39051818847656,28.49183464050293,19.9990234375,2,8605.253595625001,2,0,1580904889.494762,1580903939.50652,414,0.5962474,0,0,444.1992,1,0,1580904868.356961,8602.997883,0,2.621185,97.17264
1580904890.512041,67,0,1580904337.000819,41.20701635159924,29.07533761282497,172.748,-1,-1,5.74967098236084,48.00724964208526,-9999,8606.285272750001,0.9507293701171875,0.092620849609375,-0.161895751953125,8606.280237750001,-0.2435932795938241,1.384655773007325,-0.0933995071881055,0.07162220776081085,-0.1135095506906509,0.03525546938180923,-0.01711934804916382,-0.001837849617004395,0.02930861711502075,2,-0.04180149520675767,-0.6372771800919254,0.1229991628386688,-0.7596061716958156,0.9784424304962158,0.09326377511024475,-0.1842608600854874,44.39051818847656,28.49183464050293,19.9990234375,2,8605.253595625001,2,0,1580904889.494762,1580903939.50652,414,0.5962474,0,0,444.1992,1,0,1580904868.356961,8602.997883,0,2.621185,97.17264
1580904890.521891,68,0,1580904337.000819,41.20701635159924,29.07533761282497,172.748,-1,-1,5.74967098236084,48.00724964208526,-9999,8606.295313750001,0.9662322998046875,0.0853729248046875,-0.149169921875,8606.29027775,-0.2445177491320035,1.383251651504508,-0.09309788024205756,0.09723502397537231,-0.1302477717399597,0.01281622983515263,-0.02801072597503662,-0.000392913818359375,0.02330303192138672,2,-0.04212516845314537,-0.6367146843792711,0.1232850858849349,-0.760013504586774,0.9782103300094604,0.09296345710754395,-0.1856397688388824,44.3876953125,28.43844223022461,19.74343872070312,2,8605.253595625001,2,0,1580904889.494762,1580903939.50652,414,0.5962474,0,0,444.1992,1,0,1580904868.356961,8602.997883,0,2.621185,97.17264
1580904890.561257,69,0,1580904337.000819,41.20701635159924,29.07533761282497,172.748,-1,-1,5.74967098236084,48.00724964208526,-9999,8606.30535375,0.9759521484375,0.0863189697265625,-0.143096923828125,8606.30031875,-0.2456443605948472,1.381296462324242,-0.09291513749013255,0.1118427291512489,-0.1843749135732651,-0.002782970666885376,-0.01215958595275879,-0.007458820939064026,0.03794538974761963,2,-0.04243300489255258,-0.6359416867220198,0.1236973457165746,-0.7605765273763574,0.9778623580932617,0.09278149902820587,-0.1875552237033844,44.3876953125,28.43844223022461,19.74343872070312,2,8605.253595625001,2,0,1580904889.494762,1580903939.50652,414,0.5962474,0,0,444.1992,1,0,1580904868.356961,8602.997883,0,2.621185,97.17264
1580904890.562797,70,0,1580904337.000819,41.20701635159924,29.07533761282497,172.748,-1,-1,5.74967098236084,48.00724964208526,-9999,8606.315393750001,0.9277191162109375,0.0778961181640625,-0.18670654296875,8606.310358750001,-0.2471347776028799,1.379178284593205,-0.09308292030868996,0.1446530818939209,-0.2263506054878235,-0.04944778978824615,-0.00202488899230957,-0.006679937243461609,0.04608708620071411,2,-0.04271082706662105,-0.6351096330321907,0.124362020559169,-0.7611474516590918,0.9774473905563354,0.09294856339693069,-0.1896230727434158,44.50074768066406,28.50205230712891,19.40594482421875,2,8605.253595625001,2,0,1580904889.494762,1580903939.50652,414,0.5962474,0,0,444.1992,1,0,1580904868.356961,8602.997883,0,2.621185,97.17264
1580904890.563853,71,0,1580904337.000819,41.20701635159924,29.07533761282497,172.748,-1,-1,5.74967098236084,48.00724964208526,-9999,8606.32546475,0.886199951171875,0.05010986328125,-0.2431488037109375,8606.32039875,-0.2487958206319119,1.37889622092286,-0.09357694739145662,0.1571662127971649,0.00330335833132267,-0.08535758405923843,-0.05015915632247925,-0.01559494435787201,0.002744555473327637,2,-0.04303082355633277,-0.634982949166898,0.1251548616275714,-0.7611052230684981,0.9773486852645874,0.09344043582677841,-0.1898900121450424,44.50074768066406,28.50205230712891,19.40594482421875,2,8605.253595625001,2,0,1580904889.494762,1580903939.50652,414,0.5962474,0,0,444.1992,1,0,1580904868.356961,8602.997883,0,2.621185,97.17264
1580904890.564894,72,0,1580904337.000819,41.20701635159924,29.07533761282497,172.748,-1,-1,5.74967098236084,48.00724964208526,-9999,8606.335504750001,0.9627532958984375,0.0739898681640625,-0.180084228515625,8606.330438750001,-0.2499935242687114,1.379275248261647,-0.0938966251733102,0.1074646562337875,0.04279249534010887,-0.0562034398317337,-0.0917205810546875,-0.04369963705539703,-0.05407381057739258,2,-0.04331206439155674,-0.6351119050138301,0.125702470180685,-0.7608914514213654,0.9773913025856018,0.0937587097287178,-0.1895138621330261,44.33275604248047,28.46392822265625,19.17727661132812,2,8605.253595625001,2,0,1580904889.494762,1580903939.50652,414,0.5962474,0,0,444.1992,1,0,1580904868.356961,8602.997883,0,2.621185,97.17264
1580904890.572236,73,0,1580904337.000819,41.20701635159924,29.07533761282497,172.748,-1,-1,5.74967098236084,48.00724964208526,-9999,8606.34554575,0.947967529296875,0.0935516357421875,-0.1859130859375,8606.340479750001,-0.2507910441377694,1.37987888390095,-0.09373385376228975,0.08015367388725281,0.07011039555072784,0.005015973933041096,-0.01529645919799805,-0.01965747773647308,0.008403241634368896,2,-0.04366587046788797,-0.6353187641279323,0.1259417533899249,-0.7606588581767001,0.9775204062461853,0.09359665960073471,-0.1889267265796661,44.33275604248047,28.46392822265625,19.17727661132812,2,8605.253595625001,2,0,1580904889.494762,1580903939.50652,414,0.5962474,0,0,444.1992,1,0,1580904868.356961,8603.938647999999,0,2.621185,97.17265
1580904890.582358,74,0,1580904337.000819,41.20701635159924,29.07533761282497,172.748,-1,-1,5.74967098236084,48.00724964208526,-9999,8606.355585750001,1.003265380859375,0.0773162841796875,-0.1634979248046875,8606.35051975,-0.2514162871530833,1.380371238553032,-0.09344466658148699,0.06652644276618958,0.05141949281096458,0.02002386935055256,-0.03020191192626953,0.0001923739910125732,0.00209808349609375,2,-0.04400656352809347,-0.6354826054680758,0.1260781545124295,-0.7604798989676823,0.9776400327682495,0.09330873191356659,-0.1884505599737167,44.46018218994141,28.26282691955566,19.19247436523438,2,8605.253595625001,2,0,1580904889.494762,1580903939.50652,414,0.5962474,0,0,444.1992,1,0,1580904868.356961,8603.938647999999,0,2.621185,97.17265
1580904890.618079,75,0,1580904337.000819,41.20701635159924,29.07533761282497,172.748,-1,-1,5.74967098236084,48.00724964208526,-9999,8606.365625750001,1.011322021484375,0.0606842041015625,-0.162384033203125,8606.360559750001,-0.2519139439477613,1.380536687701272,-0.0934066909386409,0.04822281002998352,0.02076065167784691,-0.005782161839306355,0.02506130933761597,-0.01600514352321625,0.02435207366943359,2,-0.04418971669761018,-0.6355332661410775,0.1262518314527595,-0.7603981014050788,0.977674663066864,0.0932709276676178,-0.1882894784212112,44.46018218994141,28.26282691955566,19.19247436523438,2,8605.253595625001,2,0,1580904889.494762,1580903939.50652,414,0.5962474,0,0,444.1992,1,0,1580904868.356961,8603.938647999999,0,2.621185,97.17265
1580904890.619442,76,0,1580904337.000819,41.20701635159924,29.07533761282497,172.748,-1,-1,5.74967098236084,48.00724964208526,-9999,8606.37566575,1.0003662109375,0.0672607421875,-0.1625518798828125,8606.37063075,-0.2522878559018832,1.380395784259793,-0.09360410321851514,0.0328514464199543,-0.01683466695249081,-0.02763916552066803,0.03316253423690796,-0.03283388912677765,0.02560007572174072,2,-0.04422384459248002,-0.6354780825620957,0.1264589479497892,-0.7604077168654724,0.9776298999786377,0.09346747398376465,-0.1884237229824066,44.43871307373047,28.66060256958008,19.16567993164062,2,8605.253595625001,2,0,1580904889.494762,1580903939.50652,414,0.5962474,0,0,444.1992,1,0,1580904868.356961,8603.938647999999,0,2.621185,97.17265
1580904890.620479,77,0,1580904337.000819,41.20701635159924,29.07533761282497,172.748,-1,-1,5.74967098236084,48.00724964208526,-9999,8606.385706750001,0.964324951171875,0.0695953369140625,-0.185333251953125,8606.380670750001,-0.2524975364109958,1.380398990441714,-0.09391233206414568,0.01553477346897125,-0.003851490095257759,-0.0332041047513485,0.02223438024520874,-0.02656441926956177,0.02542352676391602,2,-0.04417232586617635,-0.6354850466292905,0.126635131373853,-0.7603755767923691,0.9776021838188171,0.09377434849739075,-0.1884151250123978,44.43871307373047,28.66060256958008,19.16567993164062,2,8605.253595625001,2,0,1580904889.494762,1580903939.50652,414,0.5962474,0,0,444.1992,1,0,1580904868.356961,8603.938647999999,0,2.621185,97.17265
1580904890.622583,78,0,1580904337.000819,41.20701635159924,29.07533761282497,172.748,-1,-1,5.74967098236084,48.00724964208526,-9999,8606.39574675,0.9609832763671875,0.0665283203125,-0.1875152587890625,8606.39071175,-0.252632484319837,1.380960405907827,-0.09443321332871177,0.00272966967895627,0.05952375754714012,-0.05434878915548325,-0.01386445760726929,-0.02474865317344666,0.002083718776702881,2,-0.04405081960492521,-0.635713003528582,0.1268372032236019,-0.7601583464558986,0.9776596426963806,0.09429292380809784,-0.1878570020198822,44.46031188964844,28.35311126708984,19.21237182617188,2,8605.253595625001,2,0,1580904889.494762,1580903939.50652,414,0.5962474,0,0,444.1992,1,0,1580904868.356961,8603.938647999999,0,2.621185,97.17265
1580904890.632484,79,0,1580904337.000819,41.20701635159924,29.07533761282497,172.748,-1,-1,5.74967098236084,48.00724964208526,-9999,8606.405786750001,0.9976959228515625,0.0716552734375,-0.1607818603515625,8606.400751750001,-0.2527387736162524,1.38151977628034,-0.09518786845676269,-0.004846224561333656,0.06123830005526543,-0.07628098130226135,-0.01724106073379517,-0.0285673588514328,-0.0006590485572814941,2,-0.04383046634595655,-0.6359485518482975,0.1271017490693241,-0.7599298361670367,0.9776943922042847,0.09504418820142746,-0.1872966587543488,44.46031188964844,28.35311126708984,19.21237182617188,2,8605.253595625001,2,0,1580904889.494762,1580903939.50652,414,0.5962474,0,0,444.1992,1,0,1580904868.356961,8603.938647999999,0,2.621185,97.17265
1580904890.642606,80,0,1580904337.000819,41.20701635159924,29.07533761282497,172.748,-1,-1,5.74967098236084,48.00724964208526,-9999,8606.415827750001,1.001007080078125,0.0827178955078125,-0.1510772705078125,8606.41079175,-0.252818955877603,1.381552188781379,-0.09612512823637993,-0.01123951748013496,0.006475724279880524,-0.09745009243488312,0.01955336332321167,-0.02437388896942139,0.02602589130401611,2,-0.04349830264629606,-0.6359904240046437,0.127425180160012,-0.7598598270022207,0.9776127338409424,0.09597716480493546,-0.1872481554746628,44.21841430664062,28.62966346740723,19.22259521484375,2,8605.253595625001,2,0,1580904889.494762,1580903939.50652,414,0.5962474,0,0,444.1992,1,0,1580904868.356961,8603.938647999999,0,2.621185,97.17265
1580904890.653924,81,0,1580904337.000819,41.20701635159924,29.07533761282497,172.748,-1,-1,5.74967098236084,48.00724964208526,-9999,8606.42586775,0.9578094482421875,0.0906982421875,-0.1692352294921875,8606.42083175,-0.2528653460571763,1.38138505644624,-0.09709235714646608,-0.0149983037263155,-0.02116335928440094,-0.09697072207927704,0.0229872465133667,-0.01427456736564636,0.03587603569030762,2,-0.04313116667384859,-0.6359581092245736,0.1277494541441827,-0.7598533232538026,0.977489709854126,0.09693988412618637,-0.1873939782381058,44.21841430664062,28.62966346740723,19.22259521484375,2,8605.253595625001,2,0,1580904889.494762,1580903939.50652,414,0.5962474,0,0,444.1992,1,0,1580904868.356961,8603.938647999999,0,2.621185,97.17265
1580904890.679856,82,0,1580904337.000819,41.20701635159924,29.07533761282497,172.748,-1,-1,5.74967098236084,48.00724964208526,-9999,8606.435907750001,0.947845458984375,0.084503173828125,-0.1781463623046875,8606.430872750001,-0.2529014145329397,1.381438421774887,-0.09805577162793805,-0.01329195126891136,0.009307218715548515,-0.09415449202060699,-0.02012819051742554,-0.007253572344779968,0.01764810085296631,2,-0.0427762752286458,-0.6360095347880281,0.128063806465207,-0.7597773502714792,0.9774074554443359,0.09789871424436569,-0.187324121594429,44.35160064697266,28.63494491577148,19.20108032226562,2,8605.253595625001,2,0,1580904889.494762,1580903939.50652,414,0.5962474,0,0,444.1992,1,0,1580904868.356961,8603.938647999999,0,2.621185,97.17265
1580904890.681177,83,0,1580904337.000819,41.20701635159924,29.07533761282497,172.748,-1,-1,5.74967098236084,48.00724964208526,-9999,8606.44597875,0.9810943603515625,0.0821533203125,-0.1620941162109375,8606.44091275,-0.2528531805977951,1.381477894645724,-0.0990763015739773,-0.02457736246287823,0.003804862499237061,-0.1010587438941002,-0.03000092506408691,-0.01446476578712463,0.008679389953613281,2,-0.04237176217640386,-0.6360592082803758,0.1283643054421151,-0.7597076834757547,0.9773162007331848,0.09891428798437119,-0.1872666329145432,44.35160064697266,28.63494491577148,19.20108032226562,2,8605.253595625001,2,0,1580904889.494762,1580903939.50652,414,0.5962474,0,0,444.1992,1,0,1580904868.356961,8603.938647999999,0,2.621185,97.17265
1580904890.682657,84,0,1580904337.000819,41.20701635159924,29.07533761282497,172.748,-1,-1,5.74967098236084,48.00724964208526,-9999,8606.456018750001,0.97442626953125,0.09185791015625,-0.1632537841796875,8606.450952750001,-0.2527741869418718,1.381295708474426,-0.1000855801577092,-0.02762951515614986,-0.02254552952945232,-0.1002021059393883,0.003380954265594482,-0.01781943440437317,0.02489101886749268,2,-0.04194752141579763,-0.6360247747095574,0.1286542307459559,-0.7597110056272701,0.9771835207939148,0.09991856664419174,-0.1874257773160934,44.22068786621094,28.72797966003418,19.23147583007812,2,8605.253595625001,2,0,1580904889.494762,1580903939.50652,414,0.5962474,0,0,444.1992,1,0,1580904868.356961,8603.938647999999,0,2.621185,97.17265
1580904890.692902,85,0,1580904337.000819,41.20701635159924,29.07533761282497,172.748,-1,-1,5.74967098236084,48.00724964208526,-9999,8606.466059750001,0.9612579345703125,0.098388671875,-0.163604736328125,8606.460993750001,-0.2527395928688332,1.380991805198201,-0.1010108064810784,-0.01986932940781116,-0.03142930194735527,-0.09301396459341049,-0.003138899803161621,-0.009035855531692505,0.02401113510131836,2,-0.0415617376892425,-0.6359402454368825,0.1289371220639373,-0.7597551435600324,0.9770354628562927,0.1008391231298447,-0.1877052485942841,44.22068786621094,28.72797966003418,19.23147583007812,2,8605.253595625001,2,0,1580904889.494762,1580903939.50652,414,0.5962474,0,0,444.1992,1,0,1580904868.356961,8603.938647999999,0,2.621185,97.17265
1580904890.702914,86,0,1580904337.000819,41.20701635159924,29.07533761282497,172.748,-1,-1,5.74967098236084,48.00724964208526,-9999,8606.47609975,0.9536590576171875,0.093719482421875,-0.1687774658203125,8606.47103375,-0.2527257446088724,1.380592800803142,-0.1018500400349458,-0.01671694591641426,-0.04360524564981461,-0.08247765898704529,-0.01614892482757568,-0.00334051251411438,0.02403390407562256,2,-0.04120934931412763,-0.6358162345581614,0.1292028095446675,-0.7598329805027825,0.9768770337104797,0.1016740426421165,-0.1880790144205093,44.25729370117188,28.84227752685547,19.13522338867188,2,8605.253595625001,2,0,1580904889.494762,1580903939.50652,414,0.5962474,0,0,444.1992,1,0,1580904868.356961,8603.938647999999,0,2.621185,97.17265
1580904890.713755,87,0,1580904337.000819,41.20701635159924,29.07533761282497,172.748,-1,-1,5.74967098236084,48.00724964208526,-9999,8606.486139750001,0.9463653564453125,0.0856170654296875,-0.1859130859375,8606.481073750001,-0.2526977881476677,1.380597535288337,-0.1027455722113916,-0.01908902265131474,-0.0003485865890979767,-0.0906442403793335,-0.0236591100692749,-0.008901059627532959,0.01883900165557861,2,-0.04085688198054621,-0.6358476000833848,0.1294723487265739,-0.7597798546969471,0.9767880439758301,0.1025648936629295,-0.1880570948123932,44.25729370117188,28.84227752685547,19.13522338867188,2,8605.253595625001,2,0,1580904889.494762,1580903939.50652,414,0.5962474,0,0,444.1992,1,0,1580904868.356961,8603.938647999999,0,2.621185,97.17265
1580904890.738425,88,0,1580904337.000819,41.20701635159924,29.07533761282497,172.748,-1,-1,5.74967098236084,48.00724964208526,-9999,8606.49617975,0.9571990966796875,0.090179443359375,-0.177490234375,8606.49114475,-0.2526594122176622,1.381068316815538,-0.1037302507830711,-0.02233101800084114,0.04894115030765533,-0.09958488494157791,-0.03094130754470825,-0.01798345148563385,0.001224279403686523,2,-0.04049710073007638,-0.6360589223753752,0.1297563699715628,-0.7595736987927254,0.9767767786979675,0.1035443320870399,-0.1875780671834946,44.21537017822266,28.97525787353516,19.20147705078125,2,8605.253595625001,2,0,1580904889.494762,1580903939.50652,414,0.5962474,0,0,444.1992,1,0,1580904868.356961,8603.938647999999,0,2.621185,97.17265
1580904890.739825,89,0,1580904337.000819,41.20701635159924,29.07533761282497,172.748,-1,-1,5.74967098236084,48.00724964208526,-9999,8606.506220750001,0.9666900634765625,0.0995635986328125,-0.161468505859375,8606.501184750001,-0.2526509753017764,1.381476393777078,-0.1046986416198518,-0.02051740512251854,0.03785068169236183,-0.09619175642728806,-0.02008509635925293,-0.01438471674919128,0.009229362010955811,2,-0.04014913597667479,-0.636245078886517,0.1300480614631598,-0.7593863648553899,0.9767543077468872,0.1045074686408043,-0.1871604919433594,44.21537017822266,28.97525787353516,19.20147705078125,2,8605.253595625001,2,0,1580904889.494762,1580903939.50652,414,0.5962474,0,0,444.1992,1,0,1580904868.356961,8603.938647999999,0,2.621185,97.17265
1580904890.743522,90,0,1580904337.000819,41.20701635159924,29.07533761282497,172.748,-1,-1,5.74967098236084,48.00724964208526,-9999,8606.516260750001,0.9805755615234375,0.0977783203125,-0.161895751953125,8606.51122575,-0.2526951111208514,1.38161849717267,-0.10562055515892,-0.01378365512937307,0.01135757751762867,-0.09162947535514832,-0.01052582263946533,-0.005917906761169434,0.02509373426437378,2,-0.03981852825191609,-0.6363275472117498,0.1303505778135707,-0.7592827192578464,0.9766857624053955,0.1054242849349976,-0.1870034784078598,44.09231567382812,28.89400100708008,19.35055541992188,2,8605.253595625001,2,0,1580904889.494762,1580903939.50652,414,0.5962474,0,0,444.1992,1,0,1580904868.356961,8603.938647999999,0,2.621185,97.17265
1580904890.75304,91,0,1580904337.000819,41.20701635159924,29.07533761282497,172.748,-1,-1,5.74967098236084,48.00724964208526,-9999,8606.52630075,1.002716064453125,0.0960540771484375,-0.1544342041015625,8606.52126575,-0.2528294807598129,1.38144943291621,-0.1065819614227197,-0.004230630118399858,-0.008649419993162155,-0.09832705557346344,0.003491580486297607,-0.008659645915031433,0.02481281757354736,2,-0.03948114930900833,-0.636291214286676,0.1307058568209397,-0.7592698269225403,0.976554274559021,0.10638028383255,-0.1871494650840759,44.09231567382812,28.89400100708008,19.35055541992188,2,8605.253595625001,2,0,1580904889.494762,1580903939.50652,414,0.5962474,0,0,444.1992,1,0,1580904868.356961,8603.938647999999,0,2.621185,97.17265
1580904890.763235,92,0,1580904337.000819,41.20701635159924,29.07533761282497,172.748,-1,-1,5.74967098236084,48.00724964208526,-9999,8606.536340750001,1.01544189453125,0.103302001953125,-0.138427734375,8606.531305750001,-0.2530129757948994,1.380446614009917,-0.1076209887656115,-0.002060867846012115,-0.1051599979400635,-0.1067532524466515,0.02592951059341431,-0.01141753792762756,0.03323298692703247,2,-0.03907489730037075,-0.6359397235330393,0.1311202913631192,-0.7595137555104325,0.9762569665908813,0.1074133589863777,-0.1881076395511627,44.1495361328125,29.00188255310059,19.39077758789062,2,8605.253595625001,2,0,1580904889.494762,1580903939.50652,414,0.5962474,0,0,444.1992,1,0,1580904868.356961,8603.938647999999,0,2.621185,97.17265
1580904890.794848,93,0,1580904337.000819,41.20701635159924,29.07533761282497,172.748,-1,-1,5.74967098236084,48.00724964208526,-9999,8606.54638175,0.97845458984375,0.0983428955078125,-0.165008544921875,8606.54134575,-0.2532783210552741,1.378987437696994,-0.1087625268604795,0.004505688790231943,-0.1456413716077805,-0.1184506565332413,0.03905200958251953,-0.005305096507072449,0.05064105987548828,2,-0.03862481411087132,-0.6354163060660791,0.1316062399134629,-0.7598907576555823,0.9758604764938354,0.1085482239723206,-0.1895084828138351,44.1495361328125,29.00188255310059,19.39077758789062,2,8606.539118750001,1,2,1580904890.780285,1580903939.50652,414,0.5962474,0,0,444.1992,1,0,1580904868.356961,8603.938647999999,0,2.621185,97.17265
1580904890.796372,94,0,1580904337.000819,41.20701635159924,29.07533761282497,172.748,-1,-1,5.74967098236084,48.00724964208526,-9999,8606.556421750001,0.98419189453125,0.0936737060546875,-0.1671295166015625,8606.551386750001,-0.2535957781293783,1.377413322091807,-0.1100626104379599,0.005429128650575876,-0.1535451114177704,-0.1343273222446442,0.002503633499145508,-0.01155726611614227,0.02556943893432617,2,-0.03812203167749845,-0.6348528776276986,0.1321630243154464,-0.7602902758056005,0.9754216074943542,0.1098405346274376,-0.1910170763731003,44.15023040771484,29.14023208618164,19.362548828125,2,8606.539118750001,1,2,1580904890.780285,1580903939.50652,414,0.5962474,0,0,444.1992,1,0,1580904868.356961,8603.938647999999,0,2.621185,97.17265
1580904890.798039,95,0,1580904337.000819,41.20701635159924,29.07533761282497,172.748,-1,-1,5.74967098236084,48.00724964208526,-9999,8606.56649275,0.9855194091796875,0.100616455078125,-0.1659393310546875,8606.56142675,-0.2539672363290283,1.375648257446724,-0.111519085584773,0.007624372374266386,-0.1730085611343384,-0.150497779250145,0.00873798131942749,-0.01767474412918091,0.02513986825942993,2,-0.03756263405766576,-0.6342203240068917,0.1327918731607237,-0.7607364752666775,0.9749251008033752,0.1112880781292915,-0.1927072554826736,44.15023040771484,29.14023208618164,19.362548828125,2,8606.539118750001,1,2,1580904890.780285,1580903939.50652,414,0.5962474,0,0,444.1992,1,0,1580904868.356961,8603.938647999999,0,2.621185,97.17265
1580904890.803317,96,0,1580904337.000819,41.20701635159924,29.07533761282497,172.748,-1,-1,5.74967098236084,48.00724964208526,-9999,8606.576532750001,0.9775848388671875,0.1060333251953125,-0.162078857421875,8606.57146675,-0.25447767402434,1.373592970618648,-0.1131515429591842,0.02289976365864277,-0.2043185085058212,-0.1811457276344299,0.01064348220825195,-0.01235505938529968,0.02829861640930176,2,-0.03695905216579147,-0.6334798045233241,0.1335327755423574,-0.7612531162931621,0.9743474125862122,0.1129102483391762,-0.1946747303009033,43.99491119384766,29.29501152038574,19.29824829101562,2,8606.539118750001,1,2,1580904890.780285,1580903939.50652,414,0.5962474,0,0,444.1992,1,0,1580904868.356961,8603.938647999999,0,2.621185,97.17265
1580904890.813354,97,0,1580904337.000819,41.20701635159924,29.07533761282497,172.748,-1,-1,5.74967098236084,48.00724964208526,-9999,8606.58657275,0.947509765625,0.1126861572265625,-0.1721954345703125,8606.581507750001,-0.2549905791498068,1.371432365739232,-0.1147085234802066,0.02116950787603855,-0.207210972905159,-0.1684232801198959,0.003305494785308838,-0.008485883474349976,0.0342298150062561,2,-0.03637678680258201,-0.6326962378427714,0.1342518264180773,-0.7618061351648628,0.9737510681152344,0.1144571304321289,-0.1967443972826004,43.99491119384766,29.29501152038574,19.29824829101562,2,8606.539118750001,1,2,1580904890.780285,1580903939.50652,414,0.5962474,0,0,444.1992,1,0,1580904868.356961,8603.938647999999,0,2.621185,97.17265
1580904890.823327,98,0,1580904337.000819,41.20701635159924,29.07533761282497,172.748,-1,-1,5.74967098236084,48.00724964208526,-9999,8606.59661375,0.928436279296875,0.1006317138671875,-0.1970672607421875,8606.59154775,-0.2554867315194326,1.369519053754253,-0.1160877119259574,0.02223555184900761,-0.1843839585781097,-0.1456160545349121,-0.02623534202575684,-0.003203809261322021,0.02594518661499023,2,-0.03587300355765531,-0.6320011383704948,0.1349036591882871,-0.7622916856054369,0.973217248916626,0.1158271506428719,-0.1985753774642944,44.10736846923828,29.5965690612793,19.16680908203125,2,8606.539118750001,1,2,1580904890.780285,1580903939.50652,414,0.5962474,0,0,444.1992,1,0,1580904868.356961,8603.938647999999,0,2.621185,97.17265
1580904890.833919,99,0,1580904337.000819,41.20701635159924,29.07533761282497,172.748,-1,-1,5.74967098236084,48.00724964208526,-9999,8606.606653750001,0.9489898681640625,0.0989837646484375,-0.1893768310546875,8606.601587750001,-0.2559264065172073,1.367935766665322,-0.1174360516536952,0.01911485940217972,-0.1557824313640594,-0.1418058723211288,-0.04483932256698608,-0.01659815013408661,0.002583205699920654,2,-0.03538444451281542,-0.631431508642136,0.135517593504262,-0.7626776573285827,0.9727478623390198,0.1171663030982018,-0.200084388256073,44.10788726806641,29.63864517211914,18.90994262695312,2,8606.539118750001,1,2,1580904890.780285,1580903939.50652,414,0.5962474,0,0,444.1992,1,0,1580904868.356961,8603.938647999999,0,2.621185,97.17265
1580904890.85971,100,0,1580904337.000819,41.20701635159924,29.07533761282497,172.748,-1,-1,5.74967098236084,48.00724964208526,-9999,8606.61669375,0.9546356201171875,0.1021728515625,-0.1911773681640625,8606.61165875,-0.2563080909041686,1.366628229537739,-0.1188670316975667,0.00909632071852684,-0.1266865134239197,-0.1492451429367065,-0.02385795116424561,-0.01966789364814758,0.01151168346405029,2,-0.03486350130985787,-0.6309703500616385,0.1361293908948649,-0.762974269250148,0.9723201990127563,0.1185873076319695,-0.2013218998908997,44.10788726806641,29.63864517211914,18.90994262695312,2,8606.539118750001,1,2,1580904890.780285,1580903939.50652,414,0.5962474,0,0,444.1992,1,0,1580904868.356961,8603.938647999999,0,2.621185,97.17265
1580904890.861021,101,0,1580904337.000819,41.20701635159924,29.07533761282497,172.748,-1,-1,5.74967098236084,48.00724964208526,-9999,8606.62673475,0.965545654296875,0.1122283935546875,-0.1795501708984375,8606.621698750001,-0.2567111679465187,1.365429423077285,-0.1203043823094628,0.008694715797901154,-0.117293544113636,-0.1491338312625885,-0.01780235767364502,-0.01790671050548553,0.010841965675354,2,-0.03435349030344424,-0.6305502637563341,0.1367487243156416,-0.7632338487856232,0.9719101786613464,0.1200143918395042,-0.2024524062871933,43.91300964355469,29.72422409057617,18.903076171875,2,8606.539118750001,1,2,1580904890.780285,1580903939.50652,414,0.5962474,0,0,444.1992,1,0,1580904868.356961,8603.938647999999,0,2.621185,97.17265
1580904890.863737,102,0,1580904337.000819,41.20701635159924,29.07533761282497,172.748,-1,-1,5.74967098236084,48.00724964208526,-9999,8606.636774750001,0.9813690185546875,0.118194580078125,-0.1681671142578125,8606.63173875,-0.2572349632764431,1.363888030553397,-0.1217531583726672,0.02198189683258533,-0.1495495736598969,-0.1536079198122025,-0.006407618522644043,-0.009290128946304321,0.02393186092376709,2,-0.03385281759752359,-0.6299974781365076,0.1374227922951702,-0.7635915654843204,0.9714258313179016,0.1214525699615479,-0.2039143294095993,43.91300964355469,29.72422409057617,18.903076171875,2,8606.539118750001,1,2,1580904890.780285,1580903939.50652,414,0.5962474,0,0,444.1992,1,0,1580904868.356961,8603.938647999999,0,2.621185,97.17265
1580904890.873522,103,0,1580904337.000819,41.20701635159924,29.07533761282497,172.748,-1,-1,5.74967098236084,48.00724964208526,-9999,8606.64681475,0.9577178955078125,0.1163177490234375,-0.182037353515625,8606.64177975,-0.2578502340792483,1.362093720362578,-0.1232000758427496,0.03053916431963444,-0.1777681708335876,-0.1575035899877548,0.009956479072570801,-0.004760816693305969,0.03702199459075928,2,-0.03336317076402737,-0.6293462409823166,0.1381346275154645,-0.7640215864037926,0.9708854556083679,0.1228886544704437,-0.2056204229593277,43.95346069335938,29.93180465698242,18.69155883789062,2,8606.539118750001,1,2,1580904890.780285,1580903939.50652,414,0.5962474,0,0,444.1992,1,0,1580904868.356961,8603.938647999999,0,2.621185,97.17265
1580904890.883573,104,0,1580904337.000819,41.20701635159924,29.07533761282497,172.748,-1,-1,5.74967098236084,48.00724964208526,-9999,8606.656854750001,0.932403564453125,0.1148529052734375,-0.200775146484375,8606.651819750001,-0.258494449161677,1.360527234634751,-0.1245583542078477,0.03480390459299088,-0.1511735618114471,-0.1469462811946869,-0.0132070779800415,-0.00798623263835907,0.02463811635971069,2,-0.03293152375168838,-0.6287785865974332,0.1388255557852952,-0.7643823675512302,0.9703980088233948,0.124236524105072,-0.2071060091257095,43.95346069335938,29.93180465698242,18.69155883789062,2,8606.539118750001,1,2,1580904890.780285,1580903939.50652,414,0.5962474,0,0,444.1992,1,0,1580904868.356961,8603.938647999999,0,2.621185,97.17265
1580904890.894033,105,0,1580904337.000819,41.20701635159924,29.07533761282497,172.748,-1,-1,5.74967098236084,48.00724964208526,-9999,8606.666895750001,0.9426116943359375,0.1166534423828125,-0.19561767578125,8606.66185975,-0.2591462245002351,1.359235484644252,-0.12584545894037,0.03545984253287315,-0.1203330978751183,-0.1398667991161346,-0.03809565305709839,-0.01072880625724792,0.00712054967880249,2,-0.03254793699616192,-0.6283134838972126,0.139492271633599,-0.7646598189109377,0.9699724912643433,0.1255135536193848,-0.20832559466362,43.95222473144531,29.84591102600098,18.51239013671875,2,8606.539118750001,1,2,1580904890.780285,1580903939.50652,414,0.5962474,0,0,444.1992,1,0,1580904868.356961,8603.938647999999,0,2.621185,97.17265
1580904890.915611,106,0,1580904337.000819,41.20701635159924,29.07533761282497,172.748,-1,-1,5.74967098236084,48.00724964208526,-9999,8606.67693575,0.96343994140625,0.1219329833984375,-0.1799774169921875,8606.67190075,-0.2598641902990237,1.357830662651517,-0.1270922003343315,0.04272959008812904,-0.1302930116653442,-0.1356223970651627,-0.02744013071060181,-0.0101657509803772,0.01360780000686646,2,-0.03219201517056205,-0.6278027412405303,0.1401731481547059,-0.7649697877913597,0.969525158405304,0.1267503350973129,-0.2096547782421112,43.95222473144531,29.84591102600098,18.51239013671875,2,8606.539118750001,1,2,1580904890.780285,1580903939.50652,414,0.5962474,0,0,444.1992,1,0,1580904868.356961,8603.938647999999,0,2.621185,97.17265
1580904890.916926,107,0,1580904337.000819,41.20701635159924,29.07533761282497,172.748,-1,-1,5.74967098236084,48.00724964208526,-9999,8606.68700675,0.967681884765625,0.122161865234375,-0.1812591552734375,8606.681940750001,-0.2606538823136861,1.35607938613809,-0.1283236255669607,0.05018910765647888,-0.1680350750684738,-0.138848289847374,-0.00608980655670166,-0.006108254194259644,0.03091317415237427,2,-0.03183918591757585,-0.6271577016081415,0.1408817137781431,-0.7653834414875457,0.9690033793449402,0.127971738576889,-0.2113189697265625,43.99876403808594,30.11628913879395,18.41937255859375,2,8606.539118750001,1,2,1580904890.780285,1580903939.50652,414,0.5962474,0,0,444.1992,1,0,1580904868.356961,8603.938647999999,0,2.621185,97.17265
1580904890.924246,108,0,1580904337.000819,41.20701635159924,29.07533761282497,172.748,-1,-1,5.74967098236084,48.00724964208526,-9999,8606.697046750001,0.914886474609375,0.1172027587890625,-0.2119293212890625,8606.69198075,-0.2614044580072736,1.35450822345492,-0.1294110969067698,0.04907319694757462,-0.1523151993751526,-0.1232684031128883,-0.00137794017791748,-0.006958469748497009,0.03112417459487915,2,-0.03154154435700129,-0.6265776514191197,0.141527674779606,-0.7657515005222196,0.9685335755348206,0.1290501803159714,-0.2128111571073532,43.99876403808594,30.11628913879395,18.41937255859375,2,8606.539118750001,1,2,1580904890.780285,1580903939.50652,414,0.5962474,0,0,444.1992,1,0,1580904868.356961,8603.938647999999,0,2.621185,97.17265
1580904890.933829,109,0,1580904337.000819,41.20701635159924,29.07533761282497,172.748,-1,-1,5.74967098236084,48.00724964208526,-9999,8606.707086750001,0.8916473388671875,0.110015869140625,-0.230987548828125,8606.702020750001,-0.2620044518295059,1.353747200328044,-0.1302802970144416,0.03874093294143677,-0.06835772842168808,-0.09813695400953293,-0.05390101671218872,-0.01277986168861389,0.001167356967926025,2,-0.03133807712181833,-0.6263033975232495,0.1420358904441092,-0.7658901974444614,0.9682615399360657,0.1299120634794235,-0.2135239541530609,43.97229766845703,30.18991470336914,18.42095947265625,2,8606.539118750001,1,2,1580904890.780285,1580903939.50652,414,0.5962474,0,0,444.1992,1,0,1580904868.356961,8603.938647999999,0,2.621185,97.17265
1580904890.943934,110,0,1580904337.000819,41.20701635159924,29.07533761282497,172.748,-1,-1,5.74967098236084,48.00724964208526,-9999,8606.71712775,0.9349212646484375,0.1143646240234375,-0.2120208740234375,8606.71206175,-0.2624509111718206,1.353647789589116,-0.1310173182546682,0.02505950257182121,0.001338494941592216,-0.08107505738735199,-0.07702523469924927,-0.0206979364156723,-0.01781541109085083,2,-0.03118465302988079,-0.6262808972650986,0.1424343052339873,-0.765840805435793,0.9681464433670044,0.1306428164243698,-0.2135995030403137,43.97229766845703,30.18991470336914,18.42095947265625,2,8606.539118750001,1,2,1580904890.780285,1580903939.50652,414,0.5962474,0,0,444.1992,1,0,1580904868.356961,8603.938647999999,0,2.621185,97.17265
1580904890.979325,111,0,1580904337.000819,41.20701635159924,29.07533761282497,172.748,-1,-1,5.74967098236084,48.00724964208526,-9999,8606.727167750001,0.9758148193359375,0.1219329833984375,-0.1819915771484375,8606.72210175,-0.2629008616784321,1.353419234840785,-0.1317820977238014,0.02673756331205368,-0.017793919891119,-0.08500721305608749,-0.03360468149185181,-0.01710779964923859,0.001350998878479004,2,-0.03101226917086554,-0.6262097471499757,0.1428444918420637,-0.7658296454732754,0.9679998159408569,0.131401002407074,-0.2137991786003113,43.87272644042969,30.14153861999512,18.3470458984375,2,8606.539118750001,1,2,1580904890.780285,1580903939.50652,414,0.5962474,0,0,444.1992,1,0,1580904868.356961,8603.938647999999,0,2.621185,97.17265
1580904890.980695,112,0,1580904337.000819,41.20701635159924,29.07533761282497,172.748,-1,-1,5.74967098236084,48.00724964208526,-9999,8606.73720775,0.9683685302734375,0.1282806396484375,-0.181854248046875,8606.732141750001,-0.2634156882264997,1.352727866868392,-0.1325839972211406,0.03410495445132256,-0.06788128614425659,-0.09056940674781799,0.007540345191955566,-0.01033474504947662,0.03202712535858154,2,-0.03081253634449921,-0.6259615233717957,0.1432979375771993,-0.7659559394216878,0.9677486419677734,0.1321959048509598,-0.2144455164670944,43.87272644042969,30.14153861999512,18.3470458984375,2,8606.539118750001,1,2,1580904890.780285,1580903939.50652,414,0.5962474,0,0,444.1992,1,0,1580904868.356961,8603.938647999999,0,2.621185,97.17265
1580904890.981703,113,0,1580904337.000819,41.20701635159924,29.07533761282497,172.748,-1,-1,5.74967098236084,48.00724964208526,-9999,8606.747247750001,0.9190216064453125,0.11810302734375,-0.206756591796875,8606.742212750001,-0.2638904612989904,1.352046835679468,-0.1333783352195444,0.03038585372269154,-0.06773721426725388,-0.08893529325723648,0.0003432035446166992,-0.004774868488311768,0.03280079364776611,2,-0.03060365970110658,-0.6257176549345932,0.1437333947160479,-0.7660819141171801,0.9674994945526123,0.1329832226037979,-0.215081661939621,43.80951690673828,30.30461502075195,18.24142456054688,2,8606.539118750001,1,2,1580904890.780285,1580903939.50652,414,0.5962474,0,0,444.1992,1,0,1580904868.356961,8603.938647999999,0,2.621185,97.17265
1580904890.98408,114,0,1580904337.000819,41.20701635159924,29.07533761282497,172.748,-1,-1,5.74967098236084,48.00724964208526,-9999,8606.757288750001,0.888031005859375,0.0998992919921875,-0.2484130859375,8606.75225275,-0.2641578910350935,1.352383221580257,-0.1342149227658096,0.009529475122690201,0.0335259810090065,-0.08948691189289093,-0.04896706342697144,-0.01578201353549957,0.007548749446868896,2,-0.03038652250431849,-0.6258679146616226,0.1440867110986635,-0.7659014497503195,0.9674628973007202,0.1338123381137848,-0.2147320210933685,43.80951690673828,30.30461502075195,18.24142456054688,2,8606.539118750001,1,2,1580904890.780285,1580903939.50652,414,0.5962474,0,0,444.1992,1,0,1580904868.356961,8603.938647999999,0,2.621185,97.17265
1580904890.994205,115,0,1580904337.000819,41.20701635159924,29.07533761282497,172.748,-1,-1,5.74967098236084,48.00724964208526,-9999,8606.76732875,0.9063262939453125,0.09759521484375,-0.2462615966796875,8606.76229375,-0.2641153802125957,1.354165291894739,-0.1351402298200168,-0.02457203529775143,0.1808805465698242,-0.09028266370296478,-0.08021754026412964,-0.03490316867828369,-0.03585994243621826,2,-0.03014237532821101,-0.6265788049118358,0.1443268088323665,-0.765284332913279,0.9677225947380066,0.134729266166687,-0.2129808813333511,43.74945831298828,30.20381927490234,18.25778198242188,2,8606.539118750001,1,2,1580904890.780285,1580903939.50652,414,0.5962474,0,0,444.1992,1,0,1580904868.356961,8603.938647999999,0,2.621185,97.17265
1580904891.004315,116,0,1580904337.000819,41.20701635159924,29.07533761282497,172.748,-1,-1,5.74967098236084,48.00724964208526,-9999,8606.777368750001,0.9351959228515625,0.10888671875,-0.21185302734375,8606.772333750001,-0.2638218836699499,1.356813711725127,-0.1361548820102681,-0.04996056854724884,0.2640305757522583,-0.09353442490100861,-0.06234902143478394,-0.03821314871311188,-0.03630268573760986,2,-0.02984787964356535,-0.6276265459694986,0.1444859499192128,-0.7644067317930824,0.9681491255760193,0.1357345879077911,-0.2103880494832993,43.74945831298828,30.20381927490234,18.25778198242188,2,8606.539118750001,1,2,1580904890.780285,1580903939.50652,414,0.5962474,0,0,444.1992,1,0,1580904868.356961,8603.938647999999,0,2.621185,97.17265
1580904891.034676,117,0,1580904337.000819,41.20701635159924,29.07533761282497,172.748,-1,-1,5.74967098236084,48.00724964208526,-9999,8606.787409750001,0.960540771484375,0.123260498046875,-0.1861419677734375,8606.78237375,-0.2633666613533785,1.359578785640795,-0.137197907976079,-0.06562235206365585,0.2723492085933685,-0.09415547549724579,-0.03391867876052856,-0.02795551717281342,-0.004603207111358643,2,-0.02950043686377549,-0.62872052485522,0.1445913557570121,-0.763500762145251,0.9685882329940796,0.1367678940296173,-0.2076804488897324,43.54845428466797,30.20639038085938,18.50241088867188,2,8606.539118750001,1,2,1580904890.780285,1580903939.50652,414,0.5962474,0,0,444.1992,1,0,1580904868.356961,8603.938647999999,0,2.621185,97.17265
1580904891.036094,118,0,1580904337.000819,41.20701635159924,29.07533761282497,172.748,-1,-1,5.74967098236084,48.00724964208526,-9999,8606.79744975,0.9550933837890625,0.1252288818359375,-0.1964874267578125,8606.792413750001,-0.2627307349415688,1.362257497648344,-0.1381509991871783,-0.08097045868635178,0.2590882778167725,-0.07959823310375214,-0.008999109268188477,-0.01452632248401642,0.01848387718200684,2,-0.02912497831598493,-0.629779886462519,0.1446026512834553,-0.7626394629820838,0.9690130949020386,0.1377119719982147,-0.2050580531358719,43.54845428466797,30.20639038085938,18.50241088867188,2,8606.539118750001,1,2,1580904890.780285,1580903939.50652,414,0.5962474,0,0,444.1992,1,0,1580904868.356961,8603.938647999999,0,2.621185,97.17265
1580904891.037131,119,0,1580904337.000819,41.20701635159924,29.07533761282497,172.748,-1,-1,5.74967098236084,48.00724964208526,-9999,8606.807520750001,0.92041015625,0.1245269775390625,-0.206756591796875,8606.802454750001,-0.2618547769688336,1.365208691857573,-0.1389210174783596,-0.1010823845863342,0.2794036567211151,-0.05944236740469933,-0.01494354009628296,-0.01332098245620728,0.005254805088043213,2,-0.02876431016411174,-0.6309395681128847,0.1444633936057098,-0.7617205873995387,0.9695100784301758,0.1384746134281158,-0.2021757513284683,43.4970703125,30.38714027404785,18.7969970703125,2,8606.539118750001,1,2,1580904890.780285,1580903939.50652,414,0.5962474,0,0,444.1992,1,0,1580904868.356961,8603.938647999999,0,2.621185,97.17265
1580904891.044334,120,0,1580904337.000819,41.20701635159924,29.07533761282497,172.748,-1,-1,5.74967098236084,48.00724964208526,-9999,8606.81756075,0.90887451171875,0.1316680908203125,-0.2057037353515625,8606.81249475,-0.2607810853697733,1.368712601669297,-0.1393096729110807,-0.1119078770279884,0.3358094096183777,-0.01587936282157898,-0.0502769947052002,-0.01440803706645966,-0.008425593376159668,2,-0.02852789055041353,-0.6322996571971697,0.144124582336851,-0.7606650658437629,0.970159649848938,0.1388595104217529,-0.1987666040658951,43.4970703125,30.38714027404785,18.7969970703125,2,8606.539118750001,1,2,1580904890.780285,1580903939.50652,414,0.5962474,0,0,444.1992,1,0,1580904868.356961,8603.938647999999,0,2.621185,97.17265
1580904891.054347,121,0,1580904337.000819,41.20701635159924,29.07533761282497,172.748,-1,-1,5.74967098236084,48.00724964208526,-9999,8606.827600750001,0.9471588134765625,0.1300048828125,-0.1900177001953125,8606.822534750001,-0.2595655280867041,1.372563398615446,-0.1394552540681867,-0.1208097562193871,0.3691655099391937,0.01143881026655436,-0.06255114078521729,-0.007411107420921326,-0.01111584901809692,2,-0.02836401869526034,-0.6337845394102578,0.1436529008756606,-0.7595238507100678,0.9708980917930603,0.1390036791563034,-0.1950252801179886,43.21076202392578,30.3481273651123,19.1837158203125,2,8606.539118750001,1,2,1580904890.780285,1580903939.50652,414,0.5962474,0,0,444.1992,1,0,1580904868.356961,8603.938647999999,0,2.621185,97.17265
1580904891.064522,122,0,1580904337.000819,41.20701635159924,29.07533761282497,172.748,-1,-1,5.74967098236084,48.00724964208526,-9999,8606.83764175,0.979583740234375,0.1299591064453125,-0.1652984619140625,8606.832575750001,-0.2582927590668716,1.376306734390628,-0.1395520795692445,-0.1245669424533844,0.358534961938858,0.01553200837224722,-0.02497744560241699,-0.009170308709144592,0.0009296536445617676,2,-0.02819134169374499,-0.6352257852579883,0.1431470283910407,-0.7584208799564498,0.9716079831123352,0.1390995681285858,-0.1913868933916092,43.21076202392578,30.3481273651123,19.1837158203125,2,8606.539118750001,1,2,1580904890.780285,1580903939.50652,414,0.5962474,0,0,444.1992,1,0,1580904868.356961,8603.938647999999,0,2.621185,97.17265
1580904891.098852,123,0,1580904337.000819,41.20701635159924,29.07533761282497,172.748,-1,-1,5.74967098236084,48.00724964208526,-9999,8606.847681750001,0.990142822265625,0.133819580078125,-0.153472900390625,8606.84261575,-0.2570403407150448,1.379547674915163,-0.1396388059249359,-0.1238862350583076,0.3081018924713135,0.01300626527518034,0.006843864917755127,-0.009302020072937012,0.0224948525428772,2,-0.02799137452410629,-0.6364739936778064,0.1426538479112385,-0.757474113176465,0.9722113013267517,0.139185443520546,-0.1882346719503403,43.14188385009766,30.3978443145752,19.46514892578125,2,8606.539118750001,1,2,1580904890.780285,1580903939.50652,414,0.5962474,0,0,444.1992,1,0,1580904868.356961,8603.938647999999,0,2.621185,97.17265
1580904891.100243,124,0,1580904337.000819,41.20701635159924,29.07533761282497,172.748,-1,-1,5.74967098236084,48.00724964208526,-9999,8606.857721750001,0.9662628173828125,0.1385650634765625,-0.157745361328125,8606.852655750001,-0.2558719236448288,1.382315208341711,-0.1395904123981568,-0.1130823791027069,0.258980393409729,0.02483337000012398,0.01687896251678467,-0.005393579602241516,0.03162902593612671,2,-0.02783487466310708,-0.6375366008952682,0.1421578470997846,-0.7566791482923221,0.9727351665496826,0.1391375213861465,-0.1855446100234985,43.14188385009766,30.3978443145752,19.46514892578125,2,8606.539118750001,1,2,1580904890.780285,1580903939.50652,414,0.5962474,0,0,444.1992,1,0,1580904868.356961,8603.938647999999,0,2.621185,97.17265
1580904891.101282,125,0,1580904337.000819,41.20701635159924,29.07533761282497,172.748,-1,-1,5.74967098236084,48.00724964208526,-9999,8606.86776175,0.9450531005859375,0.1390838623046875,-0.1639556884765625,8606.86272675,-0.2548412364708494,1.384952827205555,-0.1393188103626774,-0.09500191360712051,0.2497725188732147,0.04427284747362137,-0.007524251937866211,-0.0003789216279983521,0.02479606866836548,2,-0.0277974383103908,-0.6385410511178303,0.1416466067147221,-0.7559291680549278,0.9732584357261658,0.1388685554265976,-0.1829852610826492,43.07233428955078,30.28725242614746,19.80859375,2,8606.86043775,2,0,1580904891.101604,1580903939.50652,414,0.5962474,0,0,444.1992,1,0,1580904868.356961,8603.938647999999,0,2.621185,97.17265
1580904891.104498,126,0,1580904337.000819,41.20701635159924,29.07533761282497,172.748,-1,-1,5.74967098236084,48.00724964208526,-9999,8606.877802750001,0.9548187255859375,0.13623046875,-0.1595611572265625,8606.872766750001,-0.2539473325185503,1.387487523160142,-0.1388461207230839,-0.07774624228477478,0.2393361330032349,0.06218082457780838,-0.0292593240737915,0.0006082653999328613,0.01612889766693115,2,-0.02787225351335812,-0.6394984667703387,0.1411258041339236,-0.7552141133285121,0.973783552646637,0.1384004354476929,-0.1805296987295151,43.07233428955078,30.28725242614746,19.80859375,2,8606.86043775,2,0,1580904891.101604,1580903939.50652,414,0.5962474,0,0,444.1992,1,0,1580904868.356961,8603.938647999999,0,2.621185,97.17265
1580904891.11458,127,0,1580904337.000819,41.20701635159924,29.07533761282497,172.748,-1,-1,5.74967098236084,48.00724964208526,-9999,8606.88784275,0.96209716796875,0.12774658203125,-0.1663360595703125,8606.88280775,-0.2531256169078956,1.390020229443832,-0.1382953330004467,-0.06856366246938705,0.241340696811676,0.06960225105285645,-0.02002274990081787,-0.001699298620223999,0.01806914806365967,2,-0.02799867013487864,-0.6404512699762485,0.1406077489997051,-0.7544983109020061,0.9743124842643738,0.1378549188375473,-0.1780764907598495,43.03860473632812,30.43582916259766,20.0955810546875,2,8606.86043775,2,0,1580904891.101604,1580903939.50652,414,0.5962474,0,0,444.1992,1,0,1580904868.356961,8603.938647999999,0,2.621185,97.17265
1580904891.124766,128,0,1580904337.000819,41.20701635159924,29.07533761282497,172.748,-1,-1,5.74967098236084,48.00724964208526,-9999,8606.897882750001,0.969970703125,0.12298583984375,-0.1642913818359375,8606.892847750001,-0.2523426691112717,1.392690772765549,-0.1378227796576759,-0.06968824565410614,0.2613492906093597,0.06012344360351562,-0.01328057050704956,-0.009714871644973755,0.008701622486114502,2,-0.02811601219159195,-0.6414567698812472,0.1401267915402961,-0.7537287055791176,0.9748483896255493,0.1373868733644485,-0.1754854023456573,43.03860473632812,30.43582916259766,20.0955810546875,2,8606.86043775,2,0,1580904891.101604,1580903939.50652,414,0.5962474,0,0,444.1992,1,0,1580904868.356961,8603.938647999999,0,2.621185,97.17265
1580904891.157981,129,0,1580904337.000819,41.20701635159924,29.07533761282497,172.748,-1,-1,5.74967098236084,48.00724964208526,-9999,8606.907923750001,0.9765777587890625,0.1359405517578125,-0.13958740234375,8606.90288775,-0.2517158009346306,1.395142079801007,-0.1373483968792115,-0.05275799334049225,0.2421883791685104,0.05806189030408859,-0.005898594856262207,-0.01400542259216309,0.008366584777832031,2,-0.02826759749483987,-0.6423765393470428,0.1397069710095846,-0.7530175458945874,0.975339949131012,0.1369169652462006,-0.1731066554784775,43.14197540283203,30.08813667297363,20.33938598632812,2,8606.86043775,2,0,1580904891.101604,1580903939.50652,414,0.5962474,0,0,444.1992,1,0,1580904868.356961,8603.938647999999,0,2.621185,97.17265
1580904891.159805,130,0,1580904337.000819,41.20701635159924,29.07533761282497,172.748,-1,-1,5.74967098236084,48.00724964208526,-9999,8606.91796375,0.98419189453125,0.1418304443359375,-0.12689208984375,8606.91292775,-0.2512495057655346,1.396869013316294,-0.1367889478041164,-0.0330069288611412,0.1625462770462036,0.063243068754673,0.0003355145454406738,-0.0004962384700775146,0.03139805793762207,2,-0.02845190463124128,-0.6430185631217702,0.1393308933203578,-0.7525319788291387,0.9757125377655029,0.136362761259079,-0.1714352369308472,43.14197540283203,30.08813667297363,20.33938598632812,2,8606.86043775,2,0,1580904891.101604,1580903939.50652,414,0.5962474,0,0,444.1992,1,0,1580904868.356961,8603.938647999999,0,2.621185,97.17265
1580904891.160912,131,0,1580904337.000819,41.20701635159924,29.07533761282497,172.748,-1,-1,5.74967098236084,48.00724964208526,-9999,8606.928034750001,0.976531982421875,0.1262969970703125,-0.151947021484375,8606.922968750001,-0.2508202733690417,1.398260333472626,-0.1362814717666732,-0.03318296372890472,0.1286215931177139,0.05674256384372711,0.007643759250640869,0.005896657705307007,0.04274666309356689,2,-0.02860433727914276,-0.6435348400433853,0.138989675258691,-0.75214790368,0.9760181903839111,0.1358600109815598,-0.1700894087553024,43.17518615722656,30.30187606811523,20.49050903320312,2,8606.86043775,2,0,1580904891.101604,1580903939.50652,414,0.5962474,0,0,444.1992,1,0,1580904868.356961,8603.938647999999,0,2.621185,97.17265
1580904891.164962,132,0,1580904337.000819,41.20701635159924,29.07533761282497,172.748,-1,-1,5.74967098236084,48.00724964208526,-9999,8606.93807475,0.97479248046875,0.1231689453125,-0.154815673828125,8606.93300875,-0.2504434542187227,1.399727323749166,-0.1359421082648028,-0.03177013620734215,0.1416008174419403,0.03936240822076797,-0.0003100037574768066,-0.009300351142883301,0.01626706123352051,2,-0.02871432651992033,-0.6440829573301136,0.1387199415399137,-0.7517242807604069,0.9763121008872986,0.1355237811803818,-0.1686652600765228,43.17518615722656,30.30187606811523,20.49050903320312,2,8606.86043775,2,0,1580904891.101604,1580903939.50652,414,0.5962474,0,0,444.1992,1,0,1580904868.356961,8603.938647999999,0,2.621185,97.17265
1580904891.174891,133,0,1580904337.000819,41.20701635159924,29.07533761282497,172.748,-1,-1,5.74967098236084,48.00724964208526,-9999,8606.948095291667,0.983795166015625,0.119415283203125,-0.1526031494140625,8606.943048750001,-0.2501127405104963,1.401188569456732,-0.1358425448883064,-0.03124203346669674,0.1393136829137802,0.01570395193994045,-0.002308309078216553,-0.01232966780662537,0.01197314262390137,2,-0.02874701776014306,-0.6446341933083689,0.1385432506741655,-0.7512829964717849,0.9765708446502686,0.1354251354932785,-0.1672407388687134,43.14108276367188,30.25386428833008,20.64407348632812,2,8606.86043775,2,0,1580904891.101604,1580903939.50652,414,0.5962474,0,0,444.1992,1,0,1580904868.356961,8603.938647999999,0,2.621185,97.17265
1580904891.184861,134,0,1580904337.000819,41.20701635159924,29.07533761282497,172.748,-1,-1,5.74967098236084,48.00724964208526,-9999,8606.958135291667,0.9935760498046875,0.1143951416015625,-0.1566314697265625,8606.953070291667,-0.2498441485227436,1.402802724704942,-0.1360930909139014,-0.0321415551006794,0.1604421883821487,-0.02111798152327538,0.006459176540374756,-0.01633170247077942,0.01260274648666382,2,-0.02867674437574813,-0.6452506412191491,0.1384983871999161,-0.7507646284220029,0.976806104183197,0.1356733739376068,-0.1656585037708282,43.14108276367188,30.25386428833008,20.64407348632812,2,8606.86043775,2,0,1580904891.101604,1580903939.50652,414,0.5962474,0,0,444.1992,1,0,1580904868.356961,8603.938647999999,0,2.621185,97.17265
1580904891.216859,135,0,1580904337.000819,41.20701635159924,29.07533761282497,172.748,-1,-1,5.74967098236084,48.00724964208526,-9999,8606.968176291668,1.003387451171875,0.1233673095703125,-0.1355743408203125,8606.963110291666,-0.2497052626500614,1.404262956883233,-0.1366418509174958,-0.02285804226994514,0.1442530900239944,-0.05277258157730103,0.01607280969619751,-0.02189576625823975,0.007134795188903809,2,-0.02852414568900159,-0.6458146609593872,0.1385989556282529,-0.7502667111055114,0.976973295211792,0.1362170428037643,-0.1642195880413055,42.95181274414062,29.79787063598633,20.79327392578125,2,8606.86043775,2,0,1580904891.101604,1580903939.50652,414,0.5962474,0,0,444.1992,1,0,1580904868.356961,8603.938647999999,0,2.621185,97.17265
1580904891.218292,136,0,1580904337.000819,41.20701635159924,29.07533761282497,172.748,-1,-1,5.74967098236084,48.00724964208526,-9999,8606.978216291667,0.9897918701171875,0.125946044921875,-0.140960693359375,8606.973150291667,-0.2496898741953767,1.405409328966239,-0.1373698739941627,-0.01291124988347292,0.1116466298699379,-0.07172957807779312,0.02579474449157715,-0.0136452317237854,0.02705466747283936,2,-0.02832165741790661,-0.646263358711209,0.1388073342286325,-0.7498492281530851,0.9770626425743103,0.1369382441043854,-0.1630831062793732,42.95181274414062,29.79787063598633,20.79327392578125,2,8606.86043775,2,0,1580904891.101604,1580903939.50652,414,0.5962474,0,0,444.1992,1,0,1580904868.356961,8603.938647999999,0,2.621185,97.17265
1580904891.219434,137,0,1580904337.000819,41.20701635159924,29.07533761282497,172.748,-1,-1,5.74967098236084,48.00724964208526,-9999,8606.988256291666,0.9720611572265625,0.1279144287109375,-0.1482696533203125,8606.983221291668,-0.2497754625640417,1.406500491486587,-0.1382006131433554,-0.00521524716168642,0.1102303490042686,-0.08449304103851318,0.01213443279266357,-0.0118897557258606,0.02058321237564087,2,-0.02810913652541927,-0.6466921676044711,0.1390871077610415,-0.7494356562399793,0.9771275520324707,0.1377611011266708,-0.1619982272386551,42.86904144287109,30.41389846801758,20.80355834960938,2,8606.86043775,2,0,1580904891.101604,1580903939.50652,414,0.5962474,0,0,444.1992,1,0,1580904868.356961,8603.938647999999,0,2.621185,97.17265
1580904891.225202,138,0,1580904337.000819,41.20701635159924,29.07533761282497,172.748,-1,-1,5.74967098236084,48.00724964208526,-9999,8606.998297291668,0.96551513671875,0.1323699951171875,-0.14056396484375,8606.993261291667,-0.2499507417524364,1.407518283185487,-0.1390187612810605,0.003876721020787954,0.103203609585762,-0.08288680762052536,-0.005649149417877197,-0.01073208451271057,0.01226073503494263,2,-0.02792562753487619,-0.6470915907913211,0.1393977548590108,-0.7490399363489283,0.9771804213523865,0.1385714113712311,-0.1609852612018585,42.86904144287109,30.41389846801758,20.80355834960938,2,8606.86043775,2,0,1580904891.101604,1580903939.50652,414,0.5962474,0,0,444.1992,1,0,1580904868.356961,8603.938647999999,0,2.621185,97.17265
1580904891.235058,139,0,1580904337.000819,41.20701635159924,29.07533761282497,172.748,-1,-1,5.74967098236084,48.00724964208526,-9999,8607.008337291667,0.9810943603515625,0.1393280029296875,-0.1245574951171875,8607.003301291667,-0.2502867978575145,1.408175115460079,-0.1397823993713879,0.02124745585024357,0.07289603352546692,-0.08161194622516632,-0.0121961236000061,-0.007033184170722961,0.01930695772171021,2,-0.02778997351561475,-0.6473519960424104,0.1397565007351305,-0.7487531371554145,0.9771813154220581,0.1393276453018188,-0.1603262275457382,42.71121215820312,30.30007171630859,20.89276123046875,2,8606.86043775,2,0,1580904891.101604,1580903939.50652,414,0.5962474,0,0,444.1992,1,0,1580904868.356961,8603.938647999999,0,2.621185,97.17265
1580904891.245121,140,0,1580904337.000819,41.20701635159924,29.07533761282497,172.748,-1,-1,5.74967098236084,48.00724964208526,-9999,8607.018377291668,0.9955596923828125,0.1432037353515625,-0.1094818115234375,8607.013342291668,-0.2508053603425901,1.40791049216704,-0.1404168961267652,0.03955848887562752,-0.01931057870388031,-0.07120955735445023,0.003512978553771973,-0.0007038116455078125,0.03555768728256226,2,-0.027698154494711,-0.6472616119708512,0.1401554361478415,-0.7487601266662322,0.9770514965057373,0.139955922961235,-0.1605704426765442,42.71121215820312,30.30007171630859,20.89276123046875,2,8606.86043775,2,0,1580904891.101604,1580903939.50652,414,0.5962474,0,0,444.1992,1,0,1580904868.356961,8603.938647999999,0,2.621185,97.17265
1580904891.280019,141,0,1580904337.000819,41.20701635159924,29.07533761282497,172.748,-1,-1,5.74967098236084,48.00724964208526,-9999,8607.028417291667,0.991180419921875,0.14105224609375,-0.117340087890625,8607.023382291667,-0.2515440781163447,1.406725657844582,-0.1409232311998355,0.06496238708496094,-0.1091200932860374,-0.06180939078330994,0.01823925971984863,0.002670258283615112,0.05177950859069824,2,-0.02766151885693641,-0.6468204332510831,0.1406088761444993,-0.7490574765857305,0.9767902493476868,0.1404572576284409,-0.1617163419723511,42.69903564453125,30.36948776245117,21.00338745117188,2,8606.86043775,2,0,1580904891.101604,1580903939.50652,414,0.5962474,0,0,444.1992,1,0,1580904868.356961,8603.938647999999,0,2.621185,97.17265
1580904891.281317,142,0,1580904337.000819,41.20701635159924,29.07533761282497,172.748,-1,-1,5.74967098236084,48.00724964208526,-9999,8607.038458291667,0.987274169921875,0.1366729736328125,-0.12969970703125,8607.033422291666,-0.252435932829271,1.404866698268614,-0.1413198788997902,0.07959012687206268,-0.1754200309514999,-0.05594946071505547,0.01421743631362915,0.0001258254051208496,0.04572856426239014,2,-0.02766799337355375,-0.6461216209384971,0.1410942538656842,-0.7495689613055428,0.9764330387115479,0.1408499628305435,-0.1635226607322693,42.69903564453125,30.36948776245117,21.00338745117188,2,8606.86043775,2,0,1580904891.101604,1580903939.50652,414,0.5962474,0,0,444.1992,1,0,1580904868.356961,8603.938647999999,0,2.621185,97.17265
1580904891.282265,143,0,1580904337.000819,41.20701635159924,29.07533761282497,172.748,-1,-1,5.74967098236084,48.00724964208526,-9999,8607.048498291668,0.9727020263671875,0.1375732421875,-0.13690185546875,8607.043463291668,-0.2534675113571636,1.402552244943665,-0.1415545408929095,0.09739122539758682,-0.2180561721324921,-0.04105227068066597,0.01072490215301514,-0.004485905170440674,0.03562396764755249,2,-0.0277481299053359,-0.6452454906860474,0.1415872694004594,-0.75022745148936,0.9760193228721619,0.1410822719335556,-0.1657765954732895,42.65812683105469,30.52130699157715,20.77438354492188,2,8606.86043775,2,0,1580904891.101604,1580903939.50652,414,0.5962474,0,0,444.1992,1,0,1580904868.356961,8603.938647999999,0,2.621185,97.17265
1580904891.285356,144,0,1580904337.000819,41.20701635159924,29.07533761282497,172.748,-1,-1,5.74967098236084,48.00724964208526,-9999,8607.058569291667,0.953399658203125,0.1348419189453125,-0.1433563232421875,8607.053503291667,-0.2545359096871987,1.399968221093441,-0.1416515038391765,0.1031278520822525,-0.2466435581445694,-0.02920546941459179,-0.003401756286621094,-0.003681644797325134,0.03094261884689331,2,-0.02787236296362097,-0.644263329719133,0.142054760494722,-0.750978252748698,0.9755743145942688,0.1411782652139664,-0.1682957857847214,42.65812683105469,30.52130699157715,20.77438354492188,2,8606.86043775,2,0,1580904891.101604,1580903939.50652,414,0.5962474,0,0,444.1992,1,0,1580904868.356961,8603.938647999999,0,2.621185,97.17265
1580904891.295405,145,0,1580904337.000819,41.20701635159924,29.07533761282497,172.748,-1,-1,5.74967098236084,48.00724964208526,-9999,8607.068609291668,0.932098388671875,0.12969970703125,-0.166168212890625,8607.063543291668,-0.2554740592603255,1.397463292204875,-0.1415854807534339,0.09240596741437912,-0.2430554777383804,-0.009599010460078716,-0.02228844165802002,-0.006347581744194031,0.02693420648574829,2,-0.0280213869826217,-0.6433074697242814,0.1424214067241626,-0.7517222936297384,0.9751588106155396,0.1411129087209702,-0.1707406044006348,42.68479919433594,30.46767997741699,20.48043823242188,2,8606.86043775,2,0,1580904891.101604,1580903939.50652,414,0.5962474,0,0,444.1992,1,0,1580904868.356961,8603.938647999999,0,2.621185,97.17265
1580904891.305375,146,0,1580904337.000819,41.20701635159924,29.07533761282497,172.748,-1,-1,5.74967098236084,48.00724964208526,-9999,8607.078649291667,0.929779052734375,0.119476318359375,-0.18389892578125,8607.073583291667,-0.2561761216990179,1.395602786532689,-0.1414541422580179,0.07225008308887482,-0.1748985946178436,-0.0007105083204805851,-0.04328840970993042,-0.01135967671871185,0.005940675735473633,2,-0.02816461843806857,-0.6425946137832026,0.1426701975709129,-0.7522793106296576,0.9748577475547791,0.1409828811883926,-0.1725578308105469,42.74530029296875,30.66789054870605,20.29656982421875,2,8606.86043775,2,0,1580904891.101604,1580903939.50652,414,0.5962474,0,0,444.1992,1,0,1580904868.356961,8603.938647999999,0,2.621185,97.17265
1580904891.337317,147,0,1580904337.000819,41.20701635159924,29.07533761282497,172.748,-1,-1,5.74967098236084,48.00724964208526,-9999,8607.088690291666,0.957183837890625,0.12335205078125,-0.16180419921875,8607.083624291667,-0.2566137233751331,1.394204985592651,-0.1413000047155814,0.04510847479104996,-0.1298056840896606,0.006670975126326084,-0.04538679122924805,-0.02143040299415588,-0.01042312383651733,2,-0.02826429768144378,-0.6420584626923561,0.1428061327551422,-0.7527073689885226,0.9746369123458862,0.1408302783966064,-0.1739241182804108,42.74530029296875,30.66789054870605,20.29656982421875,2,8606.86043775,2,0,1580904891.101604,1580903939.50652,414,0.5962474,0,0,444.1992,1,0,1580904868.356961,8603.938647999999,0,2.621185,97.17265
1580904891.338865,148,0,1580904337.000819,41.20701635159924,29.07533761282497,172.748,-1,-1,5.74967098236084,48.00724964208526,-9999,8607.098730291667,0.9912567138671875,0.1322021484375,-0.142791748046875,8607.093664291668,-0.2569541705886467,1.392554138044313,-0.1411074643929511,0.03675154969096184,-0.1617822051048279,0.01310514844954014,-0.01771998405456543,-0.01736390590667725,0.01328623294830322,2,-0.0283292217148572,-0.6414270165629069,0.142897210997701,-0.7532258753241744,0.9743751883506775,0.1406396627426147,-0.1755376756191254,42.75110626220703,30.57177925109863,20.179443359375,2,8606.86043775,2,0,1580904891.101604,1580903939.50652,414,0.5962474,0,0,444.1992,1,0,1580904868.356961,8603.938647999999,0,2.621185,97.17265
1580904891.340324,149,0,1580904337.000819,41.20701635159924,29.07533761282497,172.748,-1,-1,5.74967098236084,48.00724964208526,-9999,8607.108770291667,1.001846313476562,0.1339874267578125,-0.1426239013671875,8607.103735291666,-0.2572738182464954,1.390308107991171,-0.1409973880839361,0.03463194146752357,-0.2278339266777039,0.00532365869730711,0.0167345404624939,-0.008404776453971863,0.03449052572250366,2,-0.02831325010975136,-0.6405732795959496,0.143014946484901,-0.7539302575396972,0.9739935994148254,0.1405306756496429,-0.177728459239006,42.75110626220703,30.57177925109863,20.179443359375,2,8606.86043775,2,0,1580904891.101604,1580903939.50652,414,0.5962474,0,0,444.1992,1,0,1580904868.356961,8603.938647999999,0,2.621185,97.17265
1580904891.345622,150,0,1580904337.000819,41.20701635159924,29.07533761282497,172.748,-1,-1,5.74967098236084,48.00724964208526,-9999,8607.118811291668,1.003036499023438,0.1196441650390625,-0.1678619384765625,8607.113775291667,-0.2575118040381877,1.38784721608385,-0.1412168479691154,0.01954849250614643,-0.2488545924425125,-0.02471563406288624,0.02779495716094971,-0.0068369060754776,0.03705042600631714,2,-0.02812927603726897,-0.639647662753,0.1432081353072678,-0.7546860548058948,0.9735230207443237,0.1407479494810104,-0.1801192164421082,42.78569793701172,30.61832237243652,19.86187744140625,2,8606.86043775,2,0,1580904891.101604,1580903939.50652,414,0.5962474,0,0,444.1992,1,0,1580904868.356961,8603.938647999999,0,2.621185,97.17265
1580904891.356042,151,0,1580904337.000819,41.20701635159924,29.07533761282497,172.748,-1,-1,5.74967098236084,48.00724964208526,-9999,8607.128851291667,1.007644653320312,0.1207275390625,-0.16546630859375,8607.123815291667,-0.2577610278867198,1.385379880479458,-0.1419460638171186,0.01271242462098598,-0.2420885562896729,-0.07772745192050934,0.0295339822769165,-0.02190247178077698,0.01419615745544434,2,-0.02775251340284873,-0.6387322996050314,0.1435646561322836,-0.7554071334932715,0.972974419593811,0.1414698660373688,-0.1825016885995865,42.78569793701172,30.61832237243652,19.86187744140625,2,8606.86043775,2,0,1580904891.101604,1580903939.50652,414,0.5962474,0,0,444.1992,1,0,1580904868.356961,8603.938647999999,0,2.621185,97.17265
1580904891.365814,152,0,1580904337.000819,41.20701635159924,29.07533761282497,172.748,-1,-1,5.74967098236084,48.00724964208526,-9999,8607.138891291666,0.970367431640625,0.1258392333984375,-0.166473388671875,8607.133856291668,-0.2580108285595494,1.382823292277585,-0.1431151924220336,0.00394489848986268,-0.2639291286468506,-0.1207761317491531,0.0347754955291748,-0.0219770073890686,0.01904898881912231,2,-0.02719977671945378,-0.6377941644415729,0.1440590403903225,-0.7561254102539843,0.9723414778709412,0.1426271498203278,-0.1849575489759445,42.97747802734375,30.50062370300293,19.73483276367188,2,8606.86043775,2,0,1580904891.101604,1580903939.50652,414,0.5962474,0,0,444.1992,1,0,1580904868.356961,8603.938647999999,0,2.621185,97.17265
1580904891.40118,153,0,1580904337.000819,41.20701635159924,29.07533761282497,172.748,-1,-1,5.74967098236084,48.00724964208526,-9999,8607.148931291667,0.92578125,0.11627197265625,-0.2088470458984375,8607.143896291667,-0.258205035873079,1.381108682473367,-0.1445749349215835,-0.007603366859257221,-0.1696974337100983,-0.1483675539493561,-0.00197756290435791,-0.01831077039241791,0.01967018842697144,2,-0.02657729653384938,-0.6371821833920509,0.1446104113335692,-0.7565581953383476,0.9718174934387207,0.1440718173980713,-0.1865850239992142,42.97747802734375,30.50062370300293,19.73483276367188,2,8606.86043775,2,0,1580904891.101604,1580903939.50652,414,0.5962474,0,0,444.1992,1,0,1580904868.356961,8603.938647999999,0,2.621185,97.17265
1580904891.402456,154,0,1580904337.000819,41.20701635159924,29.07533761282497,172.748,-1,-1,5.74967098236084,48.00724964208526,-9999,8607.158972291667,0.9535980224609375,0.1219635009765625,-0.1968231201171875,8607.153936291666,-0.258340491460292,1.380213804507452,-0.1462248678084486,-0.01837337389588356,-0.08427678793668747,-0.1637052297592163,-0.04616159200668335,-0.02951148152351379,-0.02187889814376831,2,-0.02592157725685654,-0.6368857111307209,0.1451870332216797,-0.7567201344499923,0.9714154601097107,0.1457043290138245,-0.1874093264341354,42.91937255859375,30.6169548034668,19.80758666992188,2,8606.86043775,2,0,1580904891.101604,1580903939.50652,414,0.5962474,0,0,444.1992,1,0,1580904868.356961,8603.938647999999,0,2.621185,97.17265
1580904891.403433,155,0,1580904337.000819,41.20701635159924,29.07533761282497,172.748,-1,-1,5.74967098236084,48.00724964208526,-9999,8607.169012291668,0.98291015625,0.136016845703125,-0.177032470703125,8607.163977291668,-0.2584778343598022,1.379478246408628,-0.1480674712427079,-0.02296972274780273,-0.07327074557542801,-0.1856129169464111,-0.01794135570526123,-0.02564366161823273,-0.009191811084747314,2,-0.02520348795035814,-0.6366542080322565,0.1458216112545941,-0.7568170496873712,0.9710119366645813,0.1475270241498947,-0.1880724132061005,42.91937255859375,30.6169548034668,19.80758666992188,2,8606.86043775,2,0,1580904891.101604,1580903939.50652,414,0.5962474,0,0,444.1992,1,0,1580904868.356961,8603.938647999999,0,2.621185,97.17265
1580904891.405875,156,0,1580904337.000819,41.20701635159924,29.07533761282497,172.748,-1,-1,5.74967098236084,48.00724964208526,-9999,8607.179083291667,0.9583740234375,0.1385650634765625,-0.16986083984375,8607.174017291667,-0.2586693197397936,1.378911307731902,-0.1500403309037652,-0.01896554045379162,-0.05520546436309814,-0.1975951790809631,0.01176512241363525,-0.01354233920574188,0.0110938549041748,2,-0.02446436755324685,-0.6364887824139371,0.1465144184389049,-0.756846812669247,0.9706177711486816,0.1494780033826828,-0.188567042350769,42.82230377197266,30.78704261779785,19.48736572265625,2,8606.86043775,2,0,1580904891.101604,1580903939.50652,414,0.5962474,0,0,444.1992,1,0,1580904868.356961,8603.938647999999,0,2.621185,97.17265
1580904891.416189,157,0,1580904337.000819,41.20701635159924,29.07533761282497,172.748,-1,-1,5.74967098236084,48.00724964208526,-9999,8607.189123291668,0.952880859375,0.14556884765625,-0.1624908447265625,8607.184057291668,-0.2589315007655366,1.378569367005454,-0.1521152490365446,-0.01641609705984592,-0.03276193886995316,-0.2108665108680725,-0.01239985227584839,-0.01304659247398376,0.01853758096694946,2,-0.02372468237493701,-0.6364098673824299,0.1472624599731233,-0.7567914083356133,0.9702465534210205,0.1515292972326279,-0.1888392418622971,42.82230377197266,30.78704261779785,19.48736572265625,2,8606.86043775,2,0,1580904891.101604,1580903939.50652,414,0.5962474,0,0,444.1992,1,0,1580904868.356961,8603.938647999999,0,2.621185,97.17265
1580904891.425917,158,0,1580904337.000819,41.20701635159924,29.07533761282497,172.748,-1,-1,5.74967098236084,48.00724964208526,-9999,8607.199163291667,0.9455108642578125,0.1605224609375,-0.1270294189453125,8607.194097291667,-0.2594502555938001,1.37841392876205,-0.1540560002411764,0.01004347391426563,-0.009898968040943146,-0.2002793848514557,-0.01757317781448364,-0.00796191394329071,0.02600175142288208,2,-0.02313175846144112,-0.6363946736253763,0.1480633021319137,-0.7566663324474787,0.9699267745018005,0.1534473448991776,-0.188933476805687,42.77588653564453,30.95535278320312,19.60403442382812,2,8606.86043775,2,0,1580904891.101604,1580903939.50652,414,0.5962474,0,0,444.1992,1,0,1580904868.356961,8603.938647999999,0,2.621185,97.17265
1580904891.458276,159,0,1580904337.000819,41.20701635159924,29.07533761282497,172.748,-1,-1,5.74967098236084,48.00724964208526,-9999,8607.209204291667,0.98773193359375,0.1628875732421875,-0.104736328125,8607.204138291667,-0.260430277215562,1.37798352804188,-0.1557648234551621,0.06405957043170929,-0.02209384925663471,-0.1872083246707916,-0.02460289001464844,0.005302414298057556,0.06183022260665894,2,-0.02275423139226522,-0.6362641331357676,0.1489694625941065,-0.7566096808812111,0.9695865511894226,0.1551357060670853,-0.1893004029989243,42.77588653564453,30.95535278320312,19.60403442382812,2,8606.86043775,2,0,1580904891.101604,1580903939.50652,414,0.5962474,0,0,444.1992,1,0,1580904868.356961,8603.938647999999,0,2.621185,97.17265
1580904891.459646,160,0,1580904337.000819,41.20701635159924,29.07533761282497,172.748,-1,-1,5.74967098236084,48.00724964208526,-9999,8607.219244291668,1.021835327148438,0.158172607421875,-0.136749267578125,8607.214178291668,-0.2616889880212381,1.376667790937092,-0.1573826611797886,0.0915556475520134,-0.1164650917053223,-0.1809863746166229,0.0181158185005188,0.006068602204322815,0.08535087108612061,2,-0.02243359757937052,-0.6357932722655792,0.1499623444203412,-0.7568189556144101,0.9690892100334167,0.1567337512969971,-0.1905272901058197,42.76094818115234,31.12554359436035,19.50607299804688,2,8606.86043775,2,0,1580904891.101604,1580903939.50652,414,0.5962474,0,0,444.1992,1,0,1580904868.356961,8603.938647999999,0,2.621185,97.17265
1580904891.460797,161,0,1580904337.000819,41.20701635159924,29.07533761282497,172.748,-1,-1,5.74967098236084,48.00724964208526,-9999,8607.229284291667,1.03070068359375,0.143280029296875,-0.1881561279296875,8607.224249291667,-0.2630188993445502,1.374829959597554,-0.1592818644031918,0.09328696876764297,-0.1657309085130692,-0.2123144716024399,0.05286508798599243,-0.0005228221416473389,0.05506134033203125,2,-0.02198652449346544,-0.6351312849181581,0.1510743791488516,-0.7571666582588064,0.9684436917304993,0.1586091965436935,-0.1922496855258942,42.76094818115234,31.12554359436035,19.50607299804688,2,8606.86043775,2,0,1580904891.101604,1580903939.50652,414,0.5962474,0,0,444.1992,1,0,1580904868.356961,8603.938647999999,0,2.621185,97.17265
