loggingTime,loggingSample,identifierForVendor,locationTimestamp_since1970,locationLatitude,locationLongitude,locationAltitude,locationSpeed,locationCourse,locationVerticalAccuracy,locationHorizontalAccuracy,locationFloor,accelerometerTimestamp_sinceReboot,accelerometerAccelerationX,accelerometerAccelerationY,accelerometerAccelerationZ,motionTimestamp_sinceReboot,motionYaw,motionRoll,motionPitch,motionRotationRateX,motionRotationRateY,motionRotationRateZ,motionUserAccelerationX,motionUserAccelerationY,motionUserAccelerationZ,motionAttitudeReferenceFrame,motionQuaternionX,motionQuaternionY,motionQuaternionZ,motionQuaternionW,motionGravityX,motionGravityY,motionGravityZ,motionMagneticFieldX,motionMagneticFieldY,motionMagneticFieldZ,motionMagneticFieldCalibrationAccuracy,activityTimestamp_sinceReboot,activity,activityActivityConfidence,activityActivityStartDate,pedometerStartDate,pedometerNumberofSteps,pedometerAverageActivePace,pedometerCurrentPace,pedometerCurrentCadence,pedometerDistance,pedometerFloorAscended,pedometerFloorDescended,pedometerEndDate,altimeterTimestamp_sinceReboot,altimeterReset,altimeterRelativeAltitude,altimeterPressure
1580908790.179138,1,0,1580907286.99823,41.20781296037784,29.0754925099451,275.2123,0.1345286,-1,23.46983528137207,200,-9999,12505.936980375,0.956634521484375,0.1092987060546875,-0.196533203125,12505.926940375,1.745406113414357,1.365926083989732,-0.1140916392106887,-0.004907133523374796,0.001215849071741104,0.004089241847395897,-0.01366633176803589,-0.002141997218132019,0.01080894470214844,2,0.5111025412208089,-0.371100337135269,-0.570150329534531,-0.5253449122371161,0.9727219343185425,0.1138442829251289,-0.202117457985878,32.02393341064453,5.747112274169922,14.96893310546875,2,12504.05956279167,4,2,1580908788.300729,1580903939.50652,2968,0.4879909,0,0,3568.739,14,15,1580908786.772968,12503.460412,0,16.96106,97.00624
1580908790.180542,2,0,1580907286.99823,41.20781296037784,29.0754925099451,275.2123,0.1345286,-1,23.46983528137207,200,-9999,12505.947020375,0.9540557861328125,0.108001708984375,-0.199066162109375,12505.936980375,1.74540505101884,1.365955475152851,-0.1140518664566328,0.00291272159665823,0.004448702558875084,0.004113807342946529,-0.01906311511993408,-0.004665791988372803,0.003716409206390381,2,0.5111013621810953,-0.3711205955227594,-0.5701512792206991,-0.5253307566185047,0.9727323055267334,0.1138047650456429,-0.2020898014307022,32.06348419189453,5.667160034179688,15.19735717773438,2,12504.05956279167,4,2,1580908788.300729,1580903939.50652,2968,0.4879909,0,0,3568.739,14,15,1580908786.772968,12503.460412,0,16.96106,97.00624
1580908790.182048,3,0,1580907286.99823,41.20781296037784,29.0754925099451,275.2123,0.1345286,-1,23.46983528137207,200,-9999,12505.957060375,0.952301025390625,0.1070556640625,-0.2020721435546875,12505.947020375,1.745424511999568,1.36603761883818,-0.1140329501714497,-0.001556329429149628,0.008183518424630165,0.002002986147999763,-0.02219462394714355,-0.006096482276916504,-0.000147402286529541,2,0.5111239106160543,-0.3711430573585359,-0.5701395907720138,-0.5253057655492388,0.9727511405944824,0.1137859746813774,-0.2020103633403778,32.06348419189453,5.667160034179688,15.19735717773438,2,12504.05956279167,4,2,1580908788.300729,1580903939.50652,2968,0.4879909,0,0,3568.739,14,15,1580908786.772968,12503.460412,0,16.96106,97.00624
1580908790.183102,4,0,1580907286.99823,41.20781296037784,29.0754925099451,275.2123,0.1345286,-1,23.46983528137207,200,-9999,12505.967101375,0.9591827392578125,0.109466552734375,-0.1974029541015625,12505.957060375,1.745442947286615,1.36623470541302,-0.1140441368306041,-0.001870491541922092,0.02138893865048885,-0.0007534520700573921,-0.02421706914901733,-0.007419943809509277,-0.002964913845062256,2,0.5111861836603341,-0.371186624391299,-0.570091554711686,-0.5252663543840803,0.9727895259857178,0.1137970834970474,-0.2018183469772339,32.27082061767578,5.693708419799805,15.18588256835938,2,12504.05956279167,4,2,1580908788.300729,1580903939.50652,2968,0.4879909,0,0,3568.739,14,15,1580908786.772968,12503.460412,0,16.96106,97.00624
1580908790.184268,5,0,1580907286.99823,41.20781296037784,29.0754925099451,275.2123,0.1345286,-1,23.46983528137207,200,-9999,12505.977141375,0.96075439453125,0.1104736328125,-0.1936798095703125,12505.967101375,1.745464674529434,1.366410991394035,-0.1140664728648702,-0.002851333934813738,0.01869621314108372,-0.001206189393997192,-0.01829928159713745,-0.00501607358455658,0.0002651214599609375,2,0.5112457314683141,-0.3712204690109497,-0.5700472766924884,-0.5252324658281069,0.9728225469589233,0.1138192787766457,-0.2016463279724121,32.27082061767578,5.693708419799805,15.18588256835938,2,12504.05956279167,4,2,1580908788.300729,1580903939.50652,2968,0.4879909,0,0,3568.739,14,15,1580908786.772968,12503.460412,0,16.96106,97.00624
1580908790.188566,6,0,1580907286.99823,41.20781296037784,29.0754925099451,275.2123,0.1345286,-1,23.46983528137207,200,-9999,12505.987181375,0.95306396484375,0.1102447509765625,-0.197601318359375,12505.977141375,1.745493961423921,1.366512124991399,-0.1140819720490276,-0.004668610170483589,0.008334510028362274,-0.002252407371997833,-0.01526618003845215,-0.003749772906303406,0.00491178035736084,2,0.5112835724676223,-0.3712348223982668,-0.5700257932908868,-0.5252090553859248,0.9728414416313171,0.1138346791267395,-0.2015476375818253,32.25357055664062,5.68071174621582,15.17617797851562,2,12504.05956279167,4,2,1580908788.300729,1580903939.50652,2968,0.4879909,0,0,3568.739,14,15,1580908786.772968,12503.460412,0,16.96106,97.00624
1580908790.198727,7,0,1580907286.99823,41.20781296037784,29.0754925099451,275.2123,0.1345286,-1,23.46983528137207,200,-9999,12505.997252375,0.95367431640625,0.10833740234375,-0.1964874267578125,12505.987181375,1.745509203501979,1.366644256418822,-0.1140561809696054,-0.0005167415365576744,0.01435751281678677,0.002244606614112854,-0.02315419912338257,-0.003739327192306519,0.001059949398040771,2,0.5113180214432218,-0.3712735493098303,-0.5700016481723654,-0.5251742556088805,0.9728708267211914,0.1138090491294861,-0.2014196664094925,32.25357055664062,5.68071174621582,15.17617797851562,2,12504.05956279167,4,2,1580908788.300729,1580903939.50652,2968,0.4879909,0,0,3568.739,14,15,1580908786.772968,12503.460412,0,16.96106,97.00624
1580908790.222078,8,0,1580907286.99823,41.20781296037784,29.0754925099451,275.2123,0.1345286,-1,23.46983528137207,200,-9999,12506.007292375,0.9507598876953125,0.10833740234375,-0.1993560791015625,12505.997252375,1.745562273408307,1.366831318907324,-0.1140190030428023,-0.004838768858462572,0.01778759062290192,0.003980314359068871,-0.02293670177459717,-0.005868986248970032,0.001656293869018555,2,0.5113724807548145,-0.3713205241293723,-0.569975875614145,-0.5251158578491486,0.9729125499725342,0.1137721166014671,-0.2012385129928589,32.20906829833984,5.700668334960938,15.19439697265625,2,12504.05956279167,4,2,1580908788.300729,1580903939.50652,2968,0.4879909,0,0,3568.739,14,15,1580908786.772968,12503.460412,0,16.96106,97.00624
1580908790.223554,9,0,1580907286.99823,41.20781296037784,29.0754925099451,275.2123,0.1345286,-1,23.46983528137207,200,-9999,12506.017333375,0.9571380615234375,0.1089630126953125,-0.19598388671875,12506.007292375,1.745605454082771,1.367107133266996,-0.1139561729380065,-0.0008488213643431664,0.02847592160105705,0.006967316381633282,-0.0258374810218811,-0.005745306611061096,-0.001419246196746826,2,0.511444339126884,-0.3714012488183095,-0.5699304729410728,-0.5250380455935738,0.9729750156402588,0.1137096956372261,-0.2009716033935547,32.20906829833984,5.700668334960938,15.19439697265625,2,12504.05956279167,4,2,1580908788.300729,1580903939.50652,2968,0.4879909,0,0,3568.739,14,15,1580908786.772968,12503.460412,0,16.96106,97.00624
1580908790.228882,10,0,1580907286.99823,41.20781296037784,29.0754925099451,275.2123,0.1345286,-1,23.46983528137207,200,-9999,12506.027373375,0.960052490234375,0.1104278564453125,-0.1945648193359375,12506.017333375,1.745651804687876,1.367329084009388,-0.1138935332085926,-0.003746707458049059,0.02177666127681732,0.006423171609640121,-0.02025860548019409,-0.005270779132843018,0.001249551773071289,2,0.5115014490418366,-0.3714669799275025,-0.5698996656354905,-0.524969456444929,0.9730266332626343,0.1136474609375,-0.2007571011781693,32.13462066650391,5.498001098632812,15.34234619140625,2,12504.05956279167,4,2,1580908788.300729,1580903939.50652,2968,0.4879909,0,0,3568.739,14,15,1580908786.772968,12503.460412,0,16.96106,97.00624
1580908790.238844,11,0,1580907286.99823,41.20781296037784,29.0754925099451,275.2123,0.1345286,-1,23.46983528137207,200,-9999,12506.037413375,0.961151123046875,0.1107025146484375,-0.1942901611328125,12506.027373375,1.745677841787475,1.367499809696741,-0.1138422939186731,-0.001260646618902683,0.01765941455960274,0.005221021361649036,-0.01691120862960815,-0.003861695528030396,0.003143906593322754,2,0.5115429118487245,-0.3715208996143075,-0.5698740620286762,-0.524918622187259,0.9730665683746338,0.1135965511202812,-0.2005921453237534,32.13462066650391,5.498001098632812,15.34234619140625,2,12504.05956279167,4,2,1580908788.300729,1580903939.50652,2968,0.4879909,0,0,3568.739,14,15,1580908786.772968,12503.460412,0,16.96106,97.00624
1580908790.248932,12,0,1580907286.99823,41.20781296037784,29.0754925099451,275.2123,0.1345286,-1,23.46983528137207,200,-9999,12506.047453375,0.9620513916015625,0.1098175048828125,-0.194580078125,12506.037413375,1.745698012419576,1.367599504422639,-0.1138086513379074,-0.001436673104763031,0.009699854999780655,0.003629976883530617,-0.01592803001403809,-0.003400877118110657,0.003230452537536621,2,0.5115671549668822,-0.3715522746603475,-0.5698612514358881,-0.524886723966973,0.9730902910232544,0.1135631278157234,-0.2004959136247635,32.34265899658203,5.3011474609375,15.12265014648438,2,12504.05956279167,4,2,1580908788.300729,1580903939.50652,2968,0.4879909,0,0,3568.739,14,15,1580908786.772968,12503.460412,0,16.96106,97.00624
1580908790.259356,13,0,1580907286.99823,41.20781296037784,29.0754925099451,275.2123,0.1345286,-1,23.46983528137207,200,-9999,12506.057494375,0.962432861328125,0.1094970703125,-0.1935272216796875,12506.047453375,1.745690937675026,1.367645101034757,-0.1137834246169797,0.001705590635538101,0.005969831719994545,0.002829430624842644,-0.01467353105545044,-0.004016593098640442,0.002728819847106934,2,0.5115728754214303,-0.3715738490878645,-0.5698533099147569,-0.5248746224615675,0.973102331161499,0.1135380640625954,-0.200452134013176,32.34265899658203,5.3011474609375,15.12265014648438,2,12504.05956279167,4,2,1580908788.300729,1580903939.50652,2968,0.4879909,0,0,3568.739,14,15,1580908786.772968,12503.460412,0,16.96106,97.00624
1580908790.282252,14,0,1580907286.99823,41.20781296037784,29.0754925099451,275.2123,0.1345286,-1,23.46983528137207,200,-9999,12506.067534375,0.9619903564453125,0.11102294921875,-0.1927642822265625,12506.057494375,1.745685213877614,1.367601626286437,-0.113772138331707,0.001273979432880878,-0.003834988921880722,0.000781661830842495,-0.01446777582168579,-0.004463091492652893,0.003641188144683838,2,0.5115567826249044,-0.3715673715822712,-0.5698653940135729,-0.5248817357943525,0.9730948805809021,0.113526850938797,-0.2004946917295456,32.26277923583984,5.672235488891602,15.10430908203125,2,12504.05956279167,4,2,1580908788.300729,1580903939.50652,2968,0.4879909,0,0,3568.739,14,15,1580908786.772968,12503.460412,0,16.96106,97.00624
1580908790.283695,15,0,1580907286.99823,41.20781296037784,29.0754925099451,275.2123,0.1345286,-1,23.46983528137207,200,-9999,12506.077574375,0.9541473388671875,0.112274169921875,-0.1957855224609375,12506.067534375,1.745688117319883,1.367438288691554,-0.1137369302922506,0.0003919405862689018,-0.01722216606140137,0.003876521252095699,-0.01460659503936768,-0.003130987286567688,0.004793405532836914,2,0.5115024981387504,-0.3715346157455789,-0.5699156744211524,-0.5249032746643005,0.9730660319328308,0.1134918704628944,-0.2006544470787048,32.26277923583984,5.672235488891602,15.10430908203125,2,12504.05956279167,4,2,1580908788.300729,1580903939.50652,2968,0.4879909,0,0,3568.739,14,15,1580908786.772968,12503.460412,0,16.96106,97.00624
1580908790.289374,16,0,1580907286.99823,41.20781296037784,29.0754925099451,275.2123,0.1345286,-1,23.46983528137207,200,-9999,12506.087645375,0.954254150390625,0.10968017578125,-0.1977996826171875,12506.077574375,1.745661424810173,1.367262830238367,-0.1136601614417338,0.004437205381691456,-0.01751254126429558,0.007066325284540653,-0.02199554443359375,-0.001421749591827393,0.002479314804077148,2,0.5114295203476358,-0.3715190217506422,-0.5699703666521534,-0.5249259593848862,0.9730393290519714,0.1134155988693237,-0.2008269280195236,32.15299224853516,5.691492080688477,14.92138671875,2,12504.05956279167,4,2,1580908788.300729,1580903939.50652,2968,0.4879909,0,0,3568.739,14,15,1580908786.772968,12503.460412,0,16.96106,97.00624
1580908790.299111,17,0,1580907286.99823,41.20781296037784,29.0754925099451,275.2123,0.1345286,-1,23.46983528137207,200,-9999,12506.097685375,0.957763671875,0.1096038818359375,-0.19580078125,12506.087645375,1.745615264917456,1.367099131282227,-0.1135590728455284,0.006602088920772076,-0.01540917623788118,0.008942256681621075,-0.02319461107254028,-0.003899648785591125,-0.0001202225685119629,2,0.5113505114032009,-0.3715190212529405,-0.5700223273538533,-0.5249466095917417,0.973017692565918,0.1133151575922966,-0.2009885460138321,32.15283966064453,5.507013320922852,15.09854125976562,2,12504.05956279167,4,2,1580908788.300729,1580903939.50652,2968,0.4879909,0,0,3568.739,14,15,1580908786.772968,12503.460412,0,16.96106,97.00624
1580908790.309293,18,0,1580907286.99823,41.20781296037784,29.0754925099451,275.2123,0.1345286,-1,23.46983528137207,200,-9999,12506.107726375,0.9619140625,0.1106109619140625,-0.1943206787109375,12506.097685375,1.745551865729064,1.366934390751722,-0.1134518908283259,0.007917124778032303,-0.01442589797079563,0.01028269622474909,-0.01911443471908569,-0.004219993948936462,0.002316653728485107,2,0.5112665998151312,-0.3715249944647396,-0.5700713092902316,-0.5249708744705296,0.9729964137077332,0.1132086664438248,-0.2011512815952301,32.15283966064453,5.507013320922852,15.09854125976562,2,12504.05956279167,4,2,1580908788.300729,1580903939.50652,2968,0.4879909,0,0,3568.739,14,15,1580908786.772968,12503.460412,0,16.96106,97.00624
1580908790.319182,19,0,1580907286.99823,41.20781296037784,29.0754925099451,275.2123,0.1345286,-1,23.46983528137207,200,-9999,12506.117766375,0.9582672119140625,0.1097869873046875,-0.1938323974609375,12506.107726375,1.745455180316932,1.366675624564734,-0.1133467749013421,0.01250175759196281,-0.02631158567965031,0.008193713612854481,-0.01522868871688843,-0.00295548141002655,0.003746569156646729,2,0.5111502008130719,-0.37151413178545,-0.5701350926376534,-0.525022502359379,0.9729558825492859,0.1131042242050171,-0.2014054507017136,32.09100341796875,5.446704864501953,15.1431884765625,2,12504.05956279167,4,2,1580908788.300729,1580903939.50652,2968,0.4879909,0,0,3568.739,14,15,1580908786.772968,12503.460412,0,16.96106,97.00624
1580908790.346211,20,0,1580907286.99823,41.20781296037784,29.0754925099451,275.2123,0.1345286,-1,23.46983528137207,200,-9999,12506.127806375,0.95159912109375,0.105224609375,-0.1973419189453125,12506.117766375,1.745364723974179,1.36636353371859,-0.1132179819218072,0.01217927783727646,-0.03002375736832619,0.01089208293706179,-0.01751458644866943,-0.003406882286071777,0.005137741565704346,2,0.5110141124197672,-0.3714950163776172,-0.5702193876772981,-0.5250770655422605,0.9729073643684387,0.1129762604832649,-0.2017120569944382,32.09100341796875,5.446704864501953,15.1431884765625,2,12504.05956279167,4,2,1580908788.300729,1580903939.50652,2968,0.4879909,0,0,3568.739,14,15,1580908786.772968,12503.460412,0,16.96106,97.00624
1580908790.347743,21,0,1580907286.99823,41.20781296037784,29.0754925099451,275.2123,0.1345286,-1,23.46983528137207,200,-9999,12506.137847375,0.9402313232421875,0.1007843017578125,-0.2099456787109375,12506.127806375,1.745350399145089,1.366145528865582,-0.1131120197403243,0.003121067769825459,-0.0250558964908123,0.01140154618769884,-0.0242571234703064,-0.00728374719619751,0.002225041389465332,2,0.5109243398442009,-0.3714741121892586,-0.5702946045037461,-0.5250976487163118,0.97287517786026,0.1128709763288498,-0.2019266039133072,32.09834289550781,5.48260498046875,15.1116943359375,2,12504.05956279167,4,2,1580908788.300729,1580903939.50652,2968,0.4879909,0,0,3568.739,14,15,1580908786.772968,12503.460412,0,16.96106,97.00624
1580908790.349278,22,0,1580907286.99823,41.20781296037784,29.0754925099451,275.2123,0.1345286,-1,23.46983528137207,200,-9999,12506.147887375,0.948089599609375,0.1036834716796875,-0.206390380859375,12506.137847375,1.745351057446053,1.366334792238352,-0.113086062766788,0.001656409353017807,0.02227277867496014,0.002595274709165096,-0.03581887483596802,-0.0128120630979538,-0.01013588905334473,2,0.5109723486254956,-0.3715316058800527,-0.5702520856114321,-0.525056328207152,0.9729161262512207,0.1128451824188232,-0.2017430514097214,32.09834289550781,5.48260498046875,15.1116943359375,2,12504.05956279167,4,2,1580908788.300729,1580903939.50652,2968,0.4879909,0,0,3568.739,14,15,1580908786.772968,12503.460412,0,16.96106,97.00624
1580908790.359876,23,0,1580907286.99823,41.20781296037784,29.0754925099451,275.2123,0.1345286,-1,23.46983528137207,200,-9999,12506.157927375,0.961090087890625,0.1074676513671875,-0.19744873046875,12506.147887375,1.745395809392189,1.366738383686501,-0.1131355438050542,-0.007510989904403687,0.03983952105045319,-0.003920681774616241,-0.03027975559234619,-0.009748607873916626,-0.009417295455932617,2,0.511107375519068,-0.3716108642781201,-0.5701498379511045,-0.5249798014743829,0.972991943359375,0.1128943488001823,-0.2013492286205292,32.10623168945312,5.41139030456543,15.15103149414062,2,12504.05956279167,4,2,1580908788.300729,1580903939.50652,2968,0.4879909,0,0,3568.739,14,15,1580908786.772968,12503.460412,0,16.96106,97.00624
1580908790.369205,24,0,1580907286.99823,41.20781296037784,29.0754925099451,275.2123,0.1345286,-1,23.46983528137207,200,-9999,12506.167967375,0.9689178466796875,0.1089324951171875,-0.1903228759765625,12506.157927375,1.745431963687643,1.367127502950707,-0.1132159353925124,-0.003590630833059549,0.04097318649291992,-0.007100765593349934,-0.01676911115646362,-0.006365075707435608,-7.94529914855957e-05,2,0.511243917796536,-0.3716789916183504,-0.5700422273813458,-0.5249154543141463,0.9730613231658936,0.112974226474762,-0.2009687721729279,32.10623168945312,5.41139030456543,15.15103149414062,2,12504.05956279167,4,2,1580908788.300729,1580903939.50652,2968,0.4879909,0,0,3568.739,14,15,1580908786.772968,12503.460412,0,16.96106,97.00624
1580908790.379444,25,0,1580907286.99823,41.20781296037784,29.0754925099451,275.2123,0.1345286,-1,23.46983528137207,200,-9999,12506.178038375,0.9590911865234375,0.1103973388671875,-0.193206787109375,12506.167967375,1.745504764698096,1.367310695847499,-0.1132982313140028,-0.009934014640748501,0.01504172012209892,-0.006974797695875168,-0.00791633129119873,-0.004616096615791321,0.006896018981933594,2,0.5113290103860455,-0.3716831071701833,-0.5699964328816975,-0.5248793580206375,0.9730889797210693,0.1130559965968132,-0.2007886171340942,32.30751037597656,5.503173828125,15.1915283203125,2,12504.05956279167,4,2,1580908788.300729,1580903939.50652,2968,0.4879909,0,0,3568.739,14,15,1580908786.772968,12503.460412,0,16.96106,97.00624
1580908790.405507,26,0,1580907286.99823,41.20781296037784,29.0754925099451,275.2123,0.1345286,-1,23.46983528137207,200,-9999,12506.188078375,0.9518890380859375,0.113250732421875,-0.1969146728515625,12506.178038375,1.745585103526307,1.367445121980779,-0.1133272411656759,-0.007206048350781202,0.01216495595872402,-0.002480047754943371,-0.01630192995071411,-0.003531143069267273,0.005253434181213379,2,0.5113890832501173,-0.3716888964226591,-0.5699767615471427,-0.5248380374978441,0.9731127023696899,0.1130848154425621,-0.2006571441888809,32.30751037597656,5.503173828125,15.1915283203125,2,12504.05956279167,4,2,1580908788.300729,1580903939.50652,2968,0.4879909,0,0,3568.739,14,15,1580908786.772968,12503.460412,0,16.96106,97.00624
1580908790.406847,27,0,1580907286.99823,41.20781296037784,29.0754925099451,275.2123,0.1345286,-1,23.46983528137207,200,-9999,12506.198119375,0.9652252197265625,0.1144561767578125,-0.190673828125,12506.188078375,1.745675137553872,1.367576453370634,-0.1132148961757159,-0.006208960898220539,0.01305125840008259,0.01396257430315018,-0.02538931369781494,-0.0004131048917770386,0.0003670454025268555,2,0.5114168398579946,-0.3717349384348212,-0.5699914663339778,-0.5247624219046756,0.9731515049934387,0.112973190844059,-0.2005318999290466,32.18538665771484,5.647970199584961,15.07852172851562,2,12504.05956279167,4,2,1580908788.300729,1580903939.50652,2968,0.4879909,0,0,3568.739,14,15,1580908786.772968,12503.460412,0,16.96106,97.00624
1580908790.409627,28,0,1580907286.99823,41.20781296037784,29.0754925099451,275.2123,0.1345286,-1,23.46983528137207,200,-9999,12506.208159375,0.974700927734375,0.114837646484375,-0.1868896484375,12506.198119375,1.74573058165896,1.367535807397111,-0.1130102436033714,-0.002177830785512924,-0.005215976387262344,0.02138500660657883,-0.01296782493591309,0.00113379955291748,0.005965828895568848,2,0.5113674347756086,-0.3717731509358421,-0.5700613567409801,-0.5247077014233248,0.9731661081314087,0.1127698495984077,-0.2005761414766312,32.18538665771484,5.647970199584961,15.07852172851562,2,12504.05956279167,4,2,1580908788.300729,1580903939.50652,2968,0.4879909,0,0,3568.739,14,15,1580908786.772968,12503.460412,0,16.96106,97.00624
1580908790.419637,29,0,1580907286.99823,41.20781296037784,29.0754925099451,275.2123,0.1345286,-1,23.46983528137207,200,-9999,12506.218199375,0.986724853515625,0.11181640625,-0.1852264404296875,12506.208159375,1.745693119126823,1.367187084243463,-0.1127532961332252,0.009370699524879456,-0.03343722969293594,0.02480077743530273,-0.003297746181488037,0.002091988921165466,0.01087474822998047,2,0.5112006470028532,-0.371770384208249,-0.5701970715534957,-0.524724791178522,0.9731245040893555,0.1125145331025124,-0.200921356678009,32.11083984375,5.578842163085938,15.23928833007812,2,12504.05956279167,4,2,1580908788.300729,1580903939.50652,2968,0.4879909,0,0,3568.739,14,15,1580908786.772968,12503.460412,0,16.96106,97.00624
1580908790.429637,30,0,1580907286.99823,41.20781296037784,29.0754925099451,275.2123,0.1345286,-1,23.46983528137207,200,-9999,12506.228240375,0.979278564453125,0.1087493896484375,-0.1829833984375,12506.218199375,1.745573612229611,1.366420088366383,-0.11252733841396,0.01559299789369106,-0.07222496718168259,0.01851804740726948,0.00900876522064209,-0.0006428062915802002,0.01298713684082031,2,0.5109065875154901,-0.3716692610833717,-0.5704112555298816,-0.5248500252374571,0.9729949831962585,0.1122900098562241,-0.201672837138176,32.11083984375,5.578842163085938,15.23928833007812,2,12504.05956279167,4,2,1580908788.300729,1580903939.50652,2968,0.4879909,0,0,3568.739,14,15,1580908786.772968,12503.460412,0,16.96106,97.00624
1580908790.439673,31,0,1580907286.99823,41.20781296037784,29.0754925099451,275.2123,0.1345286,-1,23.46983528137207,200,-9999,12506.238280375,0.9500732421875,0.1020660400390625,-0.203338623046875,12506.228240375,1.745430021900608,1.365279237496925,-0.1123816408209719,0.01729555614292622,-0.1157418116927147,0.008656095713376999,0.004997730255126953,-0.003350868821144104,0.01706475019454956,2,0.5105202079752825,-0.3714513266792648,-0.570696773241401,-0.5250696959715073,0.972780168056488,0.1121452301740646,-0.2027860581874847,32.28807830810547,5.589899063110352,15.03689575195312,2,12504.05956279167,4,2,1580908788.300729,1580903939.50652,2968,0.4879909,0,0,3568.739,14,15,1580908786.772968,12503.460412,0,16.96106,97.00624
1580908790.470258,32,0,1580907286.99823,41.20781296037784,29.0754925099451,275.2123,0.1345286,-1,23.46983528137207,200,-9999,12506.248320375,0.9284515380859375,0.10308837890625,-0.2177734375,12506.238280375,1.745320803459993,1.364369295347434,-0.1122622477418363,0.01191047765314579,-0.09128913283348083,0.009893732145428658,-0.02293634414672852,-0.00989985466003418,0.0001950263977050781,2,0.5102120659098384,-0.3712771014222632,-0.5709265100773224,-0.5252428434490007,0.9726084470748901,0.1120265945792198,-0.203673928976059,32.28807830810547,5.589899063110352,15.03689575195312,2,12504.05956279167,4,2,1580908788.300729,1580903939.50652,2968,0.4879909,0,0,3568.739,14,15,1580908786.772968,12503.460412,0,16.96106,97.00624
1580908790.471504,33,0,1580907286.99823,41.20781296037784,29.0754925099451,275.2123,0.1345286,-1,23.46983528137207,200,-9999,12506.258360375,0.9361419677734375,0.1106109619140625,-0.205535888671875,12506.248320375,1.745218324368807,1.363969144769499,-0.1121282818665071,0.01273366250097752,-0.03686876222491264,0.009035395458340645,-0.0470084547996521,-0.00985775887966156,-0.01674526929855347,2,0.510047288296379,-0.3712393966655415,-0.5710309406724722,-0.5253158338805675,0.9725414514541626,0.111893467605114,-0.2040661424398422,32.32890319824219,5.583873748779297,14.89337158203125,2,12504.05956279167,4,2,1580908788.300729,1580903939.50652,2968,0.4879909,0,0,3568.739,14,15,1580908786.772968,12503.460412,0,16.96106,97.00624
1580908790.472562,34,0,1580907286.99823,41.20781296037784,29.0754925099451,275.2123,0.1345286,-1,23.46983528137207,200,-9999,12506.268431375,0.9601593017578125,0.1234893798828125,-0.1883392333984375,12506.258360375,1.745161644007006,1.363680935071382,-0.111772899171845,0.01290897373110056,-0.02428362891077995,0.03407784923911095,-0.04195290803909302,-0.002377405762672424,-0.006018698215484619,2,0.5098707290800578,-0.3712876800459312,-0.5711673291568288,-0.525304813456172,0.9725214242935181,0.1115403100848198,-0.2043545991182327,32.32890319824219,5.583873748779297,14.89337158203125,2,12504.05956279167,4,2,1580908788.300729,1580903939.50652,2968,0.4879909,0,0,3568.739,14,15,1580908786.772968,12503.460412,0,16.96106,97.00624
1580908790.479958,35,0,1580907286.99823,41.20781296037784,29.0754925099451,275.2123,0.1345286,-1,23.46983528137207,200,-9999,12506.278472375,0.969482421875,0.122955322265625,-0.18499755859375,12506.268431375,1.745079782315925,1.363005091067947,-0.1111377979437153,0.02012081444263458,-0.065239317715168,0.06097444146871567,-0.01820170879364014,0.01107355952262878,0.01226449012756348,2,0.5095127347505271,-0.3713267777366998,-0.5714570118692911,-0.5253094730458296,0.9724522233009338,0.1109091490507126,-0.205026388168335,32.51317596435547,5.419038772583008,14.86795043945312,2,12504.05956279167,4,2,1580908788.300729,1580903939.50652,2968,0.4879909,0,0,3568.739,14,15,1580908786.772968,12503.460412,0,16.96106,97.00624
1580908790.489822,36,0,1580907286.99823,41.20781296037784,29.0754925099451,275.2123,0.1345286,-1,23.46983528137207,200,-9999,12506.288512375,0.95513916015625,0.1073455810546875,-0.19830322265625,12506.278472375,1.744947845288064,1.361908309538008,-0.1103220235300573,0.03069773502647877,-0.1111598014831543,0.07745309174060822,-0.006314456462860107,0.01339806616306305,0.01860296726226807,2,0.5089822032996367,-0.3713237653057826,-0.5718799834369507,-0.5253657460218377,0.9723150134086609,0.1100983694195747,-0.2061115503311157,32.51317596435547,5.419038772583008,14.86795043945312,2,12504.05956279167,4,2,1580908788.300729,1580903939.50652,2968,0.4879909,0,0,3568.739,14,15,1580908786.772968,12503.460412,0,16.96106,97.00624
1580908790.500042,37,0,1580907286.99823,41.20781296037784,29.0754925099451,275.2123,0.1345286,-1,23.46983528137207,200,-9999,12506.298552375,0.943450927734375,0.113861083984375,-0.2107391357421875,12506.288512375,1.744840681496777,1.360777012201332,-0.1094168237138413,0.02877546288073063,-0.1155087426304817,0.08636269718408585,-0.01871985197067261,-0.0009575188159942627,0.007597088813781738,2,0.5084248937758348,-0.3713328583660175,-0.5723371865220468,-0.5254009431460522,0.9721782207489014,0.1091986298561096,-0.2072320729494095,32.27024841308594,5.197765350341797,14.9356689453125,2,12504.05956279167,4,2,1580908788.300729,1580903939.50652,2968,0.4879909,0,0,3568.739,14,15,1580908786.772968,12503.460412,0,16.96106,97.00624
1580908790.528092,38,0,1580907286.99823,41.20781296037784,29.0754925099451,275.2123,0.1345286,-1,23.46983528137207,200,-9999,12506.308592375,0.94366455078125,0.1113433837890625,-0.2116851806640625,12506.298552375,1.74466451752179,1.359933063688519,-0.1083534103286998,0.04078837484121323,-0.08264624327421188,0.1018394306302071,-0.03220701217651367,0.003262192010879517,-0.004906356334686279,2,0.5078990927343353,-0.3714837551393531,-0.5727372929853711,-0.5253668722398874,0.9721159934997559,0.1081415116786957,-0.2080766558647156,32.27024841308594,5.197765350341797,14.9356689453125,2,12504.05956279167,4,2,1580908788.300729,1580903939.50652,2968,0.4879909,0,0,3568.739,14,15,1580908786.772968,12503.460412,0,16.96106,97.00624
1580908790.529549,39,0,1580907286.99823,41.20781296037784,29.0754925099451,275.2123,0.1345286,-1,23.46983528137207,200,-9999,12506.318633375,0.9488525390625,0.10247802734375,-0.2105712890625,12506.308592375,1.744437439041993,1.359338078336056,-0.1072772106016582,0.04357617348432541,-0.05923918634653091,0.09819543361663818,-0.03187549114227295,0.00586216151714325,-0.006025373935699463,2,0.5074317003235459,-0.3717168350106012,-0.5730631690836512,-0.525298299984144,0.9721052646636963,0.1070715636014938,-0.2086793333292007,32.29683685302734,5.407863616943359,15.01913452148438,2,12506.309233375,2,0,1580908790.5504,1580903939.50652,2968,0.4879909,0,0,3568.739,14,15,1580908786.772968,12503.460412,0,16.96106,97.00624
1580908790.531006,40,0,1580907286.99823,41.20781296037784,29.0754925099451,275.2123,0.1345286,-1,23.46983528137207,200,-9999,12506.328673375,0.962371826171875,0.111297607421875,-0.200714111328125,12506.318633375,1.744140506944204,1.358879140866326,-0.1062125443274192,0.05111859738826752,-0.04082578420639038,0.09874776750802994,-0.0283198356628418,-0.004824414849281311,-0.00504988431930542,2,0.5069926742239916,-0.3719997003148218,-0.5733333598072932,-0.5252271491641372,0.9721202850341797,0.1060129553079605,-0.2091493010520935,32.29683685302734,5.407863616943359,15.01913452148438,2,12506.309233375,2,0,1580908790.5504,1580903939.50652,2968,0.4879909,0,0,3568.739,14,15,1580908786.772968,12503.460412,0,16.96106,97.00624
1580908790.540179,41,0,1580907286.99823,41.20781296037784,29.0754925099451,275.2123,0.1345286,-1,23.46983528137207,200,-9999,12506.338713375,0.9682159423828125,0.1148223876953125,-0.19525146484375,12506.328673375,1.743701021243128,1.3583015963538,-0.1052659902304493,0.06233343109488487,-0.05138415470719337,0.08365510404109955,-0.01454800367355347,0.005458816885948181,0.005041122436523438,2,0.5065208063250534,-0.3722509793361205,-0.5735701623114128,-0.5252457481079755,0.9720969200134277,0.1050716936588287,-0.2097317576408386,32.35753631591797,5.500694274902344,14.92807006835938,2,12506.309233375,2,0,1580908790.5504,1580903939.50652,2968,0.4879909,0,0,3568.739,14,15,1580908786.772968,12503.460412,0,16.96106,97.00624
1580908790.550405,42,0,1580907286.99823,41.20781296037784,29.0754925099451,275.2123,0.1345286,-1,23.46983528137207,200,-9999,12506.348784375,0.9615631103515625,0.1029815673828125,-0.2031707763671875,12506.338713375,1.743101956306689,1.357495225151002,-0.1045153870732628,0.07342062145471573,-0.07743778079748154,0.05742450058460236,-0.007405400276184082,0.01034329831600189,0.01236021518707275,2,0.5059997412105538,-0.3724220207476818,-0.5737801050616949,-0.525397408011586,0.9720042943954468,0.1043252125382423,-0.2105322033166885,32.35753631591797,5.500694274902344,14.92807006835938,2,12506.309233375,2,0,1580908790.5504,1580903939.50652,2968,0.4879909,0,0,3568.739,14,15,1580908786.772968,12503.460412,0,16.96106,97.00624
1580908790.5601,43,0,1580907286.99823,41.20781296037784,29.0754925099451,275.2123,0.1345286,-1,23.46983528137207,200,-9999,12506.358824375,0.9371185302734375,0.098236083984375,-0.2116241455078125,12506.348784375,1.742399104119047,1.356706161791633,-0.1037896014583245,0.08375554531812668,-0.07260520756244659,0.05836459994316101,-0.01230192184448242,-0.0003304183483123779,0.00627976655960083,2,0.505469848926569,-0.3726159620469293,-0.5739526772948883,-0.5255815150677754,0.9719116687774658,0.1036033630371094,-0.2113151550292969,32.55066680908203,5.40998649597168,14.8536376953125,2,12506.309233375,2,0,1580908790.5504,1580903939.50652,2968,0.4879909,0,0,3568.739,14,15,1580908786.772968,12503.460412,0,16.96106,97.00624
1580908790.587852,44,0,1580907286.99823,41.20781296037784,29.0754925099451,275.2123,0.1345286,-1,23.46983528137207,200,-9999,12506.368865375,0.92205810546875,0.08551025390625,-0.217864990234375,12506.358824375,1.741699373005133,1.356171090647931,-0.1031103270056236,0.08291132748126984,-0.04931240528821945,0.05301324278116226,-0.03627407550811768,-0.00397038459777832,-0.002155184745788574,2,0.5050242141274462,-0.3728612292494421,-0.5740514376019675,-0.5257280260840297,0.9718669652938843,0.1029277145862579,-0.2118500918149948,32.55066680908203,5.40998649597168,14.8536376953125,2,12506.309233375,2,0,1580908790.5504,1580903939.50652,2968,0.4879909,0,0,3568.739,14,15,1580908786.772968,12503.460412,0,16.96106,97.00624
1580908790.589231,45,0,1580907286.99823,41.20781296037784,29.0754925099451,275.2123,0.1345286,-1,23.46983528137207,200,-9999,12506.378905375,0.9273529052734375,0.081298828125,-0.216949462890625,12506.368865375,1.741087849039668,1.356075112800926,-0.1025008749464701,0.07216653972864151,-0.002421062439680099,0.04482588544487953,-0.05277931690216064,-0.01610296964645386,-0.008426368236541748,2,0.5047373832163328,-0.37317798942171,-0.5740472773291764,-0.5257834252686833,0.9719078540802002,0.102321483194828,-0.211956724524498,32.48296356201172,5.409605026245117,14.85986328125,2,12506.309233375,2,0,1580908790.5504,1580903939.50652,2968,0.4879909,0,0,3568.739,14,15,1580908786.772968,12503.460412,0,16.96106,97.00624
1580908790.590605,46,0,1580907286.99823,41.20781296037784,29.0754925099451,275.2123,0.1345286,-1,23.46983528137207,200,-9999,12506.388945375,0.926849365234375,0.0940093994140625,-0.213836669921875,12506.378905375,1.740595020509593,1.356295834468511,-0.1018901526567711,0.05986202135682106,0.02746112458407879,0.04933761060237885,-0.0489964485168457,-0.02144403755664825,-0.008826732635498047,2,0.5045631364996966,-0.3735482679803511,-0.5739946216274278,-0.5257452457939165,0.9720155000686646,0.1017139479517937,-0.2117554694414139,32.48296356201172,5.409605026245117,14.85986328125,2,12506.309233375,2,0,1580908790.5504,1580903939.50652,2968,0.4879909,0,0,3568.739,14,15,1580908786.772968,12503.460412,0,16.96106,97.00624
1580908790.600442,47,0,1580907286.99823,41.20781296037784,29.0754925099451,275.2123,0.1345286,-1,23.46983528137207,200,-9999,12506.398985375,0.9201812744140625,0.099700927734375,-0.2183380126953125,12506.388945375,1.740184545555904,1.356800323764369,-0.1011661485509757,0.05550215765833855,0.05339818447828293,0.06170346960425377,-0.04830563068389893,-0.008742839097976685,-0.005290329456329346,2,0.5044585455916856,-0.3740070280912479,-0.573916626010237,-0.5256045111477425,0.9721938371658325,0.1009936705231667,-0.2112806439399719,32.49098968505859,5.365541458129883,14.79339599609375,2,12506.309233375,2,0,1580908790.5504,1580903939.50652,2968,0.4879909,0,0,3568.739,14,15,1580908786.772968,12503.460412,0,16.96106,97.00624
1580908790.610436,48,0,1580907286.99823,41.20781296037784,29.0754925099451,275.2123,0.1345286,-1,23.46983528137207,200,-9999,12506.409026375,0.923187255859375,0.092742919921875,-0.21893310546875,12506.398985375,1.739829823951835,1.357716892858543,-0.1002852185248051,0.05250103026628494,0.09573159366846085,0.07855350524187088,-0.05551403760910034,-0.0005235522985458374,-0.01045370101928711,2,0.5044449685427448,-0.374608026492767,-0.573783504342148,-0.5253348250503889,0.972473680973053,0.1001172065734863,-0.2104081958532333,32.49098968505859,5.365541458129883,14.79339599609375,2,12506.309233375,2,0,1580908790.5504,1580903939.50652,2968,0.4879909,0,0,3568.739,14,15,1580908786.772968,12503.460412,0,16.96106,97.00624
1580908790.620402,49,0,1580907286.99823,41.20781296037784,29.0754925099451,275.2123,0.1345286,-1,23.46983528137207,200,-9999,12506.419066375,0.948394775390625,0.0888671875,-0.2120361328125,12506.409026375,1.739531241242824,1.359005312347352,-0.09933521803397981,0.04878645390272141,0.1319883912801743,0.08635923266410828,-0.05430638790130615,-0.006013870239257812,-0.01288175582885742,2,0.5045318758408295,-0.375313340552795,-0.5735863837012561,-0.5249630426745947,0.9728364944458008,0.09917193651199341,-0.2091749608516693,32.55261993408203,5.654947280883789,14.86093139648438,2,12506.309233375,2,0,1580908790.5504,1580903939.50652,2968,0.4879909,0,0,3568.739,14,15,1580908786.772968,12503.460412,0,16.96106,97.00624
1580908790.646552,50,0,1580907286.99823,41.20781296037784,29.0754925099451,275.2123,0.1345286,-1,23.46983528137207,200,-9999,12506.429106375,0.9897308349609375,0.08734130859375,-0.184906005859375,12506.419066375,1.739282407897695,1.360395630652232,-0.09833510671839921,0.04507336765527725,0.1474091857671738,0.09440439194440842,-0.03235560655593872,-0.009577244520187378,-0.008390307426452637,2,0.5046451224643598,-0.376047720613301,-0.57338754938494,-0.52454570715237,0.9732229113578796,0.09817670285701752,-0.2078428268432617,32.55261993408203,5.654947280883789,14.86093139648438,2,12506.309233375,2,0,1580908790.5504,1580903939.50652,2968,0.4879909,0,0,3568.739,14,15,1580908786.772968,12503.460412,0,16.96106,97.00624
1580908790.648041,51,0,1580907286.99823,41.20781296037784,29.0754925099451,275.2123,0.1345286,-1,23.46983528137207,200,-9999,12506.439177375,1.02362060546875,0.0900421142578125,-0.15765380859375,12506.429106375,1.738942762878519,1.36110956105767,-0.0975496299172907,0.04432661831378937,0.08196839690208435,0.06803829967975616,0.008420705795288086,-0.01034890115261078,0.0158306360244751,2,0.5045983977996191,-0.3765613965892827,-0.5732889759468427,-0.5243298315091156,0.9734461307525635,0.09739498794078827,-0.2071639448404312,32.42807769775391,5.363405227661133,14.86383056640625,2,12506.309233375,2,0,1580908790.5504,1580903939.50652,2968,0.4879909,0,0,3568.739,14,15,1580908786.772968,12503.460412,0,16.96106,97.00624
1580908790.650713,52,0,1580907286.99823,41.20781296037784,29.0754925099451,275.2123,0.1345286,-1,23.46983528137207,200,-9999,12506.449217375,1.022262573242188,0.10357666015625,-0.158966064453125,12506.439177375,1.73834753840541,1.360430267472651,-0.09713348946803953,0.0614963173866272,-0.06258921325206757,0.01892285607755184,0.04288530349731445,-0.007964789867401123,0.04554033279418945,2,0.504192211543782,-0.3766608857812164,-0.5733945726881033,-0.5245335247805925,0.9733446836471558,0.09698081761598587,-0.2078335881233215,32.42807769775391,5.363405227661133,14.86383056640625,2,12506.309233375,2,0,1580908790.5504,1580903939.50652,2968,0.4879909,0,0,3568.739,14,15,1580908786.772968,12503.460412,0,16.96106,97.00624
1580908790.660876,53,0,1580907286.99823,41.20781296037784,29.0754925099451,275.2123,0.1345286,-1,23.46983528137207,200,-9999,12506.459258375,0.965118408203125,0.1089935302734375,-0.1857147216796875,12506.449217375,1.737546618622017,1.358553028227861,-0.0967723057256497,0.0808766707777977,-0.1831007152795792,0.0149169284850359,0.0502326488494873,0.004618346691131592,0.04924285411834717,2,0.5034166795291963,-0.3764807514682957,-0.5737357001358324,-0.5250344788939669,0.9729869961738586,0.09662133455276489,-0.2096677869558334,32.31881713867188,5.518957138061523,14.765380859375,2,12506.309233375,2,0,1580908790.5504,1580903939.50652,2968,0.4879909,0,0,3568.739,14,15,1580908786.772968,12503.460412,0,16.96106,97.00624
1580908790.670673,54,0,1580907286.99823,41.20781296037784,29.0754925099451,275.2123,0.1345286,-1,23.46983528137207,200,-9999,12506.469298375,0.9148406982421875,0.0948944091796875,-0.2225799560546875,12506.459258375,1.736566787588488,1.356280258983791,-0.09641710737023615,0.1020778268575668,-0.2254584133625031,0.01356531400233507,-0.005426645278930664,0.01310616731643677,0.02626192569732666,2,0.5024950176414023,-0.3762390320223469,-0.5741268902810486,-0.5256626063598659,0.9725413918495178,0.09626778960227966,-0.2118858993053436,32.31881713867188,5.518957138061523,14.765380859375,2,12506.309233375,2,0,1580908790.5504,1580903939.50652,2968,0.4879909,0,0,3568.739,14,15,1580908786.772968,12503.460412,0,16.96106,97.00624
1580908790.68078,55,0,1580907286.99823,41.20781296037784,29.0754925099451,275.2123,0.1345286,-1,23.46983528137207,200,-9999,12506.479338375,0.9197540283203125,0.086517333984375,-0.2305450439453125,12506.469298375,1.735507213886907,1.354656950141972,-0.09608858051133944,0.1109639853239059,-0.1489671021699905,0.01001478638499975,-0.05757081508636475,0.0001287758350372314,-0.008630514144897461,2,0.5017507723189573,-0.3761789337096418,-0.5743270401703691,-0.5261977464486243,0.9722270965576172,0.09594078361988068,-0.2134711444377899,32.35796356201172,5.583305358886719,14.58688354492188,2,12506.309233375,2,0,1580908790.5504,1580903939.50652,2968,0.4879909,0,0,3568.739,14,15,1580908786.772968,12503.460412,0,16.96106,97.00624
1580908790.707885,56,0,1580907286.99823,41.20781296037784,29.0754925099451,275.2123,0.1345286,-1,23.46983528137207,200,-9999,12506.489379375,0.995513916015625,0.085662841796875,-0.1909332275390625,12506.479338375,1.734391333967225,1.353503481849188,-0.09586710075015183,0.1131917238235474,-0.09375075995922089,-0.001774173695594072,-0.06076157093048096,-0.008957803249359131,-0.020851731300354,2,0.5011563961172153,-0.3762230153556661,-0.5743705122104141,-0.5266850228060627,0.9720009565353394,0.0957203209400177,-0.2145970165729523,32.46603393554688,5.631351470947266,14.44863891601562,2,12506.309233375,2,0,1580908790.5504,1580903939.50652,2968,0.4879909,0,0,3568.739,14,15,1580908786.772968,12503.460412,0,16.96106,97.00624
1580908790.709272,57,0,1580907286.99823,41.20781296037784,29.0754925099451,275.2123,0.1345286,-1,23.46983528137207,200,-9999,12506.499419375,1.021957397460938,0.1018829345703125,-0.16461181640625,12506.489379375,1.733197004982268,1.351509660469222,-0.09584604636410925,0.115240752696991,-0.1816531866788864,-0.02370184287428856,0.01255893707275391,-0.01102727651596069,0.0178368091583252,2,0.5003540316907892,-0.3760030960510813,-0.5745595557941144,-0.5273982783155432,0.9715731739997864,0.09569936245679855,-0.2165350317955017,32.46603393554688,5.631351470947266,14.44863891601562,2,12506.309233375,2,0,1580908790.5504,1580903939.50652,2968,0.4879909,0,0,3568.739,14,15,1580908786.772968,12503.460412,0,16.96106,97.00624
1580908790.711612,58,0,1580907286.99823,41.20781296037784,29.0754925099451,275.2123,0.1345286,-1,23.46983528137207,200,-9999,12506.509459375,0.890625,0.072540283203125,-0.26666259765625,12506.499419375,1.731860780591339,1.348271909461929,-0.09612052989259212,0.1298529952764511,-0.3349260985851288,-0.04957205802202225,0.04997563362121582,0.003026485443115234,0.05261898040771484,2,0.4992387320516403,-0.3753981706296948,-0.5749565696880168,-0.5284524629028354,0.9708413481712341,0.09597258269786835,-0.2196737974882126,32.55062103271484,5.470542907714844,13.94467163085938,2,12506.309233375,2,0,1580908790.5504,1580903939.50652,2968,0.4879909,0,0,3568.739,14,15,1580908786.772968,12503.460412,0,16.96106,97.00624
1580908790.720705,59,0,1580907286.99823,41.20781296037784,29.0754925099451,275.2123,0.1345286,-1,23.46983528137207,200,-9999,12506.519499375,0.76495361328125,0.0320892333984375,-0.367034912109375,12506.509459375,1.730461762306448,1.347475926293769,-0.09700930277870019,0.1185729056596756,-0.08183631300926208,-0.1186366081237793,-0.06223732233047485,-0.01691976189613342,-0.0318145751953125,2,0.4989621034199493,-0.3752640059785101,-0.5745929069623579,-0.5292038082148198,0.9705824255943298,0.0968572199344635,-0.2204274833202362,32.55062103271484,5.470542907714844,13.94467163085938,2,12506.309233375,2,0,1580908790.5504,1580903939.50652,2968,0.4879909,0,0,3568.739,14,15,1580908786.772968,12503.460412,0,16.96106,97.00624
1580908790.731,60,0,1580907286.99823,41.20781296037784,29.0754925099451,275.2123,0.1345286,-1,23.46983528137207,200,-9999,12506.529570375,0.932281494140625,0.082122802734375,-0.2378997802734375,12506.519499375,1.72932594955289,1.35081508028195,-0.09805889813983655,0.08772552013397217,0.3722440898418427,-0.1325463056564331,-0.2128493189811707,-0.06763568520545959,-0.1552696228027344,2,0.4999602882558236,-0.3761092614741287,-0.5732309733454364,-0.5291388074716971,0.9712134599685669,0.09790182858705521,-0.2171630710363388,32.64407348632812,5.606456756591797,14.054931640625,2,12506.309233375,2,0,1580908790.5504,1580903939.50652,2968,0.4879909,0,0,3568.739,14,15,1580908786.772968,12503.460412,0,16.96106,97.00624
1580908790.740972,61,0,1580907286.99823,41.20781296037784,29.0754925099451,275.2123,0.1345286,-1,23.46983528137207,200,-9999,12506.539610375,1.022567749023438,0.09332275390625,-0.17169189453125,12506.529570375,1.728743637744165,1.35451969160446,-0.09877382047975881,0.0400802306830883,0.3771248757839203,-0.08074195683002472,-0.06285494565963745,-0.02193263173103333,-0.04219871759414673,2,0.5010836656037164,-0.3770157800821329,-0.5719943414533816,-0.5287690561861949,0.9719426035881042,0.09861328452825546,-0.2135485261678696,32.64407348632812,5.606456756591797,14.054931640625,2,12506.309233375,2,0,1580908790.5504,1580903939.50652,2968,0.4879909,0,0,3568.739,14,15,1580908786.772968,12503.460412,0,16.96106,97.00624
1580908790.769394,62,0,1580907286.99823,41.20781296037784,29.0754925099451,275.2123,0.1345286,-1,23.46983528137207,200,-9999,12506.549651375,0.9731903076171875,0.07586669921875,-0.2090606689453125,12506.539610375,1.728520269829465,1.357114618865433,-0.09937145286545294,0.00831396970897913,0.2474943548440933,-0.05964985489845276,0.0462995171546936,-0.004509001970291138,0.03670740127563477,2,0.5019269777263795,-0.3775748089462243,-0.5711543327361209,-0.5284782345001739,0.9724356532096863,0.09920798987150192,-0.21101313829422,32.54673767089844,5.591463088989258,13.98184204101562,2,12506.309233375,2,0,1580908790.5504,1580903939.50652,2968,0.4879909,0,0,3568.739,14,15,1580908786.772968,12503.460412,0,16.96106,97.00624
1580908790.770703,63,0,1580907286.99823,41.20781296037784,29.0754925099451,275.2123,0.1345286,-1,23.46983528137207,200,-9999,12506.559691375,0.963623046875,0.0812835693359375,-0.214996337890625,12506.549651375,1.728391633117676,1.359722017563838,-0.1001399216592107,-0.004756825044751167,0.2631558775901794,-0.07594839483499527,0.002414405345916748,-0.02407538890838623,0.0003167986869812012,2,0.5028314069805839,-0.3780610175489546,-0.5702975849877565,-0.5281961324421652,0.9729077816009521,0.09997263550758362,-0.2084608823060989,32.54673767089844,5.591463088989258,13.98184204101562,2,12506.309233375,2,0,1580908790.5504,1580903939.50652,2968,0.4879909,0,0,3568.739,14,15,1580908786.772968,12503.460412,0,16.96106,97.00624
1580908790.771823,64,0,1580907286.99823,41.20781296037784,29.0754925099451,275.2123,0.1345286,-1,23.46983528137207,200,-9999,12506.569731375,1.00146484375,0.08636474609375,-0.1943206787109375,12506.559691375,1.728314263023789,1.362529563371782,-0.1010967530205239,-0.01305426098406315,0.2883736193180084,-0.09664396196603775,-0.01665997505187988,-0.02049916982650757,-0.0141950249671936,2,0.5038462654394714,-0.3785294945169464,-0.5693611807623513,-0.5279037144868801,0.9733952879905701,0.1009246334433556,-0.2057087272405624,32.48081207275391,5.584981918334961,14.22500610351562,2,12506.309233375,2,0,1580908790.5504,1580903939.50652,2968,0.4879909,0,0,3568.739,14,15,1580908786.772968,12503.460412,0,16.96106,97.00624
1580908790.781151,65,0,1580907286.99823,41.20781296037784,29.0754925099451,275.2123,0.1345286,-1,23.46983528137207,200,-9999,12506.579772375,1.025650024414062,0.0837249755859375,-0.1833953857421875,12506.569731375,1.728369601707032,1.365102914863723,-0.1021904132217616,-0.02804572880268097,0.2569374144077301,-0.1021202206611633,0.02102202177047729,-0.01678481698036194,0.004430830478668213,2,0.5048507771232813,-0.3788607398988795,-0.56848691347888,-0.5276483816170705,0.9738126397132874,0.1020126491785049,-0.2031804621219635,32.48081207275391,5.584981918334961,14.22500610351562,2,12506.309233375,2,0,1580908790.5504,1580903939.50652,2968,0.4879909,0,0,3568.739,14,15,1580908786.772968,12503.460412,0,16.96106,97.00624
1580908790.791166,66,0,1580907286.99823,41.20781296037784,29.0754925099451,275.2123,0.1345286,-1,23.46983528137207,200,-9999,12506.589812375,1.045318603515625,0.09051513671875,-0.1656036376953125,12506.579772375,1.728477267461303,1.367096697329816,-0.1036616425813973,-0.04003731906414032,0.1960828304290771,-0.1415854692459106,0.04514956474304199,-0.01921509206295013,0.01328474283218384,2,0.5057892341040999,-0.378910645694157,-0.5676882658516704,-0.5275738465853492,0.9740679264068604,0.1034760922193527,-0.2012079507112503,32.44335174560547,5.658718109130859,14.41757202148438,2,12506.309233375,2,0,1580908790.5504,1580903939.50652,2968,0.4879909,0,0,3568.739,14,15,1580908786.772968,12503.460412,0,16.96106,97.00624
1580908790.801248,67,0,1580907286.99823,41.20781296037784,29.0754925099451,275.2123,0.1345286,-1,23.46983528137207,200,-9999,12506.599852375,1.02520751953125,0.10101318359375,-0.170074462890625,12506.589812375,1.728567999944871,1.367996085778763,-0.1054367326978728,-0.04727818816900253,0.09305950999259949,-0.1706416308879852,0.0671687126159668,-0.01709625124931335,0.0302814245223999,2,0.5064853582953707,-0.3785833378017428,-0.5670937322651335,-0.5277802738996265,0.9740669727325439,0.105241484940052,-0.2002944797277451,32.44335174560547,5.658718109130859,14.41757202148438,2,12506.309233375,2,0,1580908790.5504,1580903939.50652,2968,0.4879909,0,0,3568.739,14,15,1580908786.772968,12503.460412,0,16.96106,97.00624
1580908790.830753,68,0,1580907286.99823,41.20781296037784,29.0754925099451,275.2123,0.1345286,-1,23.46983528137207,200,-9999,12506.609892375,0.993896484375,0.092620849609375,-0.1902923583984375,12506.599852375,1.72858051645236,1.367987790852319,-0.1075019888210858,-0.04529919102787971,0.02233420684933662,-0.2055846899747849,0.05047929286956787,-0.006462410092353821,0.02890217304229736,2,0.5069778344132052,-0.3779475001412405,-0.5666437012039272,-0.5282461596822375,0.9738502502441406,0.1072950437664986,-0.2002583295106888,32.48190307617188,5.68525505065918,14.47073364257812,2,12506.309233375,2,0,1580908790.5504,1580903939.50652,2968,0.4879909,0,0,3568.739,14,15,1580908786.772968,12503.460412,0,16.96106,97.00624
1580908790.832185,69,0,1580907286.99823,41.20781296037784,29.0754925099451,275.2123,0.1345286,-1,23.46983528137207,200,-9999,12506.61997925,0.96417236328125,0.1067352294921875,-0.19439697265625,12506.609892375,1.728631455107575,1.367895083681429,-0.1099049425461329,-0.05478750169277191,-0.005409006960690022,-0.2381045520305634,0.02022135257720947,-0.0174814909696579,0.008157551288604736,2,0.5075334453858203,-0.3771760337086215,-0.5661500993888373,-0.5287930482490908,0.9735763669013977,0.1096838191151619,-0.200296089053154,32.48190307617188,5.68525505065918,14.47073364257812,2,12506.309233375,2,0,1580908790.5504,1580903939.50652,2968,0.4879909,0,0,3568.739,14,15,1580908786.772968,12503.460412,0,16.96106,97.00624
1580908790.833162,70,0,1580907286.99823,41.20781296037784,29.0754925099451,275.2123,0.1345286,-1,23.46983528137207,200,-9999,12506.63002025,0.977020263671875,0.127471923828125,-0.1775665283203125,12506.61997925,1.728607841786431,1.367838946104823,-0.1123829446606542,-0.04702368378639221,-0.002425134181976318,-0.2447403520345688,-0.01140338182449341,-0.007990762591362,0.002571940422058105,2,0.5081025202145222,-0.3764095760415322,-0.5656100831492417,-0.529370167527665,0.9732958078384399,0.1121465265750885,-0.2002953141927719,32.43901062011719,5.902641296386719,14.61416625976562,2,12506.309233375,2,0,1580908790.5504,1580903939.50652,2968,0.4879909,0,0,3568.739,14,15,1580908786.772968,12503.460412,0,16.96106,97.00624
1580908790.841383,71,0,1580907286.99823,41.20781296037784,29.0754925099451,275.2123,0.1345286,-1,23.46983528137207,200,-9999,12506.64006025,0.95697021484375,0.1335296630859375,-0.1702880859375,12506.63002025,1.728466905794112,1.367054171987721,-0.1146780275669413,-0.03434384241700172,-0.07685995101928711,-0.2288367599248886,-0.001407265663146973,0.01088416576385498,0.01807159185409546,2,0.5083994303830954,-0.3755353124663027,-0.5652640142703839,-0.530075370815865,0.9728838205337524,0.1144268363714218,-0.2010065019130707,32.43901062011719,5.902641296386719,14.61416625976562,2,12506.309233375,2,0,1580908790.5504,1580903939.50652,2968,0.4879909,0,0,3568.739,14,15,1580908786.772968,12503.460412,0,16.96106,97.00624
1580908790.851496,72,0,1580907286.99823,41.20781296037784,29.0754925099451,275.2123,0.1345286,-1,23.46983528137207,200,-9999,12506.65010025,0.8793487548828125,0.1258392333984375,-0.2108306884765625,12506.64006025,1.728177920333317,1.365663249815989,-0.1166792265371435,-0.01220374554395676,-0.1449465304613113,-0.2044996321201324,-0.01281595230102539,0.01667074859142303,0.0304296612739563,2,0.5084274571820763,-0.374626886482264,-0.5650973603425654,-0.5308682511294847,0.9723770618438721,0.1164146587252617,-0.2023124396800995,32.39387512207031,6.197866439819336,14.76516723632812,2,12506.309233375,2,0,1580908790.5504,1580903939.50652,2968,0.4879909,0,0,3568.739,14,15,1580908786.772968,12503.460412,0,16.96106,97.00624
1580908790.861607,73,0,1580907286.99823,41.20781296037784,29.0754925099451,275.2123,0.1345286,-1,23.46983528137207,200,-9999,12506.66014025,0.880279541015625,0.12078857421875,-0.230194091796875,12506.65010025,1.727846894420152,1.365027772635408,-0.1182658733655812,-0.00181502103805542,-0.06279200315475464,-0.1642289161682129,-0.089927077293396,0.008298873901367188,-0.005716025829315186,2,0.508562658622563,-0.3740559499017848,-0.5648191165975693,-0.5314372432315215,0.972066342830658,0.1179903745651245,-0.2028923332691193,32.39387512207031,6.197866439819336,14.76516723632812,2,12506.309233375,2,0,1580908790.5504,1580903939.50652,2968,0.4879909,0,0,3568.739,14,15,1580908786.772968,12503.460412,0,16.96106,97.00624
1580908790.888937,74,0,1580907286.99823,41.20781296037784,29.0754925099451,275.2123,0.1345286,-1,23.46983528137207,200,-9999,12506.67018125,0.944854736328125,0.1131134033203125,-0.2015838623046875,12506.66014025,1.727482102261715,1.365269913084866,-0.1195584140096953,0.01080888509750366,0.03343986347317696,-0.1341634690761566,-0.1012086272239685,0.001059606671333313,-0.03235089778900146,2,0.5088695172850463,-0.37381676875576,-0.5643736108808495,-0.5317850706751239,0.9719654321670532,0.1192737817764282,-0.2026256769895554,32.27262878417969,6.197542190551758,14.65493774414062,2,12506.309233375,2,0,1580908790.5504,1580903939.50652,2968,0.4879909,0,0,3568.739,14,15,1580908786.772968,12503.460412,0,16.96106,97.00624
1580908790.890208,75,0,1580907286.99823,41.20781296037784,29.0754925099451,275.2123,0.1345286,-1,23.46983528137207,200,-9999,12506.68022125,0.9650726318359375,0.1065216064453125,-0.2032318115234375,12506.67018125,1.727177796298136,1.365708183234485,-0.1208990633038003,0.000759979709982872,0.03910999745130539,-0.1389033794403076,-0.0351300835609436,-0.006761446595191956,-0.004002809524536133,2,0.5092542323654755,-0.3735996116904705,-0.5638830880647222,-0.5320896004738207,0.9718966484069824,0.1206047534942627,-0.2021669149398804,32.27262878417969,6.197542190551758,14.65493774414062,2,12506.309233375,2,0,1580908790.5504,1580903939.50652,2968,0.4879909,0,0,3568.739,14,15,1580908786.772968,12503.460412,0,16.96106,97.00624
1580908790.892102,76,0,1580907286.99823,41.20781296037784,29.0754925099451,275.2123,0.1345286,-1,23.46983528137207,200,-9999,12506.69026125,0.99505615234375,0.12054443359375,-0.1799774169921875,12506.68022125,1.72684422396502,1.36626241928246,-0.1224622925491338,0.001294405199587345,0.06380979716777802,-0.1624879539012909,-0.01280874013900757,-0.01640614867210388,-0.00499415397644043,2,0.5097185265778836,-0.3733526141123079,-0.5633051968756919,-0.5324304832142168,0.9718227982521057,0.1221564263105392,-0.2015897035598755,32.24765014648438,6.387054443359375,14.65493774414062,2,12506.309233375,2,0,1580908790.5504,1580903939.50652,2968,0.4879909,0,0,3568.739,14,15,1580908786.772968,12503.460412,0,16.96106,97.00624
1580908790.901655,77,0,1580907286.99823,41.20781296037784,29.0754925099451,275.2123,0.1345286,-1,23.46983528137207,200,-9999,12506.70030225,0.9797210693359375,0.1214599609375,-0.18695068359375,12506.69026125,1.726501067771028,1.366231985854961,-0.1242005267092435,-0.002175427041947842,-0.006965575739741325,-0.1808935850858688,0.01803189516067505,-0.005396738648414612,0.0159725546836853,2,0.5100575483846127,-0.3728986377887018,-0.5628340728942878,-0.5329218026286202,0.9716071486473083,0.123881459236145,-0.2015758007764816,32.24765014648438,6.387054443359375,14.65493774414062,2,12506.309233375,2,0,1580908790.5504,1580903939.50652,2968,0.4879909,0,0,3568.739,14,15,1580908786.772968,12503.460412,0,16.96106,97.00624
1580908790.911604,78,0,1580907286.99823,41.20781296037784,29.0754925099451,275.2123,0.1345286,-1,23.46983528137207,200,-9999,12506.71037225,0.986297607421875,0.120147705078125,-0.1932525634765625,12506.70030225,1.726151301659344,1.36600537813602,-0.1260593105317566,-0.003596505150198936,-0.01438027806580067,-0.1898560523986816,0.006831049919128418,-0.004287824034690857,0.01381140947341919,2,0.510368446859443,-0.3723568844427554,-0.5623838154066905,-0.5334780027630359,0.9713343381881714,0.1257257014513016,-0.2017488032579422,32.22161102294922,6.417436599731445,14.49859619140625,2,12506.309233375,2,0,1580908790.5504,1580903939.50652,2968,0.4879909,0,0,3568.739,14,15,1580908786.772968,12503.460412,0,16.96106,97.00624
1580908790.924475,79,0,1580907286.99823,41.20781296037784,29.0754925099451,275.2123,0.1345286,-1,23.46983528137207,200,-9999,12506.72041325,0.9871826171875,0.1259307861328125,-0.18896484375,12506.71037225,1.72586729359215,1.365530546094444,-0.1279733268957393,-0.01120648812502623,-0.04519704729318619,-0.1920907199382782,0.009118616580963135,-0.00765855610370636,0.005542516708374023,2,0.5106347060188922,-0.3717148112751301,-0.5620016062928177,-0.5340735182648468,0.971001148223877,0.1276243031024933,-0.2021605968475342,32.22161102294922,6.417436599731445,14.49859619140625,2,12506.309233375,2,0,1580908790.5504,1580903939.50652,2968,0.4879909,0,0,3568.739,14,15,1580908786.772968,12503.460412,0,16.96106,97.00624
1580908790.950737,80,0,1580907286.99823,41.20781296037784,29.0754925099451,275.2123,0.1345286,-1,23.46983528137207,200,-9999,12506.73045325,0.981170654296875,0.1322479248046875,-0.18695068359375,12506.72041325,1.725656411342876,1.364789169445283,-0.1297862267799637,-0.01693830452859402,-0.07329455018043518,-0.1778191179037094,0.0146404504776001,-0.005068719387054443,0.01074916124343872,2,0.5108156853387339,-0.3710134104359716,-0.5617291680257703,-0.5346745359427727,0.9706229567527771,0.1294221729040146,-0.2028327733278275,32.17616271972656,6.466121673583984,14.61700439453125,2,12506.309233375,2,0,1580908790.5504,1580903939.50652,2968,0.4879909,0,0,3568.739,14,15,1580908786.772968,12503.460412,0,16.96106,97.00624
1580908790.952553,81,0,1580907286.99823,41.20781296037784,29.0754925099451,275.2123,0.1345286,-1,23.46983528137207,200,-9999,12506.74049325,0.989471435546875,0.1330413818359375,-0.1822357177734375,12506.73045325,1.725397149962577,1.363672566868048,-0.1315482870199923,-0.01126683596521616,-0.1046125292778015,-0.1760856658220291,0.006396174430847168,0.000562816858291626,0.01360499858856201,2,0.5108703866201426,-0.3702389072975351,-0.5615505969350695,-0.5353461290433446,0.9701710939407349,0.1311692148447037,-0.2038691937923431,32.17616271972656,6.466121673583984,14.61700439453125,2,12506.309233375,2,0,1580908790.5504,1580903939.50652,2968,0.4879909,0,0,3568.739,14,15,1580908786.772968,12503.460412,0,16.96106,97.00624
1580908790.953636,82,0,1580907286.99823,41.20781296037784,29.0754925099451,275.2123,0.1345286,-1,23.46983528137207,200,-9999,12506.75053325,0.9765777587890625,0.141754150390625,-0.174102783203125,12506.74049325,1.725055455985325,1.362052728707019,-0.1332444243696838,-0.003411847166717052,-0.1491990089416504,-0.17148657143116,0.01610392332077026,-0.001048654317855835,0.01951491832733154,2,0.5107530512144661,-0.3693701212506075,-0.5614930082738349,-0.536118171059266,0.9696205854415894,0.1328504979610443,-0.2053940743207932,32.42990112304688,6.834636688232422,14.60324096679688,2,12506.309233375,2,0,1580908790.5504,1580903939.50652,2968,0.4879909,0,0,3568.739,14,15,1580908786.772968,12503.460412,0,16.96106,97.00624
1580908790.962094,83,0,1580907286.99823,41.20781296037784,29.0754925099451,275.2123,0.1345286,-1,23.46983528137207,200,-9999,12506.76057425,0.922027587890625,0.134552001953125,-0.197540283203125,12506.75053325,1.724591654884441,1.35991944874025,-0.134826977962141,0.01260014250874519,-0.2122935503721237,-0.1679613441228867,0.006606400012969971,0.006333902478218079,0.0299384593963623,2,0.5104425259433768,-0.3684284741187804,-0.5615586940605521,-0.5369921773019679,0.9689732789993286,0.134418860077858,-0.2074177712202072,32.42990112304688,6.834636688232422,14.60324096679688,2,12506.309233375,2,0,1580908790.5504,1580903939.50652,2968,0.4879909,0,0,3568.739,14,15,1580908786.772968,12503.460412,0,16.96106,97.00624
1580908790.971914,84,0,1580907286.99823,41.20781296037784,29.0754925099451,275.2123,0.1345286,-1,23.46983528137207,200,-9999,12506.77061425,0.8778839111328125,0.126220703125,-0.2398834228515625,12506.76057425,1.724165914626697,1.357959853626418,-0.1360903267943638,0.01392036397010088,-0.1945761442184448,-0.1350068598985672,-0.04310941696166992,-0.0003090202808380127,0.01346689462661743,2,0.5101125448434323,-0.3676208864633169,-0.5616613334302089,-0.5377514405256416,0.9683983325958252,0.1356706321239471,-0.2092801481485367,32.31835174560547,6.566198348999023,14.52523803710938,2,12506.309233375,2,0,1580908790.5504,1580903939.50652,2968,0.4879909,0,0,3568.739,14,15,1580908786.772968,12503.460412,0,16.96106,97.00624
1580908791.005852,85,0,1580907286.99823,41.20781296037784,29.0754925099451,275.2123,0.1345286,-1,23.46983528137207,200,-9999,12506.78065425,0.911041259765625,0.1316680908203125,-0.228668212890625,12506.77061425,1.723837472140604,1.356814651316745,-0.136970320017711,0.01312700938433409,-0.1096487194299698,-0.09254568815231323,-0.09286046028137207,-0.0108581930398941,-0.03058081865310669,2,0.5099386818451311,-0.3671249556372804,-0.5616679524290619,-0.5382481315915585,0.9680410623550415,0.1365424394607544,-0.2103636115789413,32.31835174560547,6.566198348999023,14.52523803710938,2,12506.309233375,2,0,1580908790.5504,1580903939.50652,2968,0.4879909,0,0,3568.739,14,15,1580908786.772968,12503.460412,0,16.96106,97.00624
1580908791.00736,86,0,1580907286.99823,41.20781296037784,29.0754925099451,275.2123,0.1345286,-1,23.46983528137207,200,-9999,12506.79069525,0.9581298828125,0.1348724365234375,-0.206085205078125,12506.78065425,1.723575886032598,1.356052266376696,-0.1376288602092627,0.01146803889423609,-0.07205419987440109,-0.07036195695400238,-0.06612139940261841,-0.006645485758781433,-0.02320653200149536,2,0.5098323918972297,-0.3667829863807926,-0.5616443310212131,-0.5386063761126486,0.967792272567749,0.1371947824954987,-0.2110823392868042,32.4166259765625,6.809059143066406,14.41268920898438,2,12506.309233375,2,0,1580908790.5504,1580903939.50652,2968,0.4879909,0,0,3568.739,14,15,1580908786.772968,12503.460412,0,16.96106,97.00624
1580908791.00845,87,0,1580907286.99823,41.20781296037784,29.0754925099451,275.2123,0.1345286,-1,23.46983528137207,200,-9999,12506.80076525,0.993408203125,0.145538330078125,-0.1889801025390625,12506.79069525,1.723307677098416,1.35514996040235,-0.1382452650465183,0.01148401852697134,-0.08462991565465927,-0.06581541150808334,-0.01636242866516113,-0.003596216440200806,0.001257061958312988,2,0.5096756967550311,-0.3664178030909337,-0.5616639294698997,-0.5389825959960618,0.9675185680389404,0.1378053277730942,-0.211937353014946,32.4166259765625,6.809059143066406,14.41268920898438,2,12506.309233375,2,0,1580908790.5504,1580903939.50652,2968,0.4879909,0,0,3568.739,14,15,1580908786.772968,12503.460412,0,16.96106,97.00624
1580908791.012708,88,0,1580907286.99823,41.20781296037784,29.0754925099451,275.2123,0.1345286,-1,23.46983528137207,200,-9999,12506.81080625,1.024124145507812,0.149658203125,-0.172515869140625,12506.80076525,1.722867322472426,1.353535022863129,-0.1389879251716895,0.02701645717024803,-0.1541574597358704,-0.0807744562625885,0.01824736595153809,0.005019038915634155,0.01931309700012207,2,0.5093172744972598,-0.3658649822139539,-0.5617902480440756,-0.5395650770180945,0.9670748710632324,0.1385408639907837,-0.2134774625301361,32.45005035400391,6.856971740722656,14.30389404296875,2,12506.309233375,2,0,1580908790.5504,1580903939.50652,2968,0.4879909,0,0,3568.739,14,15,1580908786.772968,12503.460412,0,16.96106,97.00624
1580908791.022196,89,0,1580907286.99823,41.20781296037784,29.0754925099451,275.2123,0.1345286,-1,23.46983528137207,200,-9999,12506.82084625,1.025390625,0.1387481689453125,-0.189117431640625,12506.81080625,1.722214855059923,1.350939995739106,-0.1400438897229362,0.04007766395807266,-0.2549410462379456,-0.1170991733670235,0.05326759815216064,0.009935542941093445,0.04041516780853271,2,0.5087191184966111,-0.3650037031185042,-0.5620380632404077,-0.5404539593412259,0.966374397277832,0.1395865678787231,-0.2159543037414551,32.45005035400391,6.856971740722656,14.30389404296875,2,12506.309233375,2,0,1580908790.5504,1580903939.50652,2968,0.4879909,0,0,3568.739,14,15,1580908786.772968,12504.404764,0,16.96106,97.00623
1580908791.032206,90,0,1580907286.99823,41.20781296037784,29.0754925099451,275.2123,0.1345286,-1,23.46983528137207,200,-9999,12506.83088625,1.033889770507812,0.1391754150390625,-0.1892547607421875,12506.82084625,1.721366015555963,1.34765154711302,-0.141490154807682,0.04954662546515465,-0.3195144534111023,-0.1586408913135529,0.0555577278137207,-0.001435339450836182,0.02878844738006592,2,0.5079831800199474,-0.3638819154033023,-0.5623204613115294,-0.5416075265887239,0.9654610157012939,0.1410185396671295,-0.219086080789566,32.36260223388672,6.983005523681641,14.31527709960938,2,12506.309233375,2,0,1580908790.5504,1580903939.50652,2968,0.4879909,0,0,3568.739,14,15,1580908786.772968,12504.404764,0,16.96106,97.00623
1580908791.064632,91,0,1580907286.99823,41.20781296037784,29.0754925099451,275.2123,0.1345286,-1,23.46983528137207,200,-9999,12506.84092725,1.01025390625,0.140106201171875,-0.2013702392578125,12506.83088625,1.720348915285366,1.343750974307696,-0.143361016680734,0.05731320381164551,-0.3814923465251923,-0.2055551260709763,0.0657004714012146,-0.00511014461517334,0.02977550029754639,2,0.5071458935942932,-0.3625021380891774,-0.5626159119774591,-0.5430088281068621,0.9643404483795166,0.1428704559803009,-0.2227904796600342,32.36260223388672,6.983005523681641,14.31527709960938,2,12506.309233375,2,0,1580908790.5504,1580903939.50652,2968,0.4879909,0,0,3568.739,14,15,1580908786.772968,12504.404764,0,16.96106,97.00623
1580908791.065901,92,0,1580907286.99823,41.20781296037784,29.0754925099451,275.2123,0.1345286,-1,23.46983528137207,200,-9999,12506.85096725,0.9756011962890625,0.140228271484375,-0.2301025390625,12506.84092725,1.719244935633227,1.339568975125532,-0.1454976061976281,0.05568743124604225,-0.4053590297698975,-0.2339540123939514,0.04794758558273315,-0.004913195967674255,0.02534353733062744,2,0.5062777928223859,-0.3609810779746034,-0.5628973264443783,-0.5445383653671306,0.9631009101867676,0.1449847966432571,-0.226750910282135,32.57052612304688,6.8345947265625,14.00848388671875,2,12506.309233375,2,0,1580908790.5504,1580903939.50652,2968,0.4879909,0,0,3568.739,14,15,1580908786.772968,12504.404764,0,16.96106,97.00623
1580908791.067223,93,0,1580907286.99823,41.20781296037784,29.0754925099451,275.2123,0.1345286,-1,23.46983528137207,200,-9999,12506.86100725,0.9482574462890625,0.1439361572265625,-0.2283782958984375,12506.85096725,1.718005342180024,1.335227477900113,-0.1477132328320452,0.06858911365270615,-0.4099894762039185,-0.2437549829483032,0.01122057437896729,-0.008379921317100525,-0.0002765655517578125,2,0.5053602782531382,-0.3594213718154335,-0.5631618779135091,-0.54614648960322,0.9617927074432373,0.1471766531467438,-0.2308545261621475,32.57052612304688,6.8345947265625,14.00848388671875,2,12506.309233375,2,0,1580908790.5504,1580903939.50652,2968,0.4879909,0,0,3568.739,14,15,1580908786.772968,12504.404764,0,16.96106,97.00623
1580908791.072403,94,0,1580907286.99823,41.20781296037784,29.0754925099451,275.2123,0.1345286,-1,23.46983528137207,200,-9999,12506.87104725,0.8410797119140625,0.1464691162109375,-0.242584228515625,12506.86100725,1.716856223771485,1.330932374590317,-0.1497953059532681,0.05746055021882057,-0.4159583747386932,-0.2294435501098633,-0.007722675800323486,-0.006037056446075439,0.002588987350463867,2,0.5044414375872479,-0.3578879785309086,-0.5634664849134848,-0.547686465791893,0.9604924917221069,0.1492357403039932,-0.2349100559949875,32.42258453369141,6.880401611328125,13.86642456054688,2,12506.309233375,2,0,1580908790.5504,1580903939.50652,2968,0.4879909,0,0,3568.739,14,15,1580908786.772968,12504.404764,0,16.96106,97.00623
1580908791.082535,95,0,1580907286.99823,41.20781296037784,29.0754925099451,275.2123,0.1345286,-1,23.46983528137207,200,-9999,12506.88108825,0.8078765869140625,0.142608642578125,-0.2672271728515625,12506.87104725,1.715816422277032,1.327489332919706,-0.1513708371795118,0.06506600975990295,-0.3274932205677032,-0.179722860455513,-0.1137762069702148,-0.005174547433853149,-0.004007041454315186,2,0.5036620916272923,-0.3567143509727104,-0.5636970992261395,-0.5489306568594997,0.9594486355781555,0.1507934331893921,-0.2381587326526642,32.42258453369141,6.880401611328125,13.86642456054688,2,12506.309233375,2,0,1580908790.5504,1580903939.50652,2968,0.4879909,0,0,3568.739,14,15,1580908786.772968,12504.404764,0,16.96106,97.00623
1580908791.092311,96,0,1580907286.99823,41.20781296037784,29.0754925099451,275.2123,0.1345286,-1,23.46983528137207,200,-9999,12506.89115825,0.858245849609375,0.1417388916015625,-0.26702880859375,12506.88108825,1.715002246490674,1.325098746837678,-0.1523510373992101,0.05399692803621292,-0.229850247502327,-0.1133173927664757,-0.1545460820198059,-0.009076818823814392,-0.02861213684082031,2,0.5030777524789108,-0.3559563868117883,-0.5638562036908059,-0.5497945260786347,0.9587327837944031,0.1517623513936996,-0.2404156476259232,32.72613525390625,7.191596984863281,13.61688232421875,2,12506.309233375,2,0,1580908790.5504,1580903939.50652,2968,0.4879909,0,0,3568.739,14,15,1580908786.772968,12504.404764,0,16.96106,97.00623
1580908791.126254,97,0,1580907286.99823,41.20781296037784,29.0754925099451,275.2123,0.1345286,-1,23.46983528137207,200,-9999,12506.90119925,0.9386138916015625,0.1435394287109375,-0.246185302734375,12506.89115825,1.714343618457338,1.323472948289821,-0.1530074693908579,0.04686232656240463,-0.1531437486410141,-0.07678681612014771,-0.1118342876434326,-0.01129980385303497,-0.0291321873664856,2,0.502659461954948,-0.355469620545506,-0.5639372700220733,-0.5504087036766105,0.9582439661026001,0.1524111479520798,-0.2419496327638626,32.57277679443359,7.383947372436523,13.51608276367188,2,12506.309233375,2,0,1580908790.5504,1580903939.50652,2968,0.4879909,0,0,3568.739,14,15,1580908786.772968,12504.404764,0,16.96106,97.00623
1580908791.128171,98,0,1580907286.99823,41.20781296037784,29.0754925099451,275.2123,0.1345286,-1,23.46983528137207,200,-9999,12506.91123925,0.976318359375,0.1480712890625,-0.23284912109375,12506.90119925,1.71372499466643,1.321928886973877,-0.1536883929560654,0.0434383898973465,-0.1456567049026489,-0.0825488492846489,-0.02975291013717651,-0.0105256587266922,-0.007729768753051758,2,0.5022774737092143,-0.3549868862804579,-0.5640027832760088,-0.5510014849742066,0.9577683806419373,0.1530840843915939,-0.2434033006429672,32.57277679443359,7.383947372436523,13.51608276367188,2,12506.309233375,2,0,1580908790.5504,1580903939.50652,2968,0.4879909,0,0,3568.739,14,15,1580908786.772968,12504.404764,0,16.96106,97.00623
1580908791.129127,99,0,1580907286.99823,41.20781296037784,29.0754925099451,275.2123,0.1345286,-1,23.46983528137207,200,-9999,12506.92127925,0.9413299560546875,0.1470947265625,-0.2413330078125,12506.91123925,1.713129213181566,1.320094104406845,-0.1544801867805005,0.03790567070245743,-0.1818650364875793,-0.09308857470750809,0.01497399806976318,-0.006702914834022522,0.008636593818664551,2,0.5018443927613365,-0.3543828388568361,-0.5641223159542249,-0.5516620695275818,0.9572023749351501,0.1538664996623993,-0.2451300173997879,32.74179840087891,7.427946090698242,13.29055786132812,2,12506.309233375,2,0,1580908790.5504,1580903939.50652,2968,0.4879909,0,0,3568.739,14,15,1580908786.772968,12504.404764,0,16.96106,97.00623
1580908791.132621,100,0,1580907286.99823,41.20781296037784,29.0754925099451,275.2123,0.1345286,-1,23.46983528137207,200,-9999,12506.93132025,0.8867950439453125,0.1450347900390625,-0.260955810546875,12506.92127925,1.712614516446347,1.318286065443446,-0.1552368817161822,0.02975791692733765,-0.1816829741001129,-0.08883403986692429,-0.01348841190338135,-0.007575511932373047,0.004591524600982666,2,0.5014249572073791,-0.3537759879021904,-0.5642648562527406,-0.552286880401674,0.9566446542739868,0.1546141356229782,-0.2468311190605164,32.74179840087891,7.427946090698242,13.29055786132812,2,12506.309233375,2,0,1580908790.5504,1580903939.50652,2968,0.4879909,0,0,3568.739,14,15,1580908786.772968,12504.404764,0,16.96106,97.00623
1580908791.142776,101,0,1580907286.99823,41.20781296037784,29.0754925099451,275.2123,0.1345286,-1,23.46983528137207,200,-9999,12506.94136025,0.8644866943359375,0.1423797607421875,-0.264129638671875,12506.93132025,1.71222493947745,1.31699041606963,-0.1557301760918157,0.02577223256230354,-0.1248985156416893,-0.05905350670218468,-0.0688631534576416,-0.01068928837776184,-0.01469159126281738,2,0.5011090884195579,-0.3533611242165428,-0.5643718509690392,-0.5527295720050902,0.956250011920929,0.155101478099823,-0.2480511963367462,32.77109527587891,7.460060119628906,13.2818603515625,2,12506.309233375,2,0,1580908790.5504,1580903939.50652,2968,0.4879909,0,0,3568.739,14,15,1580908786.772968,12504.404764,0,16.96106,97.00623
1580908791.152718,102,0,1580907286.99823,41.20781296037784,29.0754925099451,275.2123,0.1345286,-1,23.46983528137207,200,-9999,12506.95140025,0.85540771484375,0.1416168212890625,-0.2693023681640625,12506.94136025,1.712098850421915,1.316369720586255,-0.155878565272158,0.006182974204421043,-0.06304273009300232,-0.0188779029995203,-0.09412252902984619,-0.01268270611763,-0.01756531000137329,2,0.5009473122655415,-0.3531746549284071,-0.5644594048970091,-0.5529060339735293,0.9560736417770386,0.1552480757236481,-0.2486389130353928,32.77109527587891,7.460060119628906,13.2818603515625,2,12506.309233375,2,0,1580908790.5504,1580903939.50652,2968,0.4879909,0,0,3568.739,14,15,1580908786.772968,12504.404764,0,16.96106,97.00623
1580908791.189098,103,0,1580907286.99823,41.20781296037784,29.0754925099451,275.2123,0.1345286,-1,23.46983528137207,200,-9999,12506.96144025,0.882476806640625,0.1479949951171875,-0.2578277587890625,12506.95140025,1.712191032777422,1.316488098409809,-0.1556362326866625,-0.002424094825983047,0.01498309150338173,0.02595561370253563,-0.1043053269386292,-0.01479227840900421,-0.0240020751953125,2,0.5009387565915885,-0.3532602182473435,-0.5645092634500058,-0.5528080999560543,0.9561393857002258,0.1550086736679077,-0.24853515625,32.81923675537109,7.592281341552734,13.20834350585938,2,12506.309233375,2,0,1580908790.5504,1580903939.50652,2968,0.4879909,0,0,3568.739,14,15,1580908786.772968,12504.404764,0,16.96106,97.00623
1580908791.190503,104,0,1580907286.99823,41.20781296037784,29.0754925099451,275.2123,0.1345286,-1,23.46983528137207,200,-9999,12506.97148125,0.9192047119140625,0.1529693603515625,-0.2428131103515625,12506.96144025,1.712448356226071,1.316994512670254,-0.1550619039175903,-0.01158766262233257,0.05364292860031128,0.06312159448862076,-0.08167558908462524,-0.00744783878326416,-0.01422721147537231,2,0.5009890527657183,-0.3535156952871813,-0.5645816384776445,-0.5525252484750184,0.9563511610031128,0.1544412672519684,-0.2480732500553131,32.81923675537109,7.592281341552734,13.20834350585938,2,12506.309233375,2,0,1580908790.5504,1580903939.50652,2968,0.4879909,0,0,3568.739,14,15,1580908786.772968,12504.404764,0,16.96106,97.00623
1580908791.19156,105,0,1580907286.99823,41.20781296037784,29.0754925099451,275.2123,0.1345286,-1,23.46983528137207,200,-9999,12506.98155225,0.914459228515625,0.1509552001953125,-0.2457122802734375,12506.97148125,1.712763937419656,1.317498499318718,-0.1542443513706735,-0.00880173034965992,0.04739195853471756,0.08703918009996414,-0.04342532157897949,-0.001815184950828552,0.000961005687713623,2,0.5009905489852438,-0.3538319853017992,-0.5647248646395716,-0.55217499297879,0.9565979838371277,0.1536334604024887,-0.2476227879524231,32.74907684326172,7.620260238647461,13.12643432617188,2,12506.309233375,2,0,1580908790.5504,1580903939.50652,2968,0.4879909,0,0,3568.739,14,15,1580908786.772968,12504.404764,0,16.96106,97.00623
1580908791.193096,106,0,1580907286.99823,41.20781296037784,29.0754925099451,275.2123,0.1345286,-1,23.46983528137207,200,-9999,12506.99159225,0.8924713134765625,0.1352081298828125,-0.2736968994140625,12506.98155225,1.71322767578333,1.318258372511009,-0.1532559789312978,-0.01927044242620468,0.0629693865776062,0.1069863364100456,-0.04356247186660767,-0.001155078411102295,0.000238955020904541,2,0.5010495768776635,-0.3542350848226238,-0.5648827961820259,-0.5517012571319651,0.9569324254989624,0.1526567488908768,-0.2469336539506912,32.74907684326172,7.620260238647461,13.12643432617188,2,12506.309233375,2,0,1580908790.5504,1580903939.50652,2968,0.4879909,0,0,3568.739,14,15,1580908786.772968,12504.404764,0,16.96106,97.00623
1580908791.203127,107,0,1580907286.99823,41.20781296037784,29.0754925099451,275.2123,0.1345286,-1,23.46983528137207,200,-9999,12507.00163225,0.91424560546875,0.125244140625,-0.277862548828125,12506.99159225,1.713905372228171,1.319938913016601,-0.1522253650076561,-0.03792375698685646,0.1577923148870468,0.1159617230296135,-0.06839150190353394,-0.01534558832645416,-0.02857357263565063,2,0.5013966894900419,-0.3548511471178568,-0.5648780884985469,-0.5509942767277314,0.9574978947639465,0.1516381353139877,-0.2453640401363373,32.78992462158203,7.375213623046875,13.26235961914062,2,12506.309233375,2,0,1580908790.5504,1580903939.50652,2968,0.4879909,0,0,3568.739,14,15,1580908786.772968,12504.404764,0,16.96106,97.00623
1580908791.213107,108,0,1580907286.99823,41.20781296037784,29.0754925099451,275.2123,0.1345286,-1,23.46983528137207,200,-9999,12507.01167225,0.9217071533203125,0.1369476318359375,-0.254852294921875,12507.00163225,1.714830242044221,1.322460883497942,-0.1512091291349145,-0.06471346318721771,0.238530308008194,0.1205751150846481,-0.05005514621734619,-0.0258575826883316,-0.03923070430755615,2,0.5020291543712143,-0.3556312775007612,-0.5647265123580743,-0.5500700428546571,0.95826256275177,0.1506335735321045,-0.2429862469434738,32.78992462158203,7.375213623046875,13.26235961914062,2,12506.309233375,2,0,1580908790.5504,1580903939.50652,2968,0.4879909,0,0,3568.739,14,15,1580908786.772968,12504.404764,0,16.96106,97.00623
1580908791.247231,109,0,1580907286.99823,41.20781296037784,29.0754925099451,275.2123,0.1345286,-1,23.46983528137207,200,-9999,12507.02171325,0.935272216796875,0.1467742919921875,-0.230682373046875,12507.01167225,1.715858091162378,1.325426053780498,-0.1501564635517632,-0.07349177449941635,0.2874493598937988,0.1259701400995255,-0.04175746440887451,-0.01458948850631714,-0.02025598287582397,2,0.5027968347399262,-0.3565168567797405,-0.5644987408726321,-0.5490283874481396,0.9591321349143982,0.1495928317308426,-0.2401821464300156,32.70636749267578,7.374519348144531,13.6514892578125,2,12506.309233375,2,0,1580908790.5504,1580903939.50652,2968,0.4879909,0,0,3568.739,14,15,1580908786.772968,12504.404764,0,16.96106,97.00623
1580908791.248557,110,0,1580907286.99823,41.20781296037784,29.0754925099451,275.2123,0.1345286,-1,23.46983528137207,200,-9999,12507.03175325,0.9108428955078125,0.1467132568359375,-0.2342376708984375,12507.02171325,1.716941675877619,1.328328297893125,-0.148959353236896,-0.07478269934654236,0.270165890455246,0.1398749649524689,-0.02916860580444336,-0.002582728862762451,0.002275764942169189,2,0.5035226086317413,-0.3574140492570803,-0.5643327886064684,-0.547949600544411,0.9599984288215637,0.1484090834856033,-0.23744036257267,32.70636749267578,7.374519348144531,13.6514892578125,2,12506.309233375,2,0,1580908790.5504,1580903939.50652,2968,0.4879909,0,0,3568.739,14,15,1580908786.772968,12504.404764,0,16.96106,97.00623
1580908791.249722,111,0,1580907286.99823,41.20781296037784,29.0754925099451,275.2123,0.1345286,-1,23.46983528137207,200,-9999,12507.04179325,0.9075469970703125,0.144683837890625,-0.239105224609375,12507.03175325,1.718121628409583,1.331482767698718,-0.1474756936239103,-0.07731775939464569,0.2982593178749084,0.1722813695669174,-0.04947751760482788,-0.000682443380355835,-0.001231908798217773,2,0.5042690182618191,-0.358442933442926,-0.564191925998962,-0.5467348735100184,0.9609555006027222,0.1469416916370392,-0.2344628423452377,32.54463195800781,7.328824996948242,13.70516967773438,2,12506.309233375,2,0,1580908790.5504,1580903939.50652,2968,0.4879909,0,0,3568.739,14,15,1580908786.772968,12504.404764,0,16.96106,97.00623
1580908791.253226,112,0,1580907286.99823,41.20781296037784,29.0754925099451,275.2123,0.1345286,-1,23.46983528137207,200,-9999,12507.05183425,0.9457855224609375,0.1387481689453125,-0.230194091796875,12507.04179325,1.719377471349546,1.334991675714619,-0.1458175304229337,-0.08002940565347672,0.3343690633773804,0.187788188457489,-0.0622832179069519,-0.0005922764539718628,-0.01138228178024292,2,0.505088359334677,-0.3596007700812325,-0.564019289097676,-0.5453945470472381,0.9620077610015869,0.1453013271093369,-0.2311460673809052,32.54463195800781,7.328824996948242,13.70516967773438,2,12506.309233375,2,0,1580908790.5504,1580903939.50652,2968,0.4879909,0,0,3568.739,14,15,1580908786.772968,12504.404764,0,16.96106,97.00623
1580908791.26347,113,0,1580907286.99823,41.20781296037784,29.0754925099451,275.2123,0.1345286,-1,23.46983528137207,200,-9999,12507.06187425,0.9651947021484375,0.1404876708984375,-0.220855712890625,12507.05183425,1.720728540825081,1.338625351638401,-0.1440445470610986,-0.08933289349079132,0.3436190187931061,0.2027983069419861,-0.02243077754974365,-0.004919454455375671,-0.006517529487609863,2,0.5059337044127673,-0.3608007232251931,-0.5638644842487204,-0.5439767702869687,0.9630905389785767,0.1435469388961792,-0.2277078479528427,32.66985321044922,7.169973373413086,13.9063720703125,2,12506.309233375,2,0,1580908790.5504,1580903939.50652,2968,0.4879909,0,0,3568.739,14,15,1580908786.772968,12504.404764,0,16.96106,97.00623
1580908791.273326,114,0,1580907286.99823,41.20781296037784,29.0754925099451,275.2123,0.1345286,-1,23.46983528137207,200,-9999,12507.07194525,1.01654052734375,0.1477813720703125,-0.1910247802734375,12507.06187425,1.722024380558002,1.342022629720812,-0.1422282221180522,-0.08406078815460205,0.3288238346576691,0.2078914493322372,-0.007021188735961914,-0.002290830016136169,-0.000863492488861084,2,0.5066933381206199,-0.3619601540482011,-0.5637618312210044,-0.5426041599234877,0.9641109108924866,0.1417491883039474,-0.2244934141635895,32.66985321044922,7.169973373413086,13.9063720703125,2,12506.309233375,2,0,1580908790.5504,1580903939.50652,2968,0.4879909,0,0,3568.739,14,15,1580908786.772968,12504.404764,0,16.96106,97.00623
1580908791.305929,115,0,1580907286.99823,41.20781296037784,29.0754925099451,275.2123,0.1345286,-1,23.46983528137207,200,-9999,12507.08198525,1.009246826171875,0.1515350341796875,-0.178070068359375,12507.07194525,1.723152911020666,1.344313581658171,-0.140474066831427,-0.07096176594495773,0.2139417380094528,0.1930563002824783,0.04492717981338501,0.006349429488182068,0.02495914697647095,2,0.5071267168534254,-0.362839762461085,-0.5638784773031051,-0.5414895082207654,0.9648635387420654,0.1400125324726105,-0.2223396003246307,32.63147735595703,6.964437484741211,14.32424926757812,2,12506.309233375,2,0,1580908790.5504,1580903939.50652,2968,0.4879909,0,0,3568.739,14,15,1580908786.772968,12504.404764,0,16.96106,97.00623
1580908791.307239,116,0,1580907286.99823,41.20781296037784,29.0754925099451,275.2123,0.1345286,-1,23.46983528137207,200,-9999,12507.09202525,0.97430419921875,0.1443328857421875,-0.2009735107421875,12507.08198525,1.724055954698772,1.345481982465247,-0.1387322147421123,-0.0487876683473587,0.1032898277044296,0.1889600902795792,0.04301071166992188,0.01299422979354858,0.04129183292388916,2,0.5072064075575283,-0.3634673742563747,-0.5642149165910405,-0.5406428644467334,0.9653589129447937,0.1382876187562943,-0.2212662547826767,32.63147735595703,6.964437484741211,14.32424926757812,2,12506.309233375,2,0,1580908790.5504,1580903939.50652,2968,0.4879909,0,0,3568.739,14,15,1580908786.772968,12504.404764,0,16.96106,97.00623
1580908791.30824,117,0,1580907286.99823,41.20781296037784,29.0754925099451,275.2123,0.1345286,-1,23.46983528137207,200,-9999,12507.10206525,0.9486083984375,0.13262939453125,-0.2214508056640625,12507.09202525,1.724785350352599,1.346227587277036,-0.1370567390080117,-0.03378528356552124,0.06434854865074158,0.1801029592752457,0.008638441562652588,0.008007287979125977,0.01924300193786621,2,0.507151490384506,-0.3640034590622053,-0.564596117165604,-0.5399352461221953,0.965748131275177,0.136628046631813,-0.2205976992845535,32.76814270019531,6.786161422729492,14.37606811523438,2,12506.309233375,2,0,1580908790.5504,1580903939.50652,2968,0.4879909,0,0,3568.739,14,15,1580908786.772968,12504.404764,0,16.96106,97.00623
1580908791.313532,118,0,1580907286.99823,41.20781296037784,29.0754925099451,275.2123,0.1345286,-1,23.46983528137207,200,-9999,12507.11210625,0.9409942626953125,0.1301116943359375,-0.2206268310546875,12507.10206525,1.725409249282631,1.347105196191712,-0.1354851961868025,-0.02443661727011204,0.08259621262550354,0.168698638677597,-0.0195661187171936,-0.0017518550157547,-0.003624498844146729,2,0.5071395924063752,-0.3645692172277204,-0.5648917105149696,-0.5392552093399088,0.966149628162384,0.1350710839033127,-0.2197974324226379,32.76814270019531,6.786161422729492,14.37606811523438,2,12506.309233375,2,0,1580908790.5504,1580903939.50652,2968,0.4879909,0,0,3568.739,14,15,1580908786.772968,12504.404764,0,16.96106,97.00623
1580908791.323882,119,0,1580907286.99823,41.20781296037784,29.0754925099451,275.2123,0.1345286,-1,23.46983528137207,200,-9999,12507.12214625,0.94677734375,0.1334686279296875,-0.2156829833984375,12507.11210625,1.726003355857658,1.34810626490934,-0.1339768992056627,-0.02540494315326214,0.09411251544952393,0.1629976183176041,-0.02878928184509277,-0.004066258668899536,-0.005527377128601074,2,0.5071725256179107,-0.3651555777117309,-0.5651333407688017,-0.5385737636364907,0.9665666222572327,0.1335764527320862,-0.2188748717308044,32.59597778320312,6.809412002563477,14.50567626953125,2,12506.309233375,2,0,1580908790.5504,1580903939.50652,2968,0.4879909,0,0,3568.739,14,15,1580908786.772968,12504.404764,0,16.96106,97.00623
1580908791.333618,120,0,1580907286.99823,41.20781296037784,29.0754925099451,275.2123,0.1345286,-1,23.46983528137207,200,-9999,12507.13218625,0.9942779541015625,0.130767822265625,-0.2072906494140625,12507.12214625,1.726417942783673,1.349170234156955,-0.1326676834858576,-0.01283082738518715,0.1105237156152725,0.1389591246843338,-0.02637004852294922,0.0004711449146270752,-0.0008910298347473145,2,0.5072379845629434,-0.3657421636463633,-0.5652660732623709,-0.5379744236924955,0.9669687151908875,0.1322788447141647,-0.2178846001625061,32.59597778320312,6.809412002563477,14.50567626953125,2,12506.309233375,2,0,1580908790.5504,1580903939.50652,2968,0.4879909,0,0,3568.739,14,15,1580908786.772968,12504.404764,0,16.96106,97.00623
1580908791.371083,121,0,1580907286.99823,41.20781296037784,29.0754925099451,275.2123,0.1345286,-1,23.46983528137207,200,-9999,12507.14222725,1.00830078125,0.1231536865234375,-0.2045440673828125,12507.13218625,1.726615806890261,1.349943709628114,-0.1317122039749309,0.001267414540052414,0.07574602961540222,0.1027337312698364,0.01926696300506592,-0.0004854053258895874,0.005450844764709473,2,0.5072658612227324,-0.3661956464412858,-0.5653353875803225,-0.537566653995952,0.9672598242759705,0.1313317120075226,-0.2171641886234283,32.56668853759766,6.569732666015625,14.65695190429688,2,12506.309233375,2,0,1580908790.5504,1580903939.50652,2968,0.4879909,0,0,3568.739,14,15,1580908786.772968,12504.404764,0,16.96106,97.00623
1580908791.372481,122,0,1580907286.99823,41.20781296037784,29.0754925099451,275.2123,0.1345286,-1,23.46983528137207,200,-9999,12507.15226725,0.9907073974609375,0.113800048828125,-0.213470458984375,12507.14222725,1.726665964308886,1.350462039928164,-0.1312716788369035,0.007306936196982861,0.05061699450016022,0.0448380671441555,0.03725546598434448,-0.007340684533119202,0.01004141569137573,2,0.5073169048332692,-0.3664585094836711,-0.5653152778822605,-0.5373605420825496,0.9674286842346191,0.1308949887752533,-0.2166754305362701,32.56668853759766,6.569732666015625,14.65695190429688,2,12506.309233375,2,0,1580908790.5504,1580903939.50652,2968,0.4879909,0,0,3568.739,14,15,1580908786.772968,12504.404764,0,16.96106,97.00623
1580908791.373594,123,0,1580907286.99823,41.20781296037784,29.0754925099451,275.2123,0.1345286,-1,23.46983528137207,200,-9999,12507.16233825,0.966796875,0.1248931884765625,-0.21160888671875,12507.15226725,1.726684459803384,1.351012545385037,-0.1312681168423397,-0.003514285199344158,0.05217894166707993,-0.0003395304083824158,0.02241057157516479,-0.01733165979385376,0.0004736185073852539,2,0.5074750312663108,-0.3666028170813107,-0.5651813801483668,-0.537253650957582,0.9675483107566833,0.1308914572000504,-0.216142937541008,32.55140686035156,6.565589904785156,14.77584838867188,2,12506.309233375,2,0,1580908790.5504,1580903939.50652,2968,0.4879909,0,0,3568.739,14,15,1580908786.772968,12504.404764,0,16.96106,97.00623
1580908791.374814,124,0,1580907286.99823,41.20781296037784,29.0754925099451,275.2123,0.1345286,-1,23.46983528137207,200,-9999,12507.17237825,0.9708099365234375,0.13531494140625,-0.1991119384765625,12507.16233825,1.726579686127115,1.351479360338175,-0.1314541485421779,0.007238584570586681,0.04567201808094978,-0.02021482959389687,-0.003698229789733887,-0.008392021059989929,-2.384185791015625e-07,2,0.5076318668935855,-0.3666972978679179,-0.5649934500227296,-0.5372387568431924,0.9676253795623779,0.1310758888721466,-0.2156859636306763,32.55140686035156,6.565589904785156,14.77584838867188,2,12506.309233375,2,0,1580908790.5504,1580903939.50652,2968,0.4879909,0,0,3568.739,14,15,1580908786.772968,12504.404764,0,16.96106,97.00623
1580908791.383834,125,0,1580907286.99823,41.20781296037784,29.0754925099451,275.2123,0.1345286,-1,23.46983528137207,200,-9999,12507.18241825,0.96832275390625,0.1269989013671875,-0.2093048095703125,12507.17237825,1.726364621540764,1.351569496826695,-0.1317365270759311,0.01575244590640068,0.007576832547783852,-0.02948236465454102,-0.001240134239196777,0.00335085391998291,0.01282805204391479,2,0.5076849829933777,-0.3666887458435227,-0.5648499473222229,-0.5373450822815797,0.9676084518432617,0.1313558220863342,-0.2155906409025192,32.61100769042969,6.588497161865234,14.69314575195312,2,12506.309233375,2,0,1580908790.5504,1580903939.50652,2968,0.4879909,0,0,3568.739,14,15,1580908786.772968,12504.404764,0,16.96106,97.00623
1580908791.393894,126,0,1580907286.99823,41.20781296037784,29.0754925099451,275.2123,0.1345286,-1,23.46983528137207,200,-9999,12507.19245925,0.9630889892578125,0.1279449462890625,-0.207763671875,12507.18241825,1.726107947360388,1.351543909226381,-0.1321563330193783,0.01627140492200851,0.00208449549973011,-0.04850832372903824,-0.001607775688171387,-0.004146963357925415,0.004921436309814453,2,0.5077303456924279,-0.366617235959814,-0.5646941135584161,-0.5375148166859606,0.9675490856170654,0.131771981716156,-0.2156033962965012,32.61100769042969,6.588497161865234,14.69314575195312,2,12506.309233375,2,0,1580908790.5504,1580903939.50652,2968,0.4879909,0,0,3568.739,14,15,1580908786.772968,12504.404764,0,16.96106,97.00623
1580908791.426277,127,0,1580907286.99823,41.20781296037784,29.0754925099451,275.2123,0.1345286,-1,23.46983528137207,200,-9999,12507.20249925,0.962921142578125,0.1376800537109375,-0.199493408203125,12507.19245925,1.725849200991187,1.351283586755355,-0.1325378805120685,0.01730551011860371,-0.01983065716922283,-0.04452743381261826,-0.009360432624816895,-0.006128802895545959,0.003271341323852539,2,0.5076999667859277,-0.3664949945529553,-0.5646058012664298,-0.5377197398936837,0.9674438834190369,0.1321501880884171,-0.2158443182706833,32.71849060058594,6.578022003173828,14.7413330078125,2,12506.309233375,2,0,1580908790.5504,1580903939.50652,2968,0.4879909,0,0,3568.739,14,15,1580908786.772968,12504.404764,0,16.96106,97.00623
1580908791.427836,128,0,1580907286.99823,41.20781296037784,29.0754925099451,275.2123,0.1345286,-1,23.46983528137207,200,-9999,12507.21253925,0.94512939453125,0.130615234375,-0.213592529296875,12507.20249925,1.725577858221399,1.350733322087563,-0.1327958365448226,0.01832620799541473,-0.05252272635698318,-0.03068304620683193,-0.005759358406066895,0.004906013607978821,0.01495218276977539,2,0.5075561612932853,-0.3663361118770311,-0.5646150972929369,-0.5379539427113234,0.9672916531562805,0.1324058771133423,-0.2163691967725754,32.71849060058594,6.578022003173828,14.7413330078125,2,12506.309233375,2,0,1580908790.5504,1580903939.50652,2968,0.4879909,0,0,3568.739,14,15,1580908786.772968,12504.404764,0,16.96106,97.00623
1580908791.429048,129,0,1580907286.99823,41.20781296037784,29.0754925099451,275.2123,0.1345286,-1,23.46983528137207,200,-9999,12507.22257925,0.9615478515625,0.1282196044921875,-0.210357666015625,12507.21253925,1.725309865344016,1.350151432386854,-0.1329895031585615,0.02096007764339447,-0.05409638956189156,-0.02435431070625782,-0.02642077207565308,-0.001863270998001099,0.0008017420768737793,2,0.507388850693402,-0.3661876195646209,-0.564647496585726,-0.5381786384631402,0.9671403765678406,0.1325978338718414,-0.2169263660907745,32.63576507568359,6.582096099853516,14.63690185546875,2,12506.309233375,2,0,1580908790.5504,1580903939.50652,2968,0.4879909,0,0,3568.739,14,15,1580908786.772968,12504.404764,0,16.96106,97.00623
1580908791.434038,130,0,1580907286.99823,41.20781296037784,29.0754925099451,275.2123,0.1345286,-1,23.46983528137207,200,-9999,12507.23262025,0.9499359130859375,0.126678466796875,-0.2169189453125,12507.22257925,1.725088956675662,1.349501809458122,-0.1332047443516256,0.01588977128267288,-0.06637513637542725,-0.02688165754079819,-0.00923764705657959,-0.004701942205429077,0.004157364368438721,2,0.5072161318668229,-0.3660022278731818,-0.5647049389706252,-0.5384072696593404,0.9669714570045471,0.1328111737966537,-0.2175483256578445,32.63576507568359,6.582096099853516,14.63690185546875,2,12506.309233375,2,0,1580908790.5504,1580903939.50652,2968,0.4879909,0,0,3568.739,14,15,1580908786.772968,12504.404764,0,16.96106,97.00623
1580908791.444176,131,0,1580907286.99823,41.20781296037784,29.0754925099451,275.2123,0.1345286,-1,23.46983528137207,200,-9999,12507.24269025,0.9776763916015625,0.1248931884765625,-0.21307373046875,12507.23262025,1.724853018797849,1.348915595435564,-0.1335226301838785,0.01564209908246994,-0.05391420423984528,-0.03809356689453125,-0.02063429355621338,-0.006757661700248718,-0.001401662826538086,2,0.5070829658846931,-0.3658058699277174,-0.5647193714387249,-0.5386510645825433,0.9668025970458984,0.1331262439489365,-0.2181058675050735,32.42874145507812,6.803133010864258,14.55917358398438,2,12506.309233375,2,0,1580908790.5504,1580903939.50652,2968,0.4879909,0,0,3568.739,14,15,1580908786.772968,12504.404764,0,16.96106,97.00623
1580908791.454607,132,0,1580907286.99823,41.20781296037784,29.0754925099451,275.2123,0.1345286,-1,23.46983528137207,200,-9999,12507.25273125,0.994537353515625,0.124755859375,-0.2083282470703125,12507.24269025,1.724622971750655,1.348164034528252,-0.1340512691576009,0.009462317451834679,-0.07200521230697632,-0.05590924248099327,0.004135668277740479,-0.009053647518157959,0.001951813697814941,2,0.5069543257935338,-0.3654981230399814,-0.5647303544955266,-0.5389695809876347,0.966569721698761,0.133650153875351,-0.2188168615102768,32.42874145507812,6.803133010864258,14.55917358398438,2,12506.309233375,2,0,1580908790.5504,1580903939.50652,2968,0.4879909,0,0,3568.739,14,15,1580908786.772968,12504.404764,0,16.96106,97.00623
1580908791.489132,133,0,1580907286.99823,41.20781296037784,29.0754925099451,275.2123,0.1345286,-1,23.46983528137207,200,-9999,12507.26277125,0.987823486328125,0.1287384033203125,-0.2079620361328125,12507.25273125,1.724327484651283,1.347160681122864,-0.134833986288214,0.01275238767266273,-0.09542371332645416,-0.081639364361763,0.02383804321289062,-0.01022891700267792,0.008303701877593994,2,0.5068031459889466,-0.3650601576181178,-0.5647308390477759,-0.5394079224860572,0.9662474393844604,0.1344258040189743,-0.219763308763504,32.56004333496094,6.478788375854492,14.69366455078125,2,12506.309233375,2,0,1580908790.5504,1580903939.50652,2968,0.4879909,0,0,3568.739,14,15,1580908786.772968,12504.404764,0,16.96106,97.00623
1580908791.490762,134,0,1580907286.99823,41.20781296037784,29.0754925099451,275.2123,0.1345286,-1,23.46983528137207,200,-9999,12507.27281125,0.961334228515625,0.1261138916015625,-0.21856689453125,12507.26277125,1.723988003675766,1.345814484092842,-0.1358237725028354,0.01073238532990217,-0.1332154422998428,-0.1044564694166183,0.02007049322128296,-0.007459744811058044,0.01003706455230713,2,0.5065965129975022,-0.3644762511257971,-0.5647600432404982,-0.5399660036869491,0.9658204913139343,0.1354065388441086,-0.2210340648889542,32.56004333496094,6.478788375854492,14.69366455078125,2,12506.309233375,2,0,1580908790.5504,1580903939.50652,2968,0.4879909,0,0,3568.739,14,15,1580908786.772968,12504.404764,0,16.96106,97.00623
1580908791.491828,135,0,1580907286.99823,41.20781296037784,29.0754925099451,275.2123,0.1345286,-1,23.46983528137207,200,-9999,12507.28285225,0.927886962890625,0.1245574951171875,-0.2319488525390625,12507.27281125,1.723684248860417,1.344521321955953,-0.1369492274877496,0.002072318457067013,-0.1304028779268265,-0.1193022653460503,-0.004409849643707275,-0.009937077760696411,0.003000915050506592,2,0.5064438353813467,-0.3638549161428458,-0.5647549784338601,-0.5405330844198923,0.9653846025466919,0.1365215480327606,-0.2222484797239304,32.51024627685547,6.733242034912109,14.66925048828125,2,12507.27351325,4,2,1580908791.514679,1580903939.50652,2968,0.4879909,0,0,3568.739,14,15,1580908786.772968,12504.404764,0,16.96106,97.00623
1580908791.494849,136,0,1580907286.99823,41.20781296037784,29.0754925099451,275.2123,0.1345286,-1,23.46983528137207,200,-9999,12507.29289225,0.9128570556640625,0.1329498291015625,-0.2253265380859375,12507.28285225,1.723402799585361,1.343631672363415,-0.1380692466417721,0.005147204734385014,-0.08442606031894684,-0.1159536018967628,-0.03717231750488281,-0.01495698094367981,-0.01291048526763916,2,0.5064079139202625,-0.3633382363352646,-0.5646548771113982,-0.5410188034096324,0.9650370478630066,0.1376309990882874,-0.2230727076530457,32.51024627685547,6.733242034912109,14.66925048828125,2,12507.27351325,4,2,1580908791.514679,1580903939.50652,2968,0.4879909,0,0,3568.739,14,15,1580908786.772968,12504.404764,0,16.96106,97.00623
1580908791.504287,137,0,1580907286.99823,41.20781296037784,29.0754925099451,275.2123,0.1345286,-1,23.46983528137207,200,-9999,12507.30293225,0.914764404296875,0.1164093017578125,-0.2577362060546875,12507.29289225,1.723258770398375,1.343181305938168,-0.1391427103840978,-0.009853050112724304,-0.04976928234100342,-0.1071819514036179,-0.05583173036575317,-0.005495607852935791,-0.003398120403289795,2,0.5065100092885074,-0.3629196851163609,-0.5644908763175972,-0.5413751492470295,0.9647919535636902,0.138694167137146,-0.2234738320112228,32.62969207763672,6.627355575561523,14.45001220703125,2,12507.27351325,4,2,1580908791.514679,1580903939.50652,2968,0.4879909,0,0,3568.739,14,15,1580908786.772968,12504.404764,0,16.96106,97.00623
1580908791.514297,138,0,1580907286.99823,41.20781296037784,29.0754925099451,275.2123,0.1345286,-1,23.46983528137207,200,-9999,12507.31297225,0.9591827392578125,0.1246337890625,-0.23870849609375,12507.30293225,1.723313690694155,1.343616274868487,-0.1402988443863046,-0.0343899168074131,0.04650558531284332,-0.1124110668897629,-0.05488663911819458,-0.0226207971572876,-0.03522789478302002,2,0.5069175999722932,-0.362664597791861,-0.5641378624895734,-0.5415324807505835,0.9647321701049805,0.1398390233516693,-0.2230178713798523,32.52703857421875,6.771909713745117,14.38861083984375,2,12507.27351325,4,2,1580908791.514679,1580903939.50652,2968,0.4879909,0,0,3568.739,14,15,1580908786.772968,12504.404764,0,16.96106,97.00623
1580908791.546781,139,0,1580907286.99823,41.20781296037784,29.0754925099451,275.2123,0.1345286,-1,23.46983528137207,200,-9999,12507.32301325,1.004318237304688,0.127532958984375,-0.2251739501953125,12507.31297225,1.72344623722412,1.344378626511681,-0.1417233231606642,-0.04403561726212502,0.07519741356372833,-0.13555046916008,-0.01486790180206299,-0.01910790801048279,-0.02360588312149048,2,0.5074949086713384,-0.3623951141185187,-0.5636626085448279,-0.5416670296108881,0.9647067785263062,0.1412493735551834,-0.2222373932600021,32.52703857421875,6.771909713745117,14.38861083984375,2,12507.27351325,4,2,1580908791.514679,1580903939.50652,2968,0.4879909,0,0,3568.739,14,15,1580908786.772968,12504.404764,0,16.96106,97.00623
1580908791.548013,140,0,1580907286.99823,41.20781296037784,29.0754925099451,275.2123,0.1345286,-1,23.46983528137207,200,-9999,12507.33308425,1.05181884765625,0.147491455078125,-0.207427978515625,12507.32301325,1.72354746967824,1.345074356972065,-0.1435853933214701,-0.05350777506828308,0.07476319372653961,-0.1777021139860153,0.03214156627655029,-0.01554122567176819,-0.006074368953704834,2,0.508150902950898,-0.3619795509038652,-0.5630973884728918,-0.5419177653060923,0.9646031856536865,0.1430925279855728,-0.2215069234371185,32.53275299072266,7.075546264648438,14.49130249023438,2,12507.27351325,4,2,1580908791.514679,1580903939.50652,2968,0.4879909,0,0,3568.739,14,15,1580908786.772968,12504.404764,0,16.96106,97.00623
1580908791.549026,141,0,1580907286.99823,41.20781296037784,29.0754925099451,275.2123,0.1345286,-1,23.46983528137207,200,-9999,12507.34312425,1.098876953125,0.147735595703125,-0.2037200927734375,12507.33308425,1.723372112362313,1.344785159633658,-0.1460472771273158,-0.03529095649719238,-0.02458869107067585,-0.2430576831102371,0.07730734348297119,-0.001919150352478027,0.008056759834289551,2,0.5086210931446251,-0.3611806447651388,-0.5625725017609975,-0.5425544107882678,0.964192807674408,0.145528644323349,-0.2217062562704086,32.53275299072266,7.075546264648438,14.49130249023438,2,12507.27351325,4,2,1580908791.514679,1580903939.50652,2968,0.4879909,0,0,3568.739,14,15,1580908786.772968,12504.404764,0,16.96106,97.00623
1580908791.555071,142,0,1580907286.99823,41.20781296037784,29.0754925099451,275.2123,0.1345286,-1,23.46983528137207,200,-9999,12507.35316425,1.06396484375,0.1435699462890625,-0.2223968505859375,12507.34312425,1.723039140073297,1.343290342810264,-0.1491959670816733,-0.03989537060260773,-0.1535079330205917,-0.3131897151470184,0.1319422721862793,0.0008901506662368774,0.01884371042251587,2,0.5088860223800086,-0.3598799669840514,-0.5621568618776551,-0.5436001788353169,0.9634091854095459,0.1486430764198303,-0.2230428457260132,32.60872650146484,6.860797882080078,14.49691772460938,2,12507.27351325,4,2,1580908791.514679,1580903939.50652,2968,0.4879909,0,0,3568.739,14,15,1580908786.772968,12504.404764,0,16.96106,97.00623
1580908791.564533,143,0,1580907286.99823,41.20781296037784,29.0754925099451,275.2123,0.1345286,-1,23.46983528137207,200,-9999,12507.36320425,1.11065673828125,0.1690826416015625,-0.18853759765625,12507.35316425,1.722406291761693,1.341333505216393,-0.1530165511662461,-0.02809730172157288,-0.1893119961023331,-0.3842793107032776,0.09952777624130249,-0.01161406934261322,-0.001307368278503418,2,0.5091263308539032,-0.3583182570377756,-0.5616252748587559,-0.5449544367971786,0.9624106884002686,0.1524201333522797,-0.2247968167066574,32.60872650146484,6.860797882080078,14.49691772460938,2,12507.27351325,4,2,1580908791.514679,1580903939.50652,2968,0.4879909,0,0,3568.739,14,15,1580908786.772968,12504.404764,0,16.96106,97.00623
1580908791.574653,144,0,1580907286.99823,41.20781296037784,29.0754925099451,275.2123,0.1345286,-1,23.46983528137207,200,-9999,12507.37324525,1.21356201171875,0.141021728515625,-0.24212646484375,12507.36320425,1.721472508268186,1.33865851204598,-0.1576687379384986,-0.01337340567260981,-0.2573542892932892,-0.479084312915802,0.137703001499176,0.0114821195602417,0.03443491458892822,2,0.5093083439917897,-0.3563742141194391,-0.561005691389845,-0.5466945727454424,0.9611054658889771,0.1570162922143936,-0.2272048592567444,32.43669128417969,7.042703628540039,14.32461547851562,2,12507.27351325,4,2,1580908791.514679,1580903939.50652,2968,0.4879909,0,0,3568.739,14,15,1580908786.772968,12504.404764,0,16.96106,97.00623
1580908791.611285,145,0,1580907286.99823,41.20781296037784,29.0754925099451,275.2123,0.1345286,-1,23.46983528137207,200,-9999,12507.38328525,1.191909790039062,0.2053985595703125,-0.15472412109375,12507.37324525,1.720299779181157,1.33538888503862,-0.1633713823371143,-0.02830761484801769,-0.3098113834857941,-0.5863335728645325,0.2389988899230957,-0.02154290676116943,-0.008889615535736084,2,0.5095305219887731,-0.3539941747179842,-0.5602326106192532,-0.5488226442477731,0.9594712853431702,0.1626456081867218,-0.2301335483789444,32.43669128417969,7.042703628540039,14.32461547851562,2,12507.27351325,4,2,1580908791.514679,1580903939.50652,2968,0.4879909,0,0,3568.739,14,15,1580908786.772968,12504.404764,0,16.96106,97.00623
1580908791.612635,146,0,1580907286.99823,41.20781296037784,29.0754925099451,275.2123,0.1345286,-1,23.46983528137207,200,-9999,12507.39332525,1.115768432617188,0.2602996826171875,-0.0848541259765625,12507.38328525,1.718440283587709,1.331967642109473,-0.169808981040748,0.02142727747559547,-0.3253678381443024,-0.6599220633506775,0.246451199054718,0.02631410956382751,0.05727618932723999,2,0.5097647301370186,-0.3515093196706126,-0.5591386837684597,-0.5513121681839326,0.957641065120697,0.1689940840005875,-0.2331622391939163,32.29880523681641,7.327077865600586,14.1197509765625,2,12507.27351325,4,2,1580908791.514679,1580903939.50652,2968,0.4879909,0,0,3568.739,14,15,1580908786.772968,12504.404764,0,16.96106,97.00623
1580908791.613753,147,0,1580907286.99823,41.20781296037784,29.0754925099451,275.2123,0.1345286,-1,23.46983528137207,200,-9999,12507.40336525,1.650039672851562,0.1131134033203125,-0.5471954345703125,12507.39332525,1.715601996364616,1.329659835377734,-0.1778059586449576,0.1632536649703979,-0.1565971970558167,-0.7867404818534851,0.1461386680603027,0.08136533200740814,0.1586804389953613,2,0.5105094258097012,-0.3490836904271981,-0.5571289697466469,-0.5541913581808895,0.9557574987411499,0.1768705546855927,-0.2350414097309113,32.29880523681641,7.327077865600586,14.1197509765625,2,12507.27351325,4,2,1580908791.514679,1580903939.50652,2968,0.4879909,0,0,3568.739,14,15,1580908786.772968,12504.404764,0,16.96106,97.00623
1580908791.614934,148,0,1580907286.99823,41.20781296037784,29.0754925099451,275.2123,0.1345286,-1,23.46983528137207,200,-9999,12507.41340625,2.02606201171875,0.026214599609375,-0.5511016845703125,12507.40336525,1.713442212380607,1.326407757202943,-0.1911511039132799,-0.1037258505821228,-0.2757219672203064,-1.375277519226074,0.6121551990509033,-0.05108137428760529,-0.2596787810325623,2,0.5123696432181737,-0.3445276993975627,-0.5543139839170514,-0.5581343560630333,0.9526128172874451,0.1899891644716263,-0.2375560253858566,32.26847839355469,7.754919052124023,14.00216674804688,2,12507.27351325,4,2,1580908791.514679,1580903939.50652,2968,0.4879909,0,0,3568.739,14,15,1580908786.772968,12504.404764,0,16.96106,97.00623
1580908791.62482,149,0,1580907286.99823,41.20781296037784,29.0754925099451,275.2123,0.1345286,-1,23.46983528137207,200,-9999,12507.42347725,1.384674072265625,0.1546478271484375,-0.178009033203125,12507.41340625,1.712027732975304,1.321193994332858,-0.2088924138622403,-0.3243812620639801,-0.5221285820007324,-1.752835750579834,1.098896026611328,-0.1902696937322617,-0.3550270199775696,2,0.5148378055920659,-0.3378130385991703,-0.5511744051342218,-0.5630553094742052,0.9479457139968872,0.2073765248060226,-0.2416487634181976,32.26847839355469,7.754919052124023,14.00216674804688,2,12507.27351325,4,2,1580908791.514679,1580903939.50652,2968,0.4879909,0,0,3568.739,14,15,1580908786.772968,12504.404764,0,16.96106,97.00623
1580908791.634878,150,0,1580907286.99823,41.20781296037784,29.0754925099451,275.2123,0.1345286,-1,23.46983528137207,200,-9999,12507.43351725,1.305145263671875,0.1395111083984375,-0.3160400390625,12507.42347725,1.710009741711259,1.317198204430158,-0.2299774934768647,-0.3237352669239044,-0.3288732171058655,-2.076846599578857,0.4989250302314758,-0.08260093629360199,0.05066299438476562,2,0.5183008362701019,-0.3304885529604977,-0.5467354178230148,-0.5685261942180693,0.9425296187400818,0.2279556095600128,-0.2442831248044968,31.75113677978516,8.693569183349609,13.85186767578125,2,12507.27351325,4,2,1580908791.514679,1580903939.50652,2968,0.4879909,0,0,3568.739,14,15,1580908786.772968,12504.404764,0,16.96106,97.00623
1580908791.663577,151,0,1580907286.99823,41.20781296037784,29.0754925099451,275.2123,0.1345286,-1,23.46983528137207,200,-9999,12507.44355725,1.662246704101562,0.1419830322265625,-0.38482666015625,12507.43351725,1.707344423365487,1.314968904031542,-0.2537363482978843,-0.3472730815410614,-0.1271323710680008,-2.334456443786621,0.335383415222168,-0.108242928981781,-0.05586665868759155,2,0.5227256105376228,-0.3229334847826064,-0.5409628120836254,-0.5743093682217518,0.9364776611328125,0.2510224282741547,-0.2449437975883484,31.75113677978516,8.693569183349609,13.85186767578125,2,12507.27351325,4,2,1580908791.514679,1580903939.50652,2968,0.4879909,0,0,3568.739,14,15,1580908786.772968,12504.404764,0,16.96106,97.00623
1580908791.665044,152,0,1580907286.99823,41.20781296037784,29.0754925099451,275.2123,0.1345286,-1,23.46983528137207,200,-9999,12507.45359725,1.778854370117188,0.0876007080078125,-0.350677490234375,12507.44355725,1.704226197891589,1.312847351675931,-0.2815084672725774,-0.418701171875,-0.1242035701870918,-2.747952222824097,0.7016472220420837,-0.13494473695755,-0.1409432291984558,2,0.5279750483098573,-0.314187887933796,-0.533986163280487,-0.5808503885624834,0.9288550615310669,0.2778050601482391,-0.2450566440820694,31.14010620117188,9.855110168457031,13.74002075195312,2,12507.27351325,4,2,1580908791.514679,1580903939.50652,2968,0.4879909,0,0,3568.739,14,15,1580908786.772968,12504.404764,0,16.96106,97.00623
1580908791.666155,153,0,1580907286.99823,41.20781296037784,29.0754925099451,275.2123,0.1345286,-1,23.46983528137207,200,-9999,12507.46363825,1.693695068359375,0.0968780517578125,-0.226043701171875,12507.45359725,1.700378576768763,1.30928147470903,-0.3135447745023218,-0.4628260135650635,-0.2352659106254578,-3.181947231292725,0.8574194312095642,-0.2171570658683777,-0.1178863644599915,2,0.5336242433927252,-0.3037689421853683,-0.5260277013408674,-0.5884424153372698,0.9189033508300781,0.3084325194358826,-0.2459391951560974,31.14010620117188,9.855110168457031,13.74002075195312,2,12507.27351325,4,2,1580908791.514679,1580903939.50652,2968,0.4879909,0,0,3568.739,14,15,1580908786.772968,12504.404764,0,16.96106,97.00623
1580908791.675068,154,0,1580907286.99823,41.20781296037784,29.0754925099451,275.2123,0.1345286,-1,23.46983528137207,200,-9999,12507.47367825,1.712417602539062,0.1492156982421875,-0.238739013671875,12507.46363825,1.695441908750763,1.303658660602393,-0.3490246661364986,-0.4843757152557373,-0.4103255271911621,-3.544400691986084,0.7927395701408386,-0.2525430023670197,0.01111537218093872,2,0.5392693979453419,-0.2918227617906644,-0.5173027422953811,-0.5970141035431897,0.9063757061958313,0.341981440782547,-0.2480559796094894,29.97379302978516,11.44247055053711,13.48965454101562,2,12507.27351325,4,2,1580908791.514679,1580903939.50652,2968,0.4879909,0,0,3568.739,14,15,1580908786.772968,12504.404764,0,16.96106,97.00623
1580908791.685068,155,0,1580907286.99823,41.20781296037784,29.0754925099451,275.2123,0.1345286,-1,23.46983528137207,200,-9999,12507.48371825,1.83758544921875,0.1422119140625,-0.230865478515625,12507.47367825,1.688895169246964,1.296263423234596,-0.387129837656454,-0.4215568006038666,-0.5026991367340088,-3.80865478515625,0.807334303855896,-0.2302766740322113,0.01476204395294189,2,0.5447455936133773,-0.278809320157267,-0.507744796156282,-0.6063933185096925,0.8913196921348572,0.3775322139263153,-0.251035213470459,29.97379302978516,11.44247055053711,13.48965454101562,2,12507.27351325,4,2,1580908791.514679,1580903939.50652,2968,0.4879909,0,0,3568.739,14,15,1580908786.772968,12504.404764,0,16.96106,97.00623
1580908791.695112,156,0,1580907286.99823,41.20781296037784,29.0754925099451,275.2123,0.1345286,-1,23.46983528137207,200,-9999,12507.49375925,2.045913696289062,0.154205322265625,-0.190093994140625,12507.48371825,1.680542296573298,1.286444361146282,-0.42876257731618,-0.4186758995056152,-0.6429337859153748,-4.20469331741333,0.9476823806762695,-0.2770894169807434,0.01688534021377563,2,0.5500896015826995,-0.2642547931477399,-0.4971993970529353,-0.6167362138913683,0.8729594349861145,0.4157457053661346,-0.2551416754722595,28.70123291015625,13.3167552947998,13.19540405273438,2,12507.27351325,4,2,1580908791.514679,1580903939.50652,2968,0.4879909,0,0,3568.739,14,15,1580908786.772968,12504.404764,0,16.96106,97.00623
1580908791.731551,157,0,1580907286.99823,41.20781296037784,29.0754925099451,275.2123,0.1345286,-1,23.46983528137207,200,-9999,12507.50379925,2.194381713867188,0.23931884765625,0.0165863037109375,12507.49375925,1.669433071320885,1.272447266679209,-0.4739504638410467,-0.3342015147209167,-0.8900562524795532,-4.584372043609619,1.167192816734314,-0.3048728108406067,0.05991595983505249,2,0.5548097256904897,-0.2478208735578635,-0.4857953943119181,-0.628310298371042,0.8504648208618164,0.4564048647880554,-0.2615419626235962,28.70123291015625,13.3167552947998,13.19540405273438,2,12507.27351325,4,2,1580908791.514679,1580903939.50652,2968,0.4879909,0,0,3568.739,14,15,1580908786.772968,12504.404764,0,16.96106,97.00623
1580908791.73287,158,0,1580907286.99823,41.20781296037784,29.0754925099451,275.2123,0.1345286,-1,23.46983528137207,200,-9999,12507.51387025,2.183563232421875,0.4405517578125,0.1760711669921875,12507.50379925,1.654790584779144,1.253173239652746,-0.5228433728482099,-0.2583552002906799,-1.261455059051514,-5.032778263092041,1.364542007446289,-0.2759865522384644,0.2597444653511047,2,0.5587030408893969,-0.2292553452426623,-0.4734918997106412,-0.6411695524041322,0.8230658173561096,0.4993456602096558,-0.2705858051776886,27.17985534667969,15.17107963562012,12.68649291992188,2,12507.27351325,4,2,1580908791.514679,1580903939.50652,2968,0.4879909,0,0,3568.739,14,15,1580908786.772968,12504.404764,0,16.96106,97.00623
1580908791.734417,159,0,1580907286.99823,41.20781296037784,29.0754925099451,275.2123,0.1345286,-1,23.46983528137207,200,-9999,12507.52391025,2.274215698242188,0.4546661376953125,0.3003387451171875,12507.51387025,1.634710888265672,1.231536373901157,-0.574646172625504,-0.07151314616203308,-1.114995002746582,-5.415355682373047,1.388008594512939,-0.1255079507827759,0.4425719976425171,2,0.5622563440987384,-0.2102348117749009,-0.4589923701582269,-0.6549772041360187,0.7915407419204712,0.5435378551483154,-0.2793382406234741,27.17985534667969,15.17107963562012,12.68649291992188,2,12507.27351325,4,2,1580908791.514679,1580903939.50652,2968,0.4879909,0,0,3568.739,14,15,1580908786.772968,12504.404764,0,16.96106,97.00623
1580908791.736392,160,0,1580907286.99823,41.20781296037784,29.0754925099451,275.2123,0.1345286,-1,23.46983528137207,200,-9999,12507.53395025,2.405044555664062,0.3494873046875,0.27337646484375,12507.52391025,1.607033309607335,1.207048249452402,-0.6293632405566985,0.2613161206245422,-0.856471836566925,-5.8970947265625,1.503661155700684,-0.1230429410934448,0.572811484336853,2,0.5653626366349569,-0.1912028116945268,-0.4415981452736472,-0.6699237660380799,0.7555087804794312,0.5886301398277283,-0.2876131534576416,24.93336486816406,17.69421768188477,11.91989135742188,2,12507.27351325,4,2,1580908791.514679,1580903939.50652,2968,0.4879909,0,0,3568.739,14,15,1580908786.772968,12504.404764,0,16.96106,97.00623
1580908791.745839,161,0,1580907286.99823,41.20781296037784,29.0754925099451,275.2123,0.1345286,-1,23.46983528137207,200,-9999,12507.54399025,2.558380126953125,0.186737060546875,0.2476043701171875,12507.53395025,1.571710155814647,1.177759263177474,-0.6870797482813441,0.4463595151901245,-0.7663901448249817,-6.378420829772949,1.671685814857483,-0.2791598439216614,0.5790975689888,2,0.5679304399310852,-0.1714868226732376,-0.4216731633731091,-0.6857398071957423,0.7141527533531189,0.6342822313308716,-0.2960945665836334,24.93336486816406,17.69421768188477,11.91989135742188,2,12507.27351325,4,2,1580908791.514679,1580903939.50652,2968,0.4879909,0,0,3568.739,14,15,1580908786.772968,12504.404764,0,16.96106,97.00623
1580908791.755842,162,0,1580907286.99823,41.20781296037784,29.0754925099451,275.2123,0.1345286,-1,23.46983528137207,200,-9999,12507.55403125,2.757644653320312,0.2610626220703125,0.1698455810546875,12507.54399025,1.526860183079883,1.142332937937367,-0.7452923773727357,0.8046119213104248,-0.5378119349479675,-6.629787921905518,1.873955965042114,-0.4735767841339111,0.5439013242721558,2,0.5694142148742835,-0.1519994297635219,-0.3995353999024387,-0.7021646014156855,0.6684595346450806,0.6781867146492004,-0.3053272366523743,21.8424072265625,20.30424880981445,11.53610229492188,2,12507.27351325,4,2,1580908791.514679,1580903939.50652,2968,0.4879909,0,0,3568.739,14,15,1580908786.772968,12504.404764,0,16.96106,97.00623
1580908791.785282,163,0,1580907286.99823,41.20781296037784,29.0754925099451,275.2123,0.1345286,-1,23.46983528137207,200,-9999,12507.56407125,2.879714965820312,0.1333770751953125,0.29541015625,12507.55403125,1.472307226472881,1.095984762342528,-0.80513424446754,0.8311793804168701,-0.8769356608390808,-7.133259773254395,2.115028381347656,-0.4857457280158997,0.5026639103889465,2,0.569660070229745,-0.1306688954660374,-0.3760523303452599,-0.719025618040213,0.6163525581359863,0.7209236621856689,-0.3168260753154755,21.8424072265625,20.30424880981445,11.53610229492188,2,12507.27351325,4,2,1580908791.514679,1580903939.50652,2968,0.4879909,0,0,3568.739,14,15,1580908786.772968,12504.404764,0,16.96106,97.00623
1580908791.78624,164,0,1580907286.99823,41.20781296037784,29.0754925099451,275.2123,0.1345286,-1,23.46983528137207,200,-9999,12507.57411125,2.802459716796875,0.0005340576171875,0.4839630126953125,12507.56407125,1.405096270080883,1.03675409172392,-0.8608607884307727,1.286340355873108,-0.8745503425598145,-7.025351524353027,2.317338466644287,-0.5900347232818604,0.585260808467865,2,0.5675697579073742,-0.1094523631105851,-0.3522938340982532,-0.7360528519607156,0.5610281229019165,0.7584038972854614,-0.3317694962024689,17.68267059326172,22.68925285339355,10.72430419921875,2,12507.27351325,4,2,1580908791.514679,1580903939.50652,2968,0.4879909,0,0,3568.739,14,15,1580908786.772968,12504.404764,0,16.96106,97.00623
