loggingTime,loggingSample,identifierForVendor,locationTimestamp_since1970,locationLatitude,locationLongitude,locationAltitude,locationSpeed,locationCourse,locationVerticalAccuracy,locationHorizontalAccuracy,locationFloor,accelerometerTimestamp_sinceReboot,accelerometerAccelerationX,accelerometerAccelerationY,accelerometerAccelerationZ,motionTimestamp_sinceReboot,motionYaw,motionRoll,motionPitch,motionRotationRateX,motionRotationRateY,motionRotationRateZ,motionUserAccelerationX,motionUserAccelerationY,motionUserAccelerationZ,motionAttitudeReferenceFrame,motionQuaternionX,motionQuaternionY,motionQuaternionZ,motionQuaternionW,motionGravityX,motionGravityY,motionGravityZ,motionMagneticFieldX,motionMagneticFieldY,motionMagneticFieldZ,motionMagneticFieldCalibrationAccuracy,activityTimestamp_sinceReboot,activity,activityActivityConfidence,activityActivityStartDate,pedometerStartDate,pedometerNumberofSteps,pedometerAverageActivePace,pedometerCurrentPace,pedometerCurrentCadence,pedometerDistance,pedometerFloorAscended,pedometerFloorDescended,pedometerEndDate,altimeterTimestamp_sinceReboot,altimeterReset,altimeterRelativeAltitude,altimeterPressure
1582558797.788783,1,0,1582558796.102781,41.207029230293,29.07401879364835,170.2314,0.2144638,83.31480459016653,3,6.000906205260658,-9999,105887.6034005,0.97674560546875,0.06256103515625,-0.1415557861328125,105887.5973885,-2.582427193332513,1.422562828263132,-0.06324041175463879,0.0008946583257056773,0.03321898356080055,0.01675349287688732,-0.01601940393447876,0.00533728301525116,0.02272957563400269,2,0.6205344940407966,0.203073721019866,-0.7334431110438524,0.1891013142080212,0.9870564937591553,0.0631982684135437,-0.1473960131406784,30.43877410888672,-15.52216339111328,15.9510498046875,2,105886.4661055,4,1,1582558796.63818,1582558685.643339,11,0.6387488,0,0,10.91,0,0,1582558765.788069,105885.042066,0,-0.07926941,99.3652
1582558797.789825,2,0,1582558796.102781,41.207029230293,29.07401879364835,170.2314,0.2144638,83.31480459016653,3,6.000906205260658,-9999,105887.6134715,0.9750518798828125,0.0626678466796875,-0.1467437744140625,105887.6074295,-2.581676896915993,1.422985988878302,-0.06322618191591474,-0.0009181133937090635,0.04222467914223671,0.001685053575783968,-0.0117034912109375,-0.001850679516792297,0.001590251922607422,2,0.6206150608824968,0.2033414111251018,-0.7332396398982119,0.1893378968614023,0.9871196150779724,0.06318406760692596,-0.1469784379005432,30.44234466552734,-15.58467102050781,15.828857421875,2,105886.4661055,4,1,1582558796.63818,1582558685.643339,11,0.6387488,0,0,10.91,0,0,1582558765.788069,105885.042066,0,-0.07926941,99.3652
1582558797.792553,3,0,1582558796.102781,41.207029230293,29.07401879364835,170.2314,0.2144638,83.31480459016653,3,6.000906205260658,-9999,105887.6235115,0.9962921142578125,0.068023681640625,-0.1290435791015625,105887.6174695,-2.58168218329321,1.423227108292678,-0.06330334756592051,-0.0006992015987634659,0.02523157745599747,-0.006976078730076551,-0.00933837890625,0.0005137324333190918,0.002755284309387207,2,0.6206951594843553,0.2033904400256325,-0.733171372711347,0.1892869760537456,0.9871501922607422,0.06326107680797577,-0.1467396914958954,30.44234466552734,-15.58467102050781,15.828857421875,2,105886.4661055,4,1,1582558796.63818,1582558685.643339,11,0.6387488,0,0,10.91,0,0,1582558765.788069,105885.042066,0,-0.07926941,99.3652
1582558797.802633,4,0,1582558796.102781,41.207029230293,29.07401879364835,170.2314,0.2144638,83.31480459016653,3,6.000906205260658,-9999,105887.6335525,0.987091064453125,0.072052001953125,-0.1304473876953125,105887.6275095,-2.580973200496615,1.423071268978068,-0.06340450961909848,0.001645142445340753,-0.01676912605762482,-0.009919896721839905,0.01096963882446289,0.00567704439163208,0.01967757940292358,2,0.6205542903105667,0.2036322036705346,-0.7331605924315725,0.1895307002888295,0.9871209859848022,0.06336203217506409,-0.1468925923109055,30.45679473876953,-15.59865570068359,15.68804931640625,2,105886.4661055,4,1,1582558796.63818,1582558685.643339,11,0.6387488,0,0,10.91,0,0,1582558765.788069,105885.042066,0,-0.07926941,99.3652
1582558797.82341,5,0,1582558796.102781,41.207029230293,29.07401879364835,170.2314,0.2144638,83.31480459016653,3,6.000906205260658,-9999,105887.6435925,0.96734619140625,0.069549560546875,-0.1398162841796875,105887.6375505,-2.581008656889801,1.422758598085957,-0.06347089558957214,0.002457140246406198,-0.03263996914029121,-0.006674568634480238,-0.004803717136383057,0.008128449320793152,0.0143854022026062,2,0.6204356745257233,0.2036155100123115,-0.7332661000879288,0.1895284421627308,0.9870707392692566,0.06342829018831253,-0.1472005993127823,30.45679473876953,-15.59865570068359,15.68804931640625,2,105886.4661055,4,1,1582558796.63818,1582558685.643339,11,0.6387488,0,0,10.91,0,0,1582558765.788069,105885.042066,0,-0.07926941,99.3652
1582558797.82448,6,0,1582558796.102781,41.207029230293,29.07401879364835,170.2314,0.2144638,83.31480459016653,3,6.000906205260658,-9999,105887.6536325,0.9564361572265625,0.07061767578125,-0.1416778564453125,105887.6475905,-2.580323386665069,1.422441037562082,-0.06347270089212419,0.004226062912493944,-0.03137560933828354,-0.0001042094081640244,-0.02244174480438232,0.006478682160377502,0.007298409938812256,2,0.6202492330922628,0.2037986061729859,-0.7332997913558433,0.1898114889648016,0.9870238900184631,0.06343009322881699,-0.1475140303373337,30.35662078857422,-15.55401229858398,15.73416137695312,2,105886.4661055,4,1,1582558796.63818,1582558685.643339,11,0.6387488,0,0,10.91,0,0,1582558765.788069,105885.042066,0,-0.07926941,99.3652
1582558797.833044,7,0,1582558796.102781,41.207029230293,29.07401879364835,170.2314,0.2144638,83.31480459016653,3,6.000906205260658,-9999,105887.6636735,0.9477386474609375,0.0643157958984375,-0.1513214111328125,105887.6576305,-2.580325019258095,1.422347572475692,-0.0634193299643056,0.0004331889795139432,-0.008112629875540733,0.007104967255145311,-0.03271573781967163,0.006272569298744202,0.004293620586395264,2,0.6202212577083382,0.2037699653684982,-0.7333247224214049,0.1898373180179308,0.9870134592056274,0.06337682902812958,-0.1476067900657654,30.35662078857422,-15.55401229858398,15.73416137695312,2,105886.4661055,4,1,1582558796.63818,1582558685.643339,11,0.6387488,0,0,10.91,0,0,1582558765.788069,105885.042066,0,-0.07926941,99.3652
1582558797.84264,8,0,1582558796.102781,41.207029230293,29.07401879364835,170.2314,0.2144638,83.31480459016653,3,6.000906205260658,-9999,105887.6737135,0.948455810546875,0.0629425048828125,-0.1535491943359375,105887.6676705,-2.579555828124559,1.42260531935451,-0.06335993067351264,-0.002178276423364878,0.02625722251832485,0.007315740920603275,-0.03999018669128418,0.0001520514488220215,-0.005542755126953125,2,0.6202441530265764,0.2040115620510704,-0.7331670908360465,0.1901118933810811,0.987055242061615,0.06331754475831985,-0.1473529487848282,30.40392303466797,-15.72888946533203,15.7835693359375,2,105886.4661055,4,1,1582558796.63818,1582558685.643339,11,0.6387488,0,0,10.91,0,0,1582558765.788069,105885.042066,0,-0.07926941,99.3652
1582558797.853375,9,0,1582558796.102781,41.207029230293,29.07401879364835,170.2314,0.2144638,83.31480459016653,3,6.000906205260658,-9999,105887.6837535,0.9567718505859375,0.0652008056640625,-0.1474151611328125,105887.6777115,-2.57950481088137,1.423139122199456,-0.06331934773110311,-0.004560740664601326,0.05268989503383636,0.004844061098992825,-0.03770613670349121,2.469122409820557e-05,-0.005748927593231201,2,0.6204392679318981,0.2040634877511808,-0.7329934916387589,0.1900890097130764,0.9871363639831543,0.06327704340219498,-0.1468264162540436,30.40392303466797,-15.72888946533203,15.7835693359375,2,105886.4661055,4,1,1582558796.63818,1582558685.643339,11,0.6387488,0,0,10.91,0,0,1582558765.788069,105885.042066,0,-0.07926941,99.3652
1582558797.863328,10,0,1582558796.102781,41.207029230293,29.07401879364835,170.2314,0.2144638,83.31480459016653,3,6.000906205260658,-9999,105887.6937935,0.9651031494140625,0.0658111572265625,-0.143707275390625,105887.6877515,-2.578753463464889,1.423834549542481,-0.06329442346134147,-0.005932210013270378,0.07057467103004456,0.002218946814537048,-0.02830350399017334,0.001987412571907043,-0.0003166794776916504,2,0.6206202489960128,0.2043537328731136,-0.7327042403948512,0.1903011730665448,0.98723965883255,0.06325217336416245,-0.1461401134729385,30.24788665771484,-15.4034309387207,15.85116577148438,2,105886.4661055,4,1,1582558796.63818,1582558685.643339,11,0.6387488,0,0,10.91,0,0,1582558765.788069,105885.042066,0,-0.07926941,99.3652
1582558797.881894,11,0,1582558796.102781,41.207029230293,29.07401879364835,170.2314,0.2144638,83.31480459016653,3,6.000906205260658,-9999,105887.7038345,0.9698333740234375,0.0687408447265625,-0.1398773193359375,105887.6977915,-2.578714060019363,1.424594789191515,-0.06326491790838867,-0.00486108660697937,0.0760892778635025,0.003303118981420994,-0.02177870273590088,0.00311550498008728,0.002091407775878906,2,0.6208980835120966,0.2044276532125982,-0.7324621986087193,0.1902472716704733,0.9873523712158203,0.06322272121906281,-0.1453898102045059,30.24788665771484,-15.4034309387207,15.85116577148438,2,105886.4661055,4,1,1582558796.63818,1582558685.643339,11,0.6387488,0,0,10.91,0,0,1582558765.788069,105885.042066,0,-0.07926941,99.3652
1582558797.882944,12,0,1582558796.102781,41.207029230293,29.07401879364835,170.2314,0.2144638,83.31480459016653,3,6.000906205260658,-9999,105887.7138745,0.976593017578125,0.071136474609375,-0.1334075927734375,105887.7078625,-2.577986194039949,1.425299573098266,-0.06322138638221317,-0.001935765147209167,0.06864416599273682,0.004415656439960003,-0.01610076427459717,0.005905523896217346,0.006034374237060547,2,0.6210867006450415,0.2047050481918258,-0.732170664958377,0.1904555216309527,0.9874573349952698,0.06317927688360214,-0.1446943134069443,30.43306732177734,-15.46328735351562,15.78948974609375,2,105886.4661055,4,1,1582558796.63818,1582558685.643339,11,0.6387488,0,0,10.91,0,0,1582558765.788069,105885.042066,0,-0.07926941,99.3652
1582558797.892765,13,0,1582558796.102781,41.207029230293,29.07401879364835,170.2314,0.2144638,83.31480459016653,3,6.000906205260658,-9999,105887.7239145,0.981231689453125,0.0731964111328125,-0.129302978515625,105887.7179025,-2.577988451426192,1.425818487180235,-0.06316952939598128,0.001461096806451678,0.05269183218479156,0.004996757954359055,-0.01030433177947998,0.008642822504043579,0.01182425022125244,2,0.6212828503624721,0.2047350634816023,-0.7320055519088535,0.1904180038123514,0.9875354766845703,0.06312752515077591,-0.1441823542118073,30.43306732177734,-15.46328735351562,15.78948974609375,2,105886.4661055,4,1,1582558796.63818,1582558685.643339,11,0.6387488,0,0,10.91,0,0,1582558765.788069,105885.042066,0,-0.07926941,99.3652
1582558797.903334,14,0,1582558796.102781,41.207029230293,29.07401879364835,170.2314,0.2144638,83.31480459016653,3,6.000906205260658,-9999,105887.7339555,0.982574462890625,0.0702667236328125,-0.1302642822265625,105887.7279435,-2.577323544894623,1.426084798060831,-0.06311617778298971,0.004705969244241714,0.02544399350881577,0.006072229705750942,-0.005493462085723877,0.01000836491584778,0.01493406295776367,2,0.6213183469914043,0.2049477759632392,-0.7318552650861115,0.1906510070973681,0.9875771999359131,0.06307428330183029,-0.1439198404550552,30.35001373291016,-15.58022689819336,15.99441528320312,2,105886.4661055,4,1,1582558796.63818,1582558685.643339,11,0.6387488,0,0,10.91,0,0,1582558765.788069,105885.042066,0,-0.07926941,99.3652
1582558797.913003,15,0,1582558796.102781,41.207029230293,29.07401879364835,170.2314,0.2144638,83.31480459016653,3,6.000906205260658,-9999,105887.7439955,0.9781951904296875,0.067626953125,-0.1334686279296875,105887.7379835,-2.577381540377145,1.426191449660513,-0.06310261632464374,0.005318230018019676,0.009528141468763351,0.001196247991174459,-0.005814909934997559,0.006222456693649292,0.01270788908004761,2,0.6213648742394124,0.204935044508623,-0.7318265997875734,0.1906231726586855,0.987593412399292,0.06306074559688568,-0.1438146382570267,30.35001373291016,-15.58022689819336,15.99441528320312,2,105886.4661055,4,1,1582558796.63818,1582558685.643339,11,0.6387488,0,0,10.91,0,0,1582558765.788069,105885.042066,0,-0.07926941,99.3652
1582558797.923021,16,0,1582558796.102781,41.207029230293,29.07401879364835,170.2314,0.2144638,83.31480459016653,3,6.000906205260658,-9999,105887.7540355,0.968292236328125,0.0660247802734375,-0.137664794921875,105887.7480235,-2.576773782186795,1.426235409164334,-0.06311783918541138,0.007648029364645481,0.003411980345845222,-0.002272213809192181,-0.01070302724838257,0.004421964287757874,0.009719431400299072,2,0.6213169096611538,0.2051335165563238,-0.731756134273517,0.1908361705113508,0.987598717212677,0.06307593733072281,-0.1437710821628571,30.25287628173828,-15.51415252685547,15.9984130859375,2,105886.4661055,4,1,1582558796.63818,1582558685.643339,11,0.6387488,0,0,10.91,0,0,1582558765.788069,105885.042066,0,-0.07926941,99.3652
1582558797.946208,17,0,1582558796.102781,41.207029230293,29.07401879364835,170.2314,0.2144638,83.31480459016653,3,6.000906205260658,-9999,105887.7640755,0.9596405029296875,0.065582275390625,-0.1435394287109375,105887.7580635,-2.576848242397539,1.426428529691675,-0.06315712239572627,0.006939362734556198,0.02244772389531136,-0.004695956595242023,-0.02203512191772461,0.00242963433265686,0.004065632820129395,2,0.6213906680154218,0.2051429668029889,-0.7317064200784071,0.1907766886517565,0.9876240491867065,0.06311514228582382,-0.1435800045728683,30.25287628173828,-15.51415252685547,15.9984130859375,2,105886.4661055,4,1,1582558796.63818,1582558685.643339,11,0.6387488,0,0,10.91,0,0,1582558765.788069,105885.042066,0,-0.07926941,99.3652
1582558797.947364,18,0,1582558796.102781,41.207029230293,29.07401879364835,170.2314,0.2144638,83.31480459016653,3,6.000906205260658,-9999,105887.7741165,0.964019775390625,0.0677032470703125,-0.1396942138671875,105887.7681045,-2.576221748995686,1.426738199322912,-0.06317442732215112,0.005526880733668804,0.03227431327104568,-0.001232128590345383,-0.02792263031005859,0.002412378787994385,-0.0002686381340026855,2,0.6214376531936232,0.2053734150052468,-0.7315518241880663,0.190968617251774,0.987667441368103,0.06313241273164749,-0.1432740092277527,30.10121917724609,-15.42027282714844,15.89413452148438,2,105886.4661055,4,1,1582558796.63818,1582558685.643339,11,0.6387488,0,0,10.91,0,0,1582558765.788069,105885.042066,0,-0.07926941,99.3652
1582558797.953517,19,0,1582558796.102781,41.207029230293,29.07401879364835,170.2314,0.2144638,83.31480459016653,3,6.000906205260658,-9999,105887.7841565,0.9748992919921875,0.07177734375,-0.1318511962890625,105887.7781445,-2.576272927459673,1.427010277715954,-0.06315554295183901,0.005809974856674671,0.02852538041770458,0.002379117533564568,-0.02185928821563721,0.005772903561592102,0.004589676856994629,2,0.6215446000248221,0.2053766905103925,-0.7314706601028288,0.1909279554186696,0.9877075552940369,0.06311357021331787,-0.143005445599556,30.10121917724609,-15.42027282714844,15.89413452148438,2,105886.4661055,4,1,1582558796.63818,1582558685.643339,11,0.6387488,0,0,10.91,0,0,1582558765.788069,105885.042066,0,-0.07926941,99.3652
1582558797.963276,20,0,1582558796.102781,41.207029230293,29.07401879364835,170.2314,0.2144638,83.31480459016653,3,6.000906205260658,-9999,105887.7941965,0.9784088134765625,0.0695953369140625,-0.1313323974609375,105887.7881845,-2.575664902072027,1.427150174208039,-0.06314154096191683,0.007591529749333858,0.01410548575222492,0.0003611617721617222,-0.01127535104751587,0.008609741926193237,0.01201969385147095,2,0.6215349262896488,0.205573943716035,-0.7313678871763857,0.1911403192266691,0.9877282977104187,0.06309959292411804,-0.1428673714399338,30.17719268798828,-15.4386100769043,15.994140625,2,105886.4661055,4,1,1582558796.63818,1582558685.643339,11,0.6387488,0,0,10.91,0,0,1582558765.788069,105885.042066,0,-0.07926941,99.3652
1582558797.973106,21,0,1582558796.102781,41.207029230293,29.07401879364835,170.2314,0.2144638,83.31480459016653,3,6.000906205260658,-9999,105887.8042375,0.973602294921875,0.06744384765625,-0.1367645263671875,105887.7982255,-2.575722340154917,1.427210881471028,-0.0631287006724269,0.005899890325963497,0.004213439300656319,0.002057861536741257,-0.009941935539245605,0.005860701203346252,0.01015961170196533,2,0.6215644956657943,0.2055572971530286,-0.7313535804145547,0.1911172159646632,0.9877378940582275,0.06308677792549133,-0.1428075432777405,30.17719268798828,-15.4386100769043,15.994140625,2,105886.4661055,4,1,1582558796.63818,1582558685.643339,11,0.6387488,0,0,10.91,0,0,1582558765.788069,105885.042066,0,-0.07926941,99.3652
1582558797.983178,22,0,1582558796.102781,41.207029230293,29.07401879364835,170.2314,0.2144638,83.31480459016653,3,6.000906205260658,-9999,105887.8142775,0.9669952392578125,0.06658935546875,-0.1391143798828125,105887.8082655,-2.575096997739051,1.427286012223951,-0.06313108745152458,0.005086028017103672,0.006135707721114159,0.000371547881513834,-0.01582729816436768,0.004118844866752625,0.005171716213226318,2,0.6215274052545943,0.2057596538218598,-0.731270528541681,0.1913373239636809,0.9877483248710632,0.06308916211128235,-0.1427333056926727,29.97167205810547,-15.46240997314453,15.928955078125,2,105886.4661055,4,1,1582558796.63818,1582558685.643339,11,0.6387488,0,0,10.91,0,0,1582558765.788069,105885.042066,0,-0.07926941,99.3652
1582558798.01166,23,0,1582558796.102781,41.207029230293,29.07401879364835,170.2314,0.2144638,83.31480459016653,3,6.000906205260658,-9999,105887.8243175,0.962554931640625,0.065460205078125,-0.1391754150390625,105887.8183055,-2.575133476962762,1.427445653827613,-0.06311511114489421,0.004010643810033798,0.01561309956014156,0.001742543652653694,-0.02180200815200806,0.003249779343605042,0.003091514110565186,2,0.6215913734243206,0.2057578374878502,-0.7312231191990695,0.1913126287534247,0.9877721071243286,0.06307321786880493,-0.1425757557153702,29.97167205810547,-15.46240997314453,15.928955078125,2,105886.4661055,4,1,1582558796.63818,1582558685.643339,11,0.6387488,0,0,10.91,0,0,1582558765.788069,105885.042066,0,-0.07926941,99.3652
1582558798.012846,24,0,1582558796.102781,41.207029230293,29.07401879364835,170.2314,0.2144638,83.31480459016653,3,6.000906205260658,-9999,105887.8343575,0.9597625732421875,0.0698089599609375,-0.137237548828125,105887.8283455,-2.574457091551237,1.427696034997113,-0.06304397342739081,-0.0003110667457804084,0.02494526468217373,0.006611717399209738,-0.02637404203414917,0.002847731113433838,0.002982199192047119,2,0.6216214933955311,0.2059664476303868,-0.7310749327997162,0.1915567562828842,0.987812340259552,0.06300222128629684,-0.1423290818929672,30.26816558837891,-15.2762451171875,15.81759643554688,2,105886.4661055,4,1,1582558796.63818,1582558685.643339,11,0.6387488,0,0,10.91,0,0,1582558765.788069,105885.042066,0,-0.07926941,99.3652
1582558798.013817,25,0,1582558796.102781,41.207029230293,29.07401879364835,170.2314,0.2144638,83.31480459016653,3,6.000906205260658,-9999,105887.8443985,0.96728515625,0.0711669921875,-0.1338348388671875,105887.8383865,-2.574462950367281,1.427944587575965,-0.06288349301916785,0.003796859178692102,0.02503873966634274,0.01647952757775784,-0.02742660045623779,0.007890745997428894,0.005789637565612793,2,0.6217315030822774,0.2059306865217448,-0.730985314657057,0.1915799317671509,0.9878575801849365,0.06284205615520477,-0.1420849859714508,30.26816558837891,-15.2762451171875,15.81759643554688,2,105886.4661055,4,1,1582558796.63818,1582558685.643339,11,0.6387488,0,0,10.91,0,0,1582558765.788069,105885.042066,0,-0.07926941,99.3652
1582558798.023337,26,0,1582558796.102781,41.207029230293,29.07401879364835,170.2314,0.2144638,83.31480459016653,3,6.000906205260658,-9999,105887.8544385,0.9774169921875,0.070526123046875,-0.1317901611328125,105887.8484265,-2.573814633970257,1.428129259635083,-0.06270450673716796,0.004794097505509853,0.01918348297476768,0.01737145707011223,-0.01849186420440674,0.00808463990688324,0.008385896682739258,2,0.6217528911744458,0.2060855689381512,-0.730851476939523,0.1918547257925108,0.9878950119018555,0.06266342103481293,-0.1419041603803635,30.28411102294922,-15.44155883789062,16.047119140625,2,105886.4661055,4,1,1582558796.63818,1582558685.643339,11,0.6387488,0,0,10.91,0,0,1582558765.788069,105885.042066,0,-0.07926941,99.3652
1582558798.036462,27,0,1582558796.102781,41.207029230293,29.07401879364835,170.2314,0.2144638,83.31480459016653,3,6.000906205260658,-9999,105887.8645095,0.9867095947265625,0.06640625,-0.1316986083984375,105887.8584665,-2.57383763549964,1.428208768641501,-0.06255633050874636,0.00474056787788868,0.009754829108715057,0.01463053282350302,-0.008777201175689697,0.007484838366508484,0.009849846363067627,2,0.6218014516313773,0.206032743684031,-0.7308170362572709,0.191885158300029,0.9879154562950134,0.06251554191112518,-0.1418269276618958,30.28411102294922,-15.44155883789062,16.047119140625,2,105886.4661055,4,1,1582558796.63818,1582558685.643339,11,0.6387488,0,0,10.91,0,0,1582558765.788069,105885.042066,0,-0.07926941,99.3652
1582558798.043584,28,0,1582558796.102781,41.207029230293,29.07401879364835,170.2314,0.2144638,83.31480459016653,3,6.000906205260658,-9999,105887.8745495,0.996551513671875,0.06317138671875,-0.1300201416015625,105887.8685075,-2.573180418265247,1.428081299888382,-0.06252035009027067,0.002482887357473373,-0.01300208922475576,0.003939996473491192,0.001004278659820557,0.002943158149719238,0.0102965235710144,2,0.6216912973983871,0.2062118835250111,-0.7307907027531779,0.1921498880296499,0.9878996014595032,0.06247962638735771,-0.1419531852006912,30.28841400146484,-15.54249572753906,15.87591552734375,2,105886.4661055,4,1,1582558796.63818,1582558685.643339,11,0.6387488,0,0,10.91,0,0,1582558765.788069,105885.042066,0,-0.07926941,99.3652
1582558798.064844,29,0,1582558796.102781,41.207029230293,29.07401879364835,170.2314,0.2144638,83.31480459016653,3,6.000906205260658,-9999,105887.8845895,0.9953155517578125,0.0633392333984375,-0.130584716796875,105887.8785475,-2.573202858890951,1.427730996195107,-0.06264742528370734,0.001077270950190723,-0.03513428941369057,-0.01224083732813597,0.009301662445068359,0.000588536262512207,0.01247251033782959,2,0.6215508919858642,0.2062169638566636,-0.7309119664587195,0.1921374754813801,0.9878419637680054,0.06260645389556885,-0.1422981023788452,30.28841400146484,-15.54249572753906,15.87591552734375,2,105886.4661055,4,1,1582558796.63818,1582558685.643339,11,0.6387488,0,0,10.91,0,0,1582558765.788069,105885.042066,0,-0.07926941,99.3652
1582558798.065873,30,0,1582558796.102781,41.207029230293,29.07401879364835,170.2314,0.2144638,83.31480459016653,3,6.000906205260658,-9999,105887.8946305,0.986328125,0.0646820068359375,-0.132537841796875,105887.8885875,-2.572548216237303,1.427199291663086,-0.06291384663885613,-0.001045335549861193,-0.05341667681932449,-0.02683678641915321,0.006097972393035889,0.0003988593816757202,0.01143872737884521,2,0.6212581700534734,0.206465074476862,-0.7310355900649367,0.1923469947974918,0.9877495169639587,0.06287235021591187,-0.1428209245204926,30.50386810302734,-15.70415496826172,15.91250610351562,2,105886.4661055,4,1,1582558796.63818,1582558685.643339,11,0.6387488,0,0,10.91,0,0,1582558765.788069,105885.042066,0,-0.07926941,99.3652
1582558798.073511,31,0,1582558796.102781,41.207029230293,29.07401879364835,170.2314,0.2144638,83.31480459016653,3,6.000906205260658,-9999,105887.9046705,0.9688262939453125,0.068572998046875,-0.135406494140625,105887.8986275,-2.572605120767998,1.426583709776649,-0.06324262058556801,0.001835405826568604,-0.06361845135688782,-0.0338187962770462,-0.0042610764503479,0.002145916223526001,0.01077735424041748,2,0.6210008696927662,0.2065065081602163,-0.7312587112183785,0.1922854753574412,0.9876409769058228,0.06320047378540039,-0.1434259712696075,30.50386810302734,-15.70415496826172,15.91250610351562,2,105886.4661055,4,1,1582558796.63818,1582558685.643339,11,0.6387488,0,0,10.91,0,0,1582558765.788069,105885.042066,0,-0.07926941,99.3652
1582558798.086248,32,0,1582558796.102781,41.207029230293,29.07401879364835,170.2314,0.2144638,83.31480459016653,3,6.000906205260658,-9999,105887.9147105,0.94744873046875,0.069915771484375,-0.1420440673828125,105887.9086685,-2.571985874532237,1.426084750450609,-0.06351306622944408,0.0007332076202146709,-0.04969393461942673,-0.02771871536970139,-0.02316963672637939,0.005660131573677063,0.00711745023727417,2,0.6207230367675195,0.20674808210014,-0.7313758375035539,0.1924777359593738,0.9875524640083313,0.06347037106752396,-0.1439162790775299,30.52294158935547,-15.5621337890625,15.92459106445312,2,105886.4661055,4,1,1582558796.63818,1582558685.643339,11,0.6387488,0,0,10.91,0,0,1582558765.788069,105885.042066,0,-0.07926941,99.3652
1582558798.093557,33,0,1582558796.102781,41.207029230293,29.07401879364835,170.2314,0.2144638,83.31480459016653,3,6.000906205260658,-9999,105887.9247505,0.92523193359375,0.0709075927734375,-0.14752197265625,105887.9187085,-2.572034929842632,1.425849761362847,-0.06361393939565731,0.003368139266967773,-0.02518219873309135,-0.009998306632041931,-0.04441541433334351,0.006642818450927734,0.001214563846588135,2,0.6206304544069231,0.2067465402713258,-0.7314615620397696,0.1924520860911833,0.9875122308731079,0.06357104331254959,-0.1441474109888077,30.52294158935547,-15.5621337890625,15.92459106445312,2,105886.4661055,4,1,1582558796.63818,1582558685.643339,11,0.6387488,0,0,10.91,0,0,1582558765.788069,105885.042066,0,-0.07926941,99.3652
1582558798.103723,34,0,1582558796.102781,41.207029230293,29.07401879364835,170.2314,0.2144638,83.31480459016653,3,6.000906205260658,-9999,105887.9347915,0.917633056640625,0.07037353515625,-0.1530609130859375,105887.9287485,-2.57139346965464,1.426136022645491,-0.06351042902475289,0.005889802239835262,0.03023747354745865,0.01054520532488823,-0.06616121530532837,0.007234439253807068,-0.005704760551452637,2,0.6206808258768002,0.206935922133409,-0.7313026630483441,0.1926898898285775,0.987559974193573,0.06346774101257324,-0.1438656747341156,30.47956085205078,-15.54601669311523,15.72073364257812,2,105886.4661055,4,1,1582558796.63818,1582558685.643339,11,0.6387488,0,0,10.91,0,0,1582558765.788069,105885.042066,0,-0.07926941,99.3652
1582558798.121758,35,0,1582558796.102781,41.207029230293,29.07401879364835,170.2314,0.2144638,83.31480459016653,3,6.000906205260658,-9999,105887.9448315,0.9333038330078125,0.071685791015625,-0.1431427001953125,105887.9387895,-2.571420064403307,1.426870635871917,-0.06322396741496435,0.006249062716960907,0.07460573315620422,0.02931756153702736,-0.06791722774505615,0.007642418146133423,-0.008670926094055176,2,0.6209854571012368,0.2068953624614659,-0.731054041211849,0.1926949525523614,0.9876832365989685,0.06318185478448868,-0.1431427448987961,30.47956085205078,-15.54601669311523,15.72073364257812,2,105886.4661055,4,1,1582558796.63818,1582558685.643339,11,0.6387488,0,0,10.91,0,0,1582558765.788069,105885.042066,0,-0.07926941,99.3652
1582558798.123768,36,0,1582558796.102781,41.207029230293,29.07401879364835,170.2314,0.2144638,83.31480459016653,3,6.000906205260658,-9999,105887.9548715,0.948455810546875,0.0704193115234375,-0.14056396484375,105887.9488295,-2.570814191922927,1.427885109496493,-0.06280953324408392,0.01098123285919428,0.1014378815889359,0.04117049276828766,-0.05179142951965332,0.008971616625785828,0.0003710389137268066,2,0.6213416112976281,0.2070323312634945,-0.730647260474265,0.1929429505813757,0.9878539443016052,0.06276824325323105,-0.1421444267034531,30.24105072021484,-15.47232437133789,15.96914672851562,2,105886.4661055,4,1,1582558796.63818,1582558685.643339,11,0.6387488,0,0,10.91,0,0,1582558765.788069,105885.042066,0,-0.07926941,99.3652
1582558798.135627,37,0,1582558796.102781,41.207029230293,29.07401879364835,170.2314,0.2144638,83.31480459016653,3,6.000906205260658,-9999,105887.9649125,0.9756927490234375,0.067718505859375,-0.1337127685546875,105887.9588695,-2.570879365211887,1.429029128012212,-0.06234180342965952,0.01325876824557781,0.1140681803226471,0.04607310518622398,-0.03487718105316162,0.007195428013801575,0.0008470416069030762,2,0.6218205144094653,0.2069542959196526,-0.7302601269774789,0.1929491757708219,0.988044798374176,0.06230143085122108,-0.1410183310508728,30.24105072021484,-15.47232437133789,15.96914672851562,2,105886.4661055,4,1,1582558796.63818,1582558685.643339,11,0.6387488,0,0,10.91,0,0,1582558765.788069,105885.042066,0,-0.07926941,99.3652
1582558798.143801,38,0,1582558796.102781,41.207029230293,29.07401879364835,170.2314,0.2144638,83.31480459016653,3,6.000906205260658,-9999,105887.9749525,0.9964752197265625,0.06793212890625,-0.125701904296875,105887.9689405,-2.570306082205749,1.430037822744813,-0.06192709441211144,0.01438188459724188,0.1011948585510254,0.03994712978601456,-0.007548153400421143,0.006022468209266663,0.008413910865783691,2,0.6221775172005073,0.2070809497495829,-0.7298574635564622,0.1931857277037708,0.988211989402771,0.06188752129673958,-0.1400252282619476,30.42752838134766,-15.61447906494141,15.92227172851562,2,105886.4661055,4,1,1582558796.63818,1582558685.643339,11,0.6387488,0,0,10.91,0,0,1582558765.788069,105885.042066,0,-0.07926941,99.3652
1582558798.153811,39,0,1582558797.102774,41.20702650638557,29.07401674035576,170.2858,0.1072373,82.19175073588718,3,6.000906205260658,-9999,105887.9849925,0.996734619140625,0.0655670166015625,-0.1239166259765625,105887.9789805,-2.570381605495129,1.430718740232722,-0.06160884902147847,0.01252539455890656,0.06747017800807953,0.03139332309365273,0.00982356071472168,0.006034970283508301,0.0141369104385376,2,0.6224706962181816,0.2070089348443934,-0.7296271185065739,0.1931888397230377,0.9883266091346741,0.06156988069415092,-0.1393550634384155,30.42752838134766,-15.61447906494141,15.92227172851562,2,105886.4661055,4,1,1582558796.63818,1582558685.643339,11,0.6387488,0,0,10.91,0,0,1582558765.788069,105885.042066,0,-0.07926941,99.3652
1582558798.164001,40,0,1582558797.102774,41.20702650638557,29.07401674035576,170.2858,0.1072373,82.19175073588718,3,6.000906205260658,-9999,105887.9950325,0.981201171875,0.0597381591796875,-0.1326751708984375,105887.9890205,-2.569782691147419,1.431162258403162,-0.06142751981525869,0.007687520235776901,0.04069907963275909,0.01758058927953243,0.005905389785766602,0.002889543771743774,0.01427966356277466,2,0.6225915019509739,0.2071731017733124,-0.7294164000220353,0.1934189749225021,0.9883993268013,0.06138889491558075,-0.1389182507991791,30.39699554443359,-15.60509490966797,16.06155395507812,2,105886.4661055,4,1,1582558796.63818,1582558685.643339,11,0.6387488,0,0,10.91,0,0,1582558765.788069,105885.042066,0,-0.07926941,99.3652
1582558798.178197,41,0,1582558797.102774,41.20702650638557,29.07401674035576,170.2858,0.1072373,82.19175073588718,3,6.000906205260658,-9999,105888.0050735,0.9649658203125,0.0645904541015625,-0.135040283203125,105887.9990615,-2.569849120640056,1.431648693946307,-0.06131957577249935,0.00951364915817976,0.04867497831583023,0.01007287204265594,-0.01104491949081421,-0.001366719603538513,0.004064619541168213,2,0.6227882899947295,0.2071607129401782,-0.7292626178685677,0.1933786941786245,0.9884733557701111,0.06128115579485893,-0.1384383738040924,30.39699554443359,-15.60509490966797,16.06155395507812,2,105886.4661055,4,1,1582558796.63818,1582558685.643339,11,0.6387488,0,0,10.91,0,0,1582558765.788069,105885.042066,0,-0.07926941,99.3652
1582558798.185524,42,0,1582558797.102774,41.20702650638557,29.07401674035576,170.2858,0.1072373,82.19175073588718,3,6.000906205260658,-9999,105888.0151135,0.9497833251953125,0.06622314453125,-0.138885498046875,105888.0091015,-2.569224015147523,1.43228155350545,-0.06117771964657331,0.004644402302801609,0.06227900832891464,0.01438516937196255,-0.02713227272033691,0.004145950078964233,0.002600789070129395,2,0.622970685479412,0.2073657081478731,-0.7289934905012394,0.1935861055735726,0.9885693788528442,0.06113956496119499,-0.1378139704465866,30.18981170654297,-15.67191696166992,16.06771850585938,2,105886.4661055,4,1,1582558796.63818,1582558685.643339,11,0.6387488,0,0,10.91,0,0,1582558765.788069,105885.042066,0,-0.07926941,99.3652
1582558798.193943,43,0,1582558797.102774,41.20702650638557,29.07401674035576,170.2858,0.1072373,82.19175073588718,3,6.000906205260658,-9999,105888.0251535,0.94775390625,0.0693817138671875,-0.13458251953125,105888.0191415,-2.569317829956713,1.433099833471195,-0.06093028845725058,0.01892400532960892,0.0825163722038269,0.02268784120678902,-0.04019927978515625,0.006803840398788452,-0.0007547736167907715,2,0.6233073398726519,0.2073268742910958,-0.7287273201197249,0.1935457074778638,0.9886966347694397,0.06089259311556816,-0.1370070576667786,30.18981170654297,-15.67191696166992,16.06771850585938,2,105886.4661055,4,1,1582558796.63818,1582558685.643339,11,0.6387488,0,0,10.91,0,0,1582558765.788069,105885.042066,0,-0.07926941,99.3652
1582558798.20405,44,0,1582558797.102774,41.20702650638557,29.07401674035576,170.2858,0.1072373,82.19175073588718,3,6.000906205260658,-9999,105888.0351945,0.9399261474609375,0.0608978271484375,-0.150115966796875,105888.0291825,-2.568651373686477,1.43430439525791,-0.06056588235421439,0.004916708916425705,0.1232583895325661,0.03702086955308914,-0.04264390468597412,0.006572529673576355,-0.002034366130828857,2,0.6237192271550853,0.2075206234399791,-0.7282575370959115,0.1937795443862576,0.9888829588890076,0.06052885949611664,-0.1358190327882767,30.29644012451172,-15.78769683837891,16.00436401367188,2,105886.4661055,4,1,1582558796.63818,1582558685.643339,11,0.6387488,0,0,10.91,0,0,1582558765.788069,105885.042066,0,-0.07926941,99.3652
1582558798.214031,45,0,1582558797.102774,41.20702650638557,29.07401674035576,170.2858,0.1072373,82.19175073588718,3,6.000906205260658,-9999,105888.0452345,0.954986572265625,0.064056396484375,-0.142974853515625,105888.0392225,-2.56797255806309,1.435974748912842,-0.06013147531644676,0.003158223582431674,0.1697755604982376,0.04518052935600281,-0.04864794015884399,0.001146823167800903,-0.01640892028808594,2,0.624307100558983,0.2077386684370488,-0.7276349319171262,0.1939915298255833,0.9891343712806702,0.06009524315595627,-0.1341705769300461,30.21979522705078,-15.50355529785156,16.16668701171875,2,105886.4661055,4,1,1582558796.63818,1582558685.643339,11,0.6387488,0,0,10.91,0,0,1582558765.788069,105885.042066,0,-0.07926941,99.3652
1582558798.224592,46,0,1582558797.102774,41.20702650638557,29.07401674035576,170.2858,0.1072373,82.19175073588718,3,6.000906205260658,-9999,105888.0552745,0.9864959716796875,0.061279296875,-0.127471923828125,105888.0492625,-2.567883906938852,1.437795808902097,-0.05973169155645602,-0.003395491046831012,0.1829814016819,0.04084623232483864,-0.02880322933197021,0.004216209053993225,-0.007785379886627197,2,0.6250064642935926,0.2077998515240942,-0.7270248009077505,0.1939620840153275,0.9894009828567505,0.05969617888331413,-0.1323722898960114,30.21979522705078,-15.50355529785156,16.16668701171875,2,105886.4661055,4,1,1582558796.63818,1582558685.643339,11,0.6387488,0,0,10.91,0,0,1582558765.788069,105885.042066,0,-0.07926941,99.3652
1582558798.24026,47,0,1582558797.102774,41.20702650638557,29.07401674035576,170.2858,0.1072373,82.19175073588718,3,6.000906205260658,-9999,105888.0653145,1.007720947265625,0.0640106201171875,-0.1118927001953125,105888.0593025,-2.567160661855937,1.439363708263143,-0.0594407173501492,-0.004025328904390335,0.1578565835952759,0.03074672631919384,0.00229954719543457,0.001943215727806091,0.006427288055419922,2,0.6255347254451763,0.2080739437884594,-0.726440295157554,0.1941545876773625,0.9896242618560791,0.05940572172403336,-0.1308230757713318,30.04010772705078,-15.51001358032227,16.23348999023438,2,105886.4661055,4,1,1582558796.63818,1582558685.643339,11,0.6387488,0,0,10.91,0,0,1582558765.788069,105885.042066,0,-0.07926941,99.3652
1582558798.244189,48,0,1582558797.102774,41.20702650638557,29.07401674035576,170.2858,0.1072373,82.19175073588718,3,6.000906205260658,-9999,105888.0753555,1.008651733398438,0.0657806396484375,-0.1060028076171875,105888.0693435,-2.567118851123856,1.440381624850018,-0.05928442068089114,-0.002282170113176107,0.1004892140626907,0.01642470061779022,0.01959866285324097,0.005669817328453064,0.02023744583129883,2,0.6259181259050437,0.2081299336521056,-0.7261048231622088,0.1941137249075348,0.9897661209106445,0.05924969911575317,-0.129816859960556,30.04010772705078,-15.51001358032227,16.23348999023438,2,105886.4661055,4,1,1582558796.63818,1582558685.643339,11,0.6387488,0,0,10.91,0,0,1582558765.788069,105885.042066,0,-0.07926941,99.3652
1582558798.254236,49,0,1582558797.102774,41.20702650638557,29.07401674035576,170.2858,0.1072373,82.19175073588718,3,6.000906205260658,-9999,105888.0853955,0.9934234619140625,0.06353759765625,-0.112945556640625,105888.0793835,-2.56650056575127,1.440940106529678,-0.05922616927922705,0.002593012526631355,0.05375686660408974,0.004971242975443602,0.01640981435775757,0.006353557109832764,0.02275192737579346,2,0.6260632138501012,0.20835687473192,-0.7258652112632473,0.1942986411349195,0.9898419380187988,0.05919155105948448,-0.1292645335197449,30.24134063720703,-15.64617156982422,16.24844360351562,2,105886.4661055,4,1,1582558796.63818,1582558685.643339,11,0.6387488,0,0,10.91,0,0,1582558765.788069,105885.042066,0,-0.07926941,99.3652
1582558798.2644,50,0,1582558797.102774,41.20702650638557,29.07401674035576,170.2858,0.1072373,82.19175073588718,3,6.000906205260658,-9999,105888.0954355,0.9686279296875,0.0643157958984375,-0.1216583251953125,105888.0894235,-2.566511437911503,1.441335356604851,-0.05918355517389694,0.002283269073814154,0.03763759508728981,0.003708909265697002,-0.0009167194366455078,0.003985241055488586,0.01395332813262939,2,0.6262127230017549,0.2083766340153925,-0.7257389825010842,0.1942671178973366,0.9898954033851624,0.05914901196956635,-0.1288736015558243,30.24134063720703,-15.64617156982422,16.24844360351562,2,105886.4661055,4,1,1582558796.63818,1582558685.643339,11,0.6387488,0,0,10.91,0,0,1582558765.788069,105885.042066,0,-0.07926941,99.3652
1582558798.274321,51,0,1582558797.102774,41.20702650638557,29.07401674035576,170.2858,0.1072373,82.19175073588718,3,6.000906205260658,-9999,105888.1054765,0.9512786865234375,0.066070556640625,-0.1298828125,105888.0994645,-2.565849944975067,1.441843607619784,-0.05904454500423816,-0.0001926716649904847,0.05101598426699638,0.01514745224267244,-0.02638083696365356,0.00597032904624939,0.004738450050354004,2,0.626344271813519,0.208583516569136,-0.7255040481360131,0.194498567875258,0.98996901512146,0.05901024490594864,-0.12837153673172,30.28803253173828,-15.54941558837891,16.17337036132812,2,105886.4661055,4,1,1582558796.63818,1582558685.643339,11,0.6387488,0,0,10.91,0,0,1582558765.788069,105885.042066,0,-0.07926941,99.3652
1582558798.285686,52,0,1582558797.102774,41.20702650638557,29.07401674035576,170.2858,0.1072373,82.19175073588718,3,6.000906205260658,-9999,105888.1155465,0.9557647705078125,0.06463623046875,-0.1287841796875,105888.1095045,-2.565821510782282,1.442602698156675,-0.05881118870487844,0.0008875546045601368,0.07850684970617294,0.02495518699288368,-0.03956848382949829,0.006874680519104004,-0.00306093692779541,2,0.6266436539844292,0.2085829163279664,-0.7252441818729604,0.1945043240686856,0.9900798797607422,0.05877729132771492,-0.1276217997074127,30.28803253173828,-15.54941558837891,16.17337036132812,2,105886.4661055,4,1,1582558796.63818,1582558685.643339,11,0.6387488,0,0,10.91,0,0,1582558765.788069,105885.042066,0,-0.07926941,99.3652
1582558798.298539,53,0,1582558797.102774,41.20702650638557,29.07401674035576,170.2858,0.1072373,82.19175073588718,3,6.000906205260658,-9999,105888.1255875,0.9680938720703125,0.0641021728515625,-0.1219940185546875,105888.1195445,-2.565174573903755,1.443473645100301,-0.05854811023525229,0.002066802233457565,0.09062928706407547,0.02692805975675583,-0.03218746185302734,0.005931884050369263,-0.0005953311920166016,2,0.6269223957301159,0.208776471256378,-0.7248863318538917,0.1947320401024779,0.9902058839797974,0.05851466581225395,-0.1267613917589188,30.13140106201172,-15.47713851928711,16.27908325195312,2,105886.4661055,4,1,1582558796.63818,1582558685.643339,11,0.6387488,0,0,10.91,0,0,1582558765.788069,105885.042066,0,-0.07926941,99.3652
1582558798.304496,54,0,1582558797.102774,41.20702650638557,29.07401674035576,170.2858,0.1072373,82.19175073588718,3,6.000906205260658,-9999,105888.1356275,0.9736785888671875,0.0600128173828125,-0.12274169921875,105888.1295845,-2.565130073805435,1.444388798560865,-0.0583154345170328,-0.001242313766852021,0.09205419570207596,0.02465252950787544,-0.02039963006973267,0.005233392119407654,0.00440514087677002,2,0.627276337802335,0.2087964802386303,-0.7245756117167641,0.1947270063015299,0.9903349280357361,0.05828238651156425,-0.1258568465709686,30.13140106201172,-15.47713851928711,16.27908325195312,2,105886.4661055,4,1,1582558796.63818,1582558685.643339,11,0.6387488,0,0,10.91,0,0,1582558765.788069,105885.042066,0,-0.07926941,99.3652
1582558798.314483,55,0,1582558797.102774,41.20702650638557,29.07401674035576,170.2858,0.1072373,82.19175073588718,3,6.000906205260658,-9999,105888.1456675,0.9737548828125,0.06182861328125,-0.1190185546875,105888.1396255,-2.56447533163253,1.445379539113208,-0.05813651398888857,0.0001534488401375711,0.09925484657287598,0.01780847460031509,-0.01682651042938232,0.001673609018325806,0.002265095710754395,2,0.6275875220308836,0.2090345523231779,-0.7241860137273645,0.194917855334354,0.9904693365097046,0.0581037700176239,-0.1248769164085388,30.11363983154297,-15.60168838500977,16.35519409179688,2,105886.4661055,4,1,1582558796.63818,1582558685.643339,11,0.6387488,0,0,10.91,0,0,1582558765.788069,105885.042066,0,-0.07926941,99.3652
1582558798.324522,56,0,1582558797.102774,41.20702650638557,29.07401674035576,170.2858,0.1072373,82.19175073588718,3,6.000906205260658,-9999,105888.1557075,0.969635009765625,0.0589599609375,-0.12109375,105888.1496655,-2.564486064871418,1.446429670266913,-0.05801438598527904,0.003512632334604859,0.1011463776230812,0.01130249258130789,-0.01719284057617188,0.003916531801223755,0.005162715911865234,2,0.6279829367477625,0.2090899852811483,-0.7238472944447196,0.1948433447558895,0.9906070828437805,0.05798184871673584,-0.1238376200199127,30.11363983154297,-15.60168838500977,16.35519409179688,2,105886.4661055,4,1,1582558796.63818,1582558685.643339,11,0.6387488,0,0,10.91,0,0,1582558765.788069,105885.042066,0,-0.07926941,99.3652
1582558798.336126,57,0,1582558797.102774,41.20702650638557,29.07401674035576,170.2858,0.1072373,82.19175073588718,3,6.000906205260658,-9999,105888.1657485,0.96075439453125,0.06011962890625,-0.12274169921875,105888.1597055,-2.563876957800167,1.44765563620304,-0.05794106516330071,0.001275044516660273,0.1189546659588814,0.007725867442786694,-0.02287173271179199,0.0005565285682678223,0.0005916357040405273,2,0.6283712794363738,0.2093746368060941,-0.7233967099818145,0.1949589389988431,0.9907623529434204,0.05790865048766136,-0.1226235926151276,29.93685150146484,-15.42684936523438,16.33795166015625,2,105886.4661055,4,1,1582558796.63818,1582558685.643339,11,0.6387488,0,0,10.91,0,0,1582558765.788069,105885.042066,0,-0.07926941,99.3652
1582558798.344641,58,0,1582558797.102774,41.20702650638557,29.07401674035576,170.2858,0.1072373,82.19175073588718,3,6.000906205260658,-9999,105888.1757885,0.9573822021484375,0.0613861083984375,-0.1241455078125,105888.1697465,-2.563906421452042,1.449169012939622,-0.0578612916608026,0.004497172776609659,0.1526253819465637,0.00751988822594285,-0.03172785043716431,0.002909719944000244,-0.002158820629119873,2,0.6289308046262282,0.2094844434368704,-0.7229172217480372,0.1948153999986542,0.9909514188766479,0.05782901123166084,-0.1211246252059937,29.93685150146484,-15.42684936523438,16.33795166015625,2,105886.4661055,4,1,1582558796.63818,1582558685.643339,11,0.6387488,0,0,10.91,0,0,1582558765.788069,105885.042066,0,-0.07926941,99.3652
1582558798.363007,59,0,1582558797.102774,41.20702650638557,29.07401674035576,170.2858,0.1072373,82.19175073588718,3,6.000906205260658,-9999,105888.1858285,0.9656524658203125,0.0673828125,-0.1152801513671875,105888.1797865,-2.563293442267436,1.450835453715612,-0.05770369323244876,0.001944000250659883,0.1668048501014709,0.01662177406251431,-0.03305137157440186,0.004043638706207275,-0.003687262535095215,2,0.6294868926983187,0.2097835909016796,-0.7223200454318059,0.194912803527277,0.9911609888076782,0.0576716773211956,-0.1194741949439049,29.97211456298828,-15.69223785400391,16.41928100585938,2,105886.4661055,4,1,1582558796.63818,1582558685.643339,11,0.6387488,0,0,10.91,0,0,1582558765.788069,105885.042066,0,-0.07926941,99.3652
1582558798.365354,60,0,1582558797.102774,41.20702650638557,29.07401674035576,170.2858,0.1072373,82.19175073588718,3,6.000906205260658,-9999,105888.1958695,0.9747467041015625,0.0673980712890625,-0.108673095703125,105888.1898265,-2.56330958719925,1.45248566181757,-0.05746789175443612,0.003742969827726483,0.1664194911718369,0.02578441798686981,-0.02393746376037598,0.01135912537574768,0.004428684711456299,2,0.6301116582658983,0.2098554227690578,-0.7217820230912334,0.1948095030892377,0.9913702011108398,0.0574362650513649,-0.1178399994969368,29.97211456298828,-15.69223785400391,16.41928100585938,2,105886.4661055,4,1,1582558796.63818,1582558685.643339,11,0.6387488,0,0,10.91,0,0,1582558765.788069,105885.042066,0,-0.07926941,99.3652
1582558798.374766,61,0,1582558797.102774,41.20702650638557,29.07401674035576,170.2858,0.1072373,82.19175073588718,3,6.000906205260658,-9999,105888.2059095,0.9824676513671875,0.061676025390625,-0.1085205078125,105888.1998665,-2.562706870985174,1.454061467425289,-0.05724597577929633,0.00413898192346096,0.1583732813596725,0.02315880358219147,-0.01519286632537842,0.008879899978637695,0.007796287536621094,2,0.630642521000105,0.2101200786712948,-0.7212078671781392,0.194932775149799,0.9915672540664673,0.05721471458673477,-0.116279125213623,29.95136260986328,-15.78893661499023,16.49368286132812,2,105886.4661055,4,1,1582558796.63818,1582558685.643339,11,0.6387488,0,0,10.91,0,0,1582558765.788069,105885.042066,0,-0.07926941,99.3652
1582558798.38582,62,0,1582558797.102774,41.20702650638557,29.07401674035576,170.2858,0.1072373,82.19175073588718,3,6.000906205260658,-9999,105888.2159495,0.992340087890625,0.0608978271484375,-0.102386474609375,105888.2099075,-2.562730664175485,1.455513711517228,-0.05708456783471548,0.003721432527527213,0.1470787525177002,0.01655478030443192,-0.007954180240631104,0.003883615136146545,0.006509602069854736,2,0.6311872033802682,0.2101967671528802,-0.7207384015513136,0.1948234951687643,0.9917442202568054,0.0570535697042942,-0.114840067923069,29.95136260986328,-15.78893661499023,16.49368286132812,2,105886.4661055,4,1,1582558796.63818,1582558685.643339,11,0.6387488,0,0,10.91,0,0,1582558765.788069,105885.042066,0,-0.07926941,99.3652
1582558798.39477,63,0,1582558797.102774,41.20702650638557,29.07401674035576,170.2858,0.1072373,82.19175073588718,3,6.000906205260658,-9999,105888.2259895,0.9956817626953125,0.06298828125,-0.096954345703125,105888.2199775,-2.562155994374276,1.45665817684387,-0.05698537704105931,0.004605602007359266,0.1126352921128273,0.009289678186178207,0.002483963966369629,0.004364147782325745,0.0131877064704895,2,0.6315505406867485,0.2104545127002764,-0.7203127464767795,0.1949421146391046,0.9918807148933411,0.05695454031229019,-0.1137056276202202,29.74399566650391,-15.6926155090332,16.71566772460938,2,105886.4661055,4,1,1582558796.63818,1582558685.643339,11,0.6387488,0,0,10.91,0,0,1582558765.788069,105885.042066,0,-0.07926941,99.3652
1582558798.406381,64,0,1582558797.102774,41.20702650638557,29.07401674035576,170.2858,0.1072373,82.19175073588718,3,6.000906205260658,-9999,105888.2360305,0.9799346923828125,0.0625457763671875,-0.105072021484375,105888.2300185,-2.562229383197932,1.457640094213299,-0.05694744565704065,0.006846652366220951,0.09654233604669571,0.003174527548253536,0.001043081283569336,0.006049960851669312,0.01476216316223145,2,0.6319162144740028,0.2105135649871272,-0.7200065481447459,0.1948245783576584,0.9919940829277039,0.05691666901111603,-0.1127318739891052,29.74399566650391,-15.6926155090332,16.71566772460938,2,105886.4661055,4,1,1582558796.63818,1582558685.643339,11,0.6387488,0,0,10.91,0,0,1582558765.788069,105885.042066,0,-0.07926941,99.3652
1582558798.423751,65,0,1582558797.102774,41.20702650638557,29.07401674035576,170.2858,0.1072373,82.19175073588718,3,6.000906205260658,-9999,105888.2460705,0.9732818603515625,0.0607147216796875,-0.1082763671875,105888.2400585,-2.561697539007553,1.458665210562426,-0.05693520851938846,0.007979294285178185,0.1029115542769432,0.0004458525218069553,-0.0144994854927063,0.005497589707374573,0.005261003971099854,2,0.6322305669127128,0.2107771831833252,-0.719629685493719,0.1949119481454362,0.9921097755432129,0.05690445378422737,-0.1117149814963341,29.76047515869141,-15.78977203369141,16.78720092773438,2,105886.4661055,4,1,1582558796.63818,1582558685.643339,11,0.6387488,0,0,10.91,0,0,1582558765.788069,105885.042066,0,-0.07926941,99.3652
1582558798.425026,66,0,1582558797.102774,41.20702650638557,29.07401674035576,170.2858,0.1072373,82.19175073588718,3,6.000906205260658,-9999,105888.25613025,0.9662017822265625,0.0599365234375,-0.1097564697265625,105888.2500985,-2.561786201695236,1.459810687723759,-0.05693422158021516,0.00922431331127882,0.1165903136134148,-0.0006369911134243011,-0.02031815052032471,0.003423377871513367,0.001683175563812256,2,0.6326520842980916,0.2108603882449411,-0.7192760219259643,0.194759632343372,0.9922371506690979,0.05690346658229828,-0.1105784773826599,29.76047515869141,-15.78977203369141,16.78720092773438,2,105886.4661055,4,1,1582558796.63818,1582558685.643339,11,0.6387488,0,0,10.91,0,0,1582558765.788069,105885.042066,0,-0.07926941,99.3652
1582558798.435676,67,0,1582558797.102774,41.20702650638557,29.07401674035576,170.2858,0.1072373,82.19175073588718,3,6.000906205260658,-9999,105888.26617125,0.9594879150390625,0.061248779296875,-0.110443115234375,105888.26015925,-2.5612433435674,1.461099916800322,-0.05691345355518961,0.00775052048265934,0.1283819824457169,0.001849868334829807,-0.02746480703353882,0.003184720873832703,-0.0003437995910644531,2,0.6330607264843854,0.2111503622068238,-0.7188133788418865,0.1948254463365013,0.9923799633979797,0.05688273161649704,-0.1092992797493935,29.61922454833984,-15.83384704589844,16.83938598632812,2,105886.4661055,4,1,1582558796.63818,1582558685.643339,11,0.6387488,0,0,10.91,0,0,1582558765.788069,105885.042066,0,-0.07926941,99.3652
1582558798.445458,68,0,1582558797.102774,41.20702650638557,29.07401674035576,170.2858,0.1072373,82.19175073588718,3,6.000906205260658,-9999,105888.27621125,0.95574951171875,0.0638885498046875,-0.109405517578125,105888.27019925,-2.561263949159524,1.462605925792938,-0.05681199837589757,0.002766713034361601,0.1514597684144974,0.01079101487994194,-0.03437846899032593,0.004506751894950867,-0.003333449363708496,2,0.6336157120319387,0.2112545951416335,-0.7183298398543472,0.1946917603984819,0.9925491809844971,0.05678144097328186,-0.1078052520751953,29.61922454833984,-15.83384704589844,16.83938598632812,2,105886.4661055,4,1,1582558796.63818,1582558685.643339,11,0.6387488,0,0,10.91,0,0,1582558765.788069,105885.042066,0,-0.07926941,99.3652
1582558798.455111,69,0,1582558797.102774,41.20702650638557,29.07401674035576,170.2858,0.1072373,82.19175073588718,3,6.000906205260658,-9999,105888.28625125,0.9592437744140625,0.0686492919921875,-0.104278564453125,105888.28023925,-2.560653911642478,1.464251758127242,-0.05655992508959499,0.002642609877511859,0.1639401465654373,0.02678569406270981,-0.03693395853042603,0.00858837366104126,-0.002005517482757568,2,0.6341712191686484,0.2115191025604814,-0.7177273301427105,0.1948182921519256,0.9927396178245544,0.05652977526187897,-0.1061730682849884,29.75266265869141,-15.68764114379883,16.99526977539062,2,105886.4661055,4,1,1582558796.63818,1582558685.643339,11,0.6387488,0,0,10.91,0,0,1582558765.788069,105885.042066,0,-0.07926941,99.3652
1582558798.466383,70,0,1582558797.102774,41.20702650638557,29.07401674035576,170.2858,0.1072373,82.19175073588718,3,6.000906205260658,-9999,105888.29629125,0.96795654296875,0.063232421875,-0.102325439453125,105888.29027925,-2.560667515594262,1.465997589316795,-0.05622533202446758,0.004194356966763735,0.1735965460538864,0.03363526612520218,-0.03255897760391235,0.01230989396572113,0.0005962252616882324,2,0.6348375698284378,0.2115665573093419,-0.7171459798443267,0.1947368202590237,0.9929420351982117,0.05619571357965469,-0.1044417023658752,29.75266265869141,-15.68764114379883,16.99526977539062,2,105886.4661055,4,1,1582558796.63818,1582558685.643339,11,0.6387488,0,0,10.91,0,0,1582558765.788069,105885.042066,0,-0.07926941,99.3652
1582558798.487567,71,0,1582558797.102774,41.20702650638557,29.07401674035576,170.2858,0.1072373,82.19175073588718,3,6.000906205260658,-9999,105888.30633225,0.981658935546875,0.056549072265625,-0.09808349609375,105888.30032025,-2.560061123463685,1.467813427173886,-0.05591769743483154,0.002958650235086679,0.1808312982320786,0.03044719435274601,-0.02232718467712402,0.005643874406814575,0.000885009765625,2,0.6354596880153718,0.2118273901545815,-0.716483831772745,0.194861486493651,0.9931471943855286,0.05588855966925621,-0.1026402860879898,29.58596038818359,-15.61336517333984,16.85296630859375,2,105886.4661055,4,1,1582558796.63818,1582558685.643339,11,0.6387488,0,0,10.91,0,0,1582558765.788069,105885.042066,0,-0.07926941,99.3652
1582558798.488592,72,0,1582558797.102774,41.20702650638557,29.07401674035576,170.2858,0.1072373,82.19175073588718,3,6.000906205260658,-9999,105888.31637225,0.992645263671875,0.056396484375,-0.089508056640625,105888.31036025,-2.560031329232185,1.469543509802003,-0.05570291596643191,-0.0005964563461020589,0.1732532382011414,0.02100543677806854,-0.009438455104827881,4.471838474273682e-05,0.003867268562316895,2,0.6361008419869891,0.2119296158041226,-0.7159124516767469,0.1947584178869202,0.9933351874351501,0.05567411333322525,-0.1009231135249138,29.58596038818359,-15.61336517333984,16.85296630859375,2,105886.4661055,4,1,1582558796.63818,1582558685.643339,11,0.6387488,0,0,10.91,0,0,1582558765.788069,105885.042066,0,-0.07926941,99.3652
1582558798.495295,73,0,1582558797.102774,41.20702650638557,29.07401674035576,170.2858,0.1072373,82.19175073588718,3,6.000906205260658,-9999,105888.32641225,0.9929962158203125,0.05963134765625,-0.0836334228515625,105888.32040025,-2.559370607468467,1.470988310467348,-0.05553630042572114,-0.004489998333156109,0.1439131796360016,0.01826424524188042,0.000371396541595459,0.001706451177597046,0.01209163665771484,2,0.6365669574886514,0.2122218719046184,-0.7153741015919164,0.1948956841170901,0.9934892654418945,0.05550775676965714,-0.09948877245187759,29.50243377685547,-15.63285446166992,17.041748046875,2,105886.4661055,4,1,1582558796.63818,1582558685.643339,11,0.6387488,0,0,10.91,0,0,1582558765.788069,105885.042066,0,-0.07926941,99.3652
1582558798.505269,74,0,1582558797.102774,41.20702650638557,29.07401674035576,170.2858,0.1072373,82.19175073588718,3,6.000906205260658,-9999,105888.33645325,0.979278564453125,0.0626373291015625,-0.0882720947265625,105888.33044125,-2.559283466726964,1.472211403338166,-0.0553618220971898,-0.00722980871796608,0.122290164232254,0.01821355149149895,-0.002993881702423096,0.004734069108963013,0.01406663656234741,2,0.6370151655062746,0.2123073555079636,-0.7149611835735242,0.194853673344919,0.993619978427887,0.05533354729413986,-0.09827452898025513,29.50243377685547,-15.63285446166992,17.041748046875,2,105886.4661055,4,1,1582558796.63818,1582558685.643339,11,0.6387488,0,0,10.91,0,0,1582558765.788069,105885.042066,0,-0.07926941,99.3652
1582558798.515398,75,0,1582558797.102774,41.20702650638557,29.07401674035576,170.2858,0.1072373,82.19175073588718,3,6.000906205260658,-9999,105888.34649325,0.9678955078125,0.0660400390625,-0.08880615234375,105888.34048125,-2.558609908632119,1.47333420132383,-0.05509655831851511,-0.005795962177217007,0.1128870695829391,0.02739213407039642,-0.01701885461807251,0.008630573749542236,0.008130311965942383,2,0.6373754594742549,0.2125379941738779,-0.7145147539778206,0.195061148384784,0.9937441349029541,0.05506868660449982,-0.09716024994850159,29.57889556884766,-15.71792602539062,17.27923583984375,2,105886.4661055,4,1,1582558796.63818,1582558685.643339,11,0.6387488,0,0,10.91,0,0,1582558765.788069,105885.042066,0,-0.07926941,99.3652
1582558798.526207,76,0,1582558797.102774,41.20702650638557,29.07401674035576,170.2858,0.1072373,82.19175073588718,3,6.000906205260658,-9999,105888.35653325,0.9526824951171875,0.065460205078125,-0.0968780517578125,105888.35052125,-2.558517780515317,1.474527205131864,-0.05468119740967901,-0.004843080416321754,0.1188241243362427,0.04297816753387451,-0.02934849262237549,0.01156304776668549,0.006336510181427002,2,0.6378396054694006,0.2125375819237805,-0.7140893610813309,0.1951021058533389,0.9938820004463196,0.05465395003557205,-0.09597682952880859,29.57889556884766,-15.71792602539062,17.27923583984375,2,105886.4661055,4,1,1582558796.63818,1582558685.643339,11,0.6387488,0,0,10.91,0,0,1582558765.788069,105885.042066,0,-0.07926941,99.3652
1582558798.542905,77,0,1582558797.102774,41.20702650638557,29.07401674035576,170.2858,0.1072373,82.19175073588718,3,6.000906205260658,-9999,105888.36657325,0.9563140869140625,0.065155029296875,-0.0977783203125,105888.36056125,-2.557820578273484,1.476001273799436,-0.05411156374193895,-0.004039604216814041,0.1468466967344284,0.05919627845287323,-0.04256594181060791,0.01115532219409943,-0.003838598728179932,2,0.6383571696414891,0.2127036066279926,-0.7135013789607615,0.1953792363658879,0.9940531849861145,0.05408516153693199,-0.09451460093259811,29.41461944580078,-15.90331268310547,17.37652587890625,2,105886.4661055,4,1,1582558796.63818,1582558685.643339,11,0.6387488,0,0,10.91,0,0,1582558765.788069,105885.042066,0,-0.07926941,99.3652
1582558798.545441,78,0,1582558797.102774,41.20702650638557,29.07401674035576,170.2858,0.1072373,82.19175073588718,3,6.000906205260658,-9999,105888.37664425,0.96881103515625,0.0631103515625,-0.0893096923828125,105888.37060225,-2.557709969385331,1.477683932037656,-0.05343915554543952,-0.005698876455426216,0.1684007197618484,0.06920075416564941,-0.03581684827804565,0.01121649146080017,-0.003753542900085449,2,0.6390227943909514,0.2126670643098951,-0.7128945280488755,0.1954583237510036,0.994246780872345,0.05341372266411781,-0.09284517914056778,29.41461944580078,-15.90331268310547,17.37652587890625,2,105886.4661055,4,1,1582558796.63818,1582558685.643339,11,0.6387488,0,0,10.91,0,0,1582558765.788069,105885.978365,0,-0.1056976,99.36552
1582558798.55598,79,0,1582558797.102774,41.20702650638557,29.07401674035576,170.2858,0.1072373,82.19175073588718,3,6.000906205260658,-9999,105888.38668425,0.9843597412109375,0.0605010986328125,-0.08160400390625,105888.38064225,-2.557027332998934,1.479355410963655,-0.05272308656967523,-0.003486055647954345,0.1679146885871887,0.07320535182952881,-0.02296245098114014,0.01025320589542389,0.003742814064025879,2,0.6396279974248906,0.2127973178467208,-0.7122307300339471,0.1957566859637728,0.9944384098052979,0.05269866436719894,-0.09118665009737015,29.28571319580078,-15.69277572631836,17.36276245117188,2,105886.4661055,4,1,1582558796.63818,1582558685.643339,11,0.6387488,0,0,10.91,0,0,1582558765.788069,105885.978365,0,-0.1056976,99.36552
1582558798.565738,80,0,1582558797.102774,41.20702650638557,29.07401674035576,170.2858,0.1072373,82.19175073588718,3,6.000906205260658,-9999,105888.39672525,0.993682861328125,0.057861328125,-0.0771026611328125,105888.39068225,-2.556956262941895,1.480870232360304,-0.05206368511159969,-0.001400236506015062,0.1512442827224731,0.06781842559576035,-0.007829368114471436,0.007753193378448486,0.0092124342918396,2,0.640235376562209,0.2127369996411791,-0.7116812187340391,0.1958355443201364,0.9946098923683167,0.05204016715288162,-0.08968326449394226,29.28571319580078,-15.69277572631836,17.36276245117188,2,105886.4661055,4,1,1582558796.63818,1582558685.643339,11,0.6387488,0,0,10.91,0,0,1582558765.788069,105885.978365,0,-0.1056976,99.36552
1582558798.575593,81,0,1582558797.102774,41.20702650638557,29.07401674035576,170.2858,0.1072373,82.19175073588718,3,6.000906205260658,-9999,105888.40676525,1.000686645507812,0.0568389892578125,-0.0706787109375,105888.40072325,-2.556322355391076,1.482123570925161,-0.05153058027356482,2.402201062068343e-05,0.1243255659937859,0.05344215035438538,0.0003020167350769043,0.006179943680763245,0.01254600286483765,2,0.640674911524612,0.2128758565888315,-0.7111707870734312,0.196101329129899,0.9947490096092224,0.05150777846574783,-0.08843905478715897,29.24826812744141,-15.86210250854492,17.39739990234375,2,105886.4661055,4,1,1582558796.63818,1582558685.643339,11,0.6387488,0,0,10.91,0,0,1582558765.788069,105885.978365,0,-0.1056976,99.36552
1582558798.588028,82,0,1582558797.102774,41.20702650638557,29.07401674035576,170.2858,0.1072373,82.19175073588718,3,6.000906205260658,-9999,105888.41680525,0.9964599609375,0.0546112060546875,-0.0709228515625,105888.41076325,-2.556306669933466,1.483077397421163,-0.051081960951383,0.003296829527243972,0.09452095627784729,0.04601044580340385,0.005978226661682129,0.005239441990852356,0.01748895645141602,2,0.6410637595950559,0.2128171753622071,-0.7108239906032943,0.1961515959743596,0.9948558807373047,0.05105974897742271,-0.0874922126531601,29.24826812744141,-15.86210250854492,17.39739990234375,2,105886.4661055,4,1,1582558796.63818,1582558685.643339,11,0.6387488,0,0,10.91,0,0,1582558765.788069,105885.978365,0,-0.1056976,99.36552
1582558798.605922,83,0,1582558797.102774,41.20702650638557,29.07401674035576,170.2858,0.1072373,82.19175073588718,3,6.000906205260658,-9999,105888.42684625,0.9839935302734375,0.0520782470703125,-0.0794677734375,105888.42080325,-2.555714111089586,1.483876195342493,-0.05075042639950882,0.003492838237434626,0.0789763480424881,0.03386004269123077,-0.001020610332489014,0.003480121493339539,0.01439130306243896,2,0.6413225143652946,0.2129693733784778,-0.7104803916676447,0.1963851870863906,0.9949421882629395,0.05072864517569542,-0.08669895678758621,29.30670928955078,-15.81071853637695,17.25247192382812,2,105886.4661055,4,1,1582558796.63818,1582558685.643339,11,0.6387488,0,0,10.91,0,0,1582558765.788069,105885.978365,0,-0.1056976,99.36552
1582558798.606803,84,0,1582558797.102774,41.20702650638557,29.07401674035576,170.2858,0.1072373,82.19175073588718,3,6.000906205260658,-9999,105888.43688625,0.9794158935546875,0.0502777099609375,-0.082305908203125,105888.43084325,-2.555745237258528,1.484707871582311,-0.0505374489476004,0.006424445658922195,0.08406512439250946,0.02192215621471405,-0.01282203197479248,0.001022592186927795,0.004989027976989746,2,0.6416456175010669,0.212966453343044,-0.7101978058022965,0.1963550202570416,0.9950246810913086,0.05051593855023384,-0.08587238192558289,29.30670928955078,-15.81071853637695,17.25247192382812,2,105886.4661055,4,1,1582558796.63818,1582558685.643339,11,0.6387488,0,0,10.91,0,0,1582558765.788069,105885.978365,0,-0.1056976,99.36552
1582558798.615703,85,0,1582558797.102774,41.20702650638557,29.07401674035576,170.2858,0.1072373,82.19175073588718,3,6.000906205260658,-9999,105888.44692625,0.9726104736328125,0.051361083984375,-0.0831756591796875,105888.44088425,-2.555182028598591,1.485610340062915,-0.05039987437922426,0.001725031994283199,0.09105750918388367,0.01456517353653908,-0.01632416248321533,-0.0002133548259735107,0.002656817436218262,2,0.6419217735294475,0.2131876256583321,-0.7098405766875464,0.1965036276836599,0.9951085448265076,0.05037853866815567,-0.08497494459152222,29.13715362548828,-15.65511322021484,17.6134033203125,2,105886.4661055,4,1,1582558796.63818,1582558685.643339,11,0.6387488,0,0,10.91,0,0,1582558765.788069,105885.978365,0,-0.1056976,99.36552
1582558798.625798,86,0,1582558797.102774,41.20702650638557,29.07401674035576,170.2858,0.1072373,82.19175073588718,3,6.000906205260658,-9999,105888.45696625,0.9587554931640625,0.05694580078125,-0.0875396728515625,105888.45092425,-2.555169879171767,1.486705610991753,-0.05024388337892328,0.001598118105903268,0.1120937168598175,0.01579722575843334,-0.02564060688018799,0.001987189054489136,-0.0002175569534301758,2,0.6423269690271749,0.2132445560281912,-0.7094739311230734,0.1964421336098709,0.9952089190483093,0.05022274702787399,-0.08388564735651016,29.13715362548828,-15.65511322021484,17.6134033203125,2,105886.4661055,4,1,1582558796.63818,1582558685.643339,11,0.6387488,0,0,10.91,0,0,1582558765.788069,105885.978365,0,-0.1056976,99.36552
1582558798.636117,87,0,1582558797.102774,41.20702650638557,29.07401674035576,170.2858,0.1072373,82.19175073588718,3,6.000906205260658,-9999,105888.46700725,0.95721435546875,0.059906005859375,-0.0883331298828125,105888.46096425,-2.554540145040903,1.488072991907495,-0.04997419249370872,-0.003192376112565398,0.13637775182724,0.02921183407306671,-0.03795963525772095,0.007780253887176514,-0.005575239658355713,2,0.6427755414614341,0.2134869369462837,-0.7089487767806892,0.1966076766380848,0.9953362345695496,0.049953393638134,-0.08252586424350739,29.26078033447266,-15.89483261108398,17.53448486328125,2,105886.4661055,4,1,1582558796.63818,1582558685.643339,11,0.6387488,0,0,10.91,0,0,1582558765.788069,105885.978365,0,-0.1056976,99.36552
1582558798.646361,88,0,1582558797.102774,41.20702650638557,29.07401674035576,170.2858,0.1072373,82.19175073588718,3,6.000906205260658,-9999,105888.47704725,0.95904541015625,0.062042236328125,-0.086639404296875,105888.47100525,-2.554474216577067,1.489769827960625,-0.04956486756140947,-0.003990111872553825,0.1680843830108643,0.04236804321408272,-0.03811860084533691,0.01084414124488831,-0.007476508617401123,2,0.643416583021126,0.2135318875136167,-0.7083601338325919,0.1965836625853074,0.995495080947876,0.04954457655549049,-0.08083846420049667,29.26078033447266,-15.89483261108398,17.53448486328125,2,105886.4661055,4,1,1582558796.63818,1582558685.643339,11,0.6387488,0,0,10.91,0,0,1582558765.788069,105885.978365,0,-0.1056976,99.36552
1582558798.663045,89,0,1582558797.102774,41.20702650638557,29.07401674035576,170.2858,0.1072373,82.19175073588718,3,6.000906205260658,-9999,105888.48708725,0.9656982421875,0.0600738525390625,-0.079803466796875,105888.48107525,-2.553829152438685,1.491740978689584,-0.04901381061214494,-0.0006427846383303404,0.1965367943048477,0.05560901388525963,-0.03586196899414062,0.01313407719135284,-0.007163703441619873,2,0.644108454333338,0.2137409744988901,-0.7076129498055825,0.1967817476973058,0.9956796169281006,0.04899418726563454,-0.07887818664312363,29.04222869873047,-16.19597625732422,17.617431640625,2,105886.4661055,4,1,1582558796.63818,1582558685.643339,11,0.6387488,0,0,10.91,0,0,1582558765.788069,105885.978365,0,-0.1056976,99.36552
1582558798.666597,90,0,1582558797.102774,41.20702650638557,29.07401674035576,170.2858,0.1072373,82.19175073588718,3,6.000906205260658,-9999,105888.49712825,0.9778289794921875,0.053802490234375,-0.0747222900390625,105888.49111625,-2.553773443589196,1.493827818180037,-0.04840768112067012,-0.001773501979187131,0.2081653326749802,0.06143748760223389,-0.02816534042358398,0.01045888662338257,-0.002007246017456055,2,0.6449096854740612,0.2137528124854548,-0.7068805691818945,0.1967768879409345,0.9958714842796326,0.0483887791633606,-0.07680246233940125,29.04222869873047,-16.19597625732422,17.617431640625,2,105886.4661055,4,1,1582558796.63818,1582558685.643339,11,0.6387488,0,0,10.91,0,0,1582558765.788069,105885.978365,0,-0.1056976,99.36552
1582558798.675986,91,0,1582558797.102774,41.20702650638557,29.07401674035576,170.2858,0.1072373,82.19175073588718,3,6.000906205260658,-9999,105888.50716825,0.9904022216796875,0.049346923828125,-0.0623016357421875,105888.50115625,-2.553131524969143,1.49582619360796,-0.04784938726520152,-0.001670437632128596,0.1988147050142288,0.05577400699257851,-0.01516014337539673,0.005325078964233398,0.002229630947113037,2,0.6456106783000668,0.2139620419750828,-0.7061223159887182,0.1969728998121242,0.9960496425628662,0.04783112928271294,-0.07481419295072556,28.96094512939453,-15.86006927490234,17.7294921875,2,105886.4661055,4,1,1582558796.63818,1582558685.643339,11,0.6387488,0,0,10.91,0,0,1582558765.788069,105885.978365,0,-0.1056976,99.36552
1582558798.686103,92,0,1582558797.102774,41.20702650638557,29.07401674035576,170.2858,0.1072373,82.19175073588718,3,6.000906205260658,-9999,105888.51720825,0.9922027587890625,0.0458984375,-0.0564422607421875,105888.51119625,-2.553019436204709,1.497535545282709,-0.04738938851666277,-0.008429773151874542,0.1707704961299896,0.04592012614011765,-0.0048103928565979,0.0008102506399154663,0.01264375448226929,2,0.6462543687938114,0.2140064171739927,-0.7055176781366285,0.1969804618533889,0.9961979389190674,0.04737165197730064,-0.0731130912899971,28.96094512939453,-15.86006927490234,17.7294921875,2,105886.4661055,4,1,1582558796.63818,1582558685.643339,11,0.6387488,0,0,10.91,0,0,1582558765.788069,105885.978365,0,-0.1056976,99.36552
1582558798.696068,93,0,1582558797.102774,41.20702650638557,29.07401674035576,170.2858,0.1072373,82.19175073588718,3,6.000906205260658,-9999,105888.52724825,0.985748291015625,0.04254150390625,-0.060089111328125,105888.52123625,-2.552291629517126,1.499000811485411,-0.04705652377220972,-0.01113900635391474,0.1449165344238281,0.0335494764149189,-0.004748821258544922,-0.001802161335945129,0.0149693489074707,2,0.6467310377985134,0.2142702553350377,-0.7049422057559285,0.1971894950023345,0.9963197112083435,0.04703915864229202,-0.07165444642305374,28.77413177490234,-16.12313842773438,17.71868896484375,2,105886.4661055,4,1,1582558796.63818,1582558685.643339,11,0.6387488,0,0,10.91,0,0,1582558765.788069,105885.978365,0,-0.1056976,99.36552
1582558798.724082,94,0,1582558797.102774,41.20702650638557,29.07401674035576,170.2858,0.1072373,82.19175073588718,3,6.000906205260658,-9999,105888.53728925,0.984039306640625,0.0443267822265625,-0.06048583984375,105888.53127725,-2.55215039551273,1.500360227187771,-0.04684960581891766,-0.01134330965578556,0.1360370814800262,0.0214357040822506,-0.01216369867324829,-0.004235178232192993,0.009251713752746582,2,0.6472184638082376,0.21437801881527,-0.7044697591767902,0.1971615516249232,0.9964258670806885,0.04683246836066246,-0.07030065357685089,28.77413177490234,-16.12313842773438,17.71868896484375,2,105886.4661055,4,1,1582558796.63818,1582558685.643339,11,0.6387488,0,0,10.91,0,0,1582558765.788069,105885.978365,0,-0.1056976,99.36552
1582558798.724881,95,0,1582558797.102774,41.20702650638557,29.07401674035576,170.2858,0.1072373,82.19175073588718,3,6.000906205260658,-9999,105888.54732925,0.9912109375,0.0448150634765625,-0.0570526123046875,105888.54131725,-2.551417250644256,1.501585595098175,-0.04675536305006146,-0.01542034279555082,0.1236395388841629,0.01169439405202866,-0.01130741834640503,-0.001775965094566345,0.009007632732391357,2,0.6475820152876052,0.2147034537854557,-0.7039922989926285,0.1973192739721968,0.9965157508850098,0.04673833027482033,-0.0690799206495285,28.92426300048828,-15.84273529052734,17.85623168945312,2,105886.4661055,4,1,1582558796.63818,1582558685.643339,11,0.6387488,0,0,10.91,0,0,1582558765.788069,105885.978365,0,-0.1056976,99.36552
1582558798.726212,96,0,1582558797.102774,41.20702650638557,29.07401674035576,170.2858,0.1072373,82.19175073588718,3,6.000906205260658,-9999,105888.55736925,1.001739501953125,0.0406494140625,-0.0509185791015625,105888.55135725,-2.551255364434676,1.502589014188852,-0.04684097349751581,-0.01452916115522385,0.1036444678902626,-0.007039532996714115,-0.003605484962463379,-0.002838045358657837,0.01194411516189575,2,0.647907986471529,0.2148846048765955,-0.7036591924708461,0.197240359608283,0.9965806603431702,0.04682384803891182,-0.06807969510555267,28.92426300048828,-15.84273529052734,17.85623168945312,2,105886.4661055,4,1,1582558796.63818,1582558685.643339,11,0.6387488,0,0,10.91,0,0,1582558765.788069,105885.978365,0,-0.1056976,99.36552
1582558798.736305,97,0,1582558797.102774,41.20702650638557,29.07401674035576,170.2858,0.1072373,82.19175073588718,3,6.000906205260658,-9999,105888.56741025,1.00091552734375,0.0430145263671875,-0.0454254150390625,105888.56139825,-2.550537352445768,1.503193316183088,-0.04714307451076069,-0.01762907952070236,0.05960750579833984,-0.02705691754817963,0.006651937961578369,-0.006374701857566833,0.01811540126800537,2,0.6480089189572764,0.2152816761906023,-0.7034200441102991,0.1973285171948871,0.9966073632240295,0.04712561517953873,-0.06747648119926453,28.86246490478516,-15.86903762817383,17.95755004882812,2,105886.4661055,4,1,1582558796.63818,1582558685.643339,11,0.6387488,0,0,10.91,0,0,1582558765.788069,105885.978365,0,-0.1056976,99.36552
1582558798.746226,98,0,1582558797.102774,41.20702650638557,29.07401674035576,170.2858,0.1072373,82.19175073588718,3,6.000906205260658,-9999,105888.57745025,0.98370361328125,0.0441131591796875,-0.053619384765625,105888.57143825,-2.550408512450717,1.503519466100117,-0.04764009187354171,-0.01548144873231649,0.03107228502631187,-0.0499289445579052,0.001633286476135254,-0.004384011030197144,0.02088630199432373,2,0.6480530313237842,0.2155280519881738,-0.7033469886759086,0.1971751746370224,0.9966058731079102,0.04762207344174385,-0.06714985519647598,28.86246490478516,-15.86903762817383,17.95755004882812,2,105886.4661055,4,1,1582558796.63818,1582558685.643339,11,0.6387488,0,0,10.91,0,0,1582558765.788069,105885.978365,0,-0.1056976,99.36552
1582558798.756332,99,0,1582558797.102774,41.20702650638557,29.07401674035576,170.2858,0.1072373,82.19175073588718,3,6.000906205260658,-9999,105888.58749025,0.9596710205078125,0.0555877685546875,-0.0655059814453125,105888.58147825,-2.549646902804311,1.503823247745712,-0.04808648275150158,-0.02242484129965305,0.02834280952811241,-0.04362018033862114,-0.01798874139785767,-0.002525925636291504,0.01038897037506104,2,0.6480267068619153,0.2159596119321244,-0.7032140915071237,0.197263267717784,0.9966048002243042,0.04806795343756676,-0.06684566289186478,28.75945281982422,-15.97129440307617,17.88888549804688,2,105886.4661055,4,1,1582558796.63818,1582558685.643339,11,0.6387488,0,0,10.91,0,0,1582558765.788069,105885.978365,0,-0.1056976,99.36552
1582558798.781137,100,0,1582558797.102774,41.20702650638557,29.07401674035576,170.2858,0.1072373,82.19175073588718,3,6.000906205260658,-9999,105888.59753025,0.9428863525390625,0.0642547607421875,-0.076263427734375,105888.59151825,-2.549411081675395,1.504388820783555,-0.04832329211556659,-0.02419416420161724,0.05184731632471085,-0.02335064113140106,-0.04090338945388794,0.009902298450469971,-0.001085638999938965,2,0.6481729786570045,0.2161739254335929,-0.7030291749277011,0.1972071298327701,0.9966310858726501,0.0483044870197773,-0.06628124415874481,28.75945281982422,-15.97129440307617,17.88888549804688,2,105886.4661055,4,1,1582558796.63818,1582558685.643339,11,0.6387488,0,0,10.91,0,0,1582558765.788069,105885.978365,0,-0.1056976,99.36552
1582558798.786881,101,0,1582558797.102774,41.20702650638557,29.07401674035576,170.2858,0.1072373,82.19175073588718,3,6.000906205260658,-9999,105888.60757125,0.936614990234375,0.06732177734375,-0.0806121826171875,105888.60155925,-2.548534420124799,1.505513288038151,-0.04821987536659803,-0.033064354211092,0.1131732538342476,0.01388860493898392,-0.05654627084732056,0.01707042753696442,-0.01387929916381836,2,0.6484851245236593,0.21653318544797,-0.7025686620209507,0.1974275584765868,0.9967098832130432,0.04820119217038155,-0.0651608482003212,28.71756744384766,-15.96903610229492,18.15826416015625,2,105886.4661055,4,1,1582558796.63818,1582558685.643339,11,0.6387488,0,0,10.91,0,0,1582558765.788069,105885.978365,0,-0.1056976,99.36552
1582558798.787728,102,0,1582558797.102774,41.20702650638557,29.07401674035576,170.2858,0.1072373,82.19175073588718,3,6.000906205260658,-9999,105888.61761125,0.9451141357421875,0.06243896484375,-0.0719451904296875,105888.61159925,-2.548205026909969,1.507115427984084,-0.04789434919932219,-0.03080827370285988,0.1580250859260559,0.03628617152571678,-0.06003725528717041,0.01939453184604645,-0.01570415496826172,2,0.6490492563790591,0.2166855109621591,-0.7019867902119785,0.197477070800686,0.9968288540840149,0.04787604138255119,-0.06356490403413773,28.71756744384766,-15.96903610229492,18.15826416015625,2,105886.4661055,4,1,1582558796.63818,1582558685.643339,11,0.6387488,0,0,10.91,0,0,1582558765.788069,105885.978365,0,-0.1056976,99.36552
1582558798.796487,103,0,1582558797.102774,41.20702650638557,29.07401674035576,170.2858,0.1072373,82.19175073588718,3,6.000906205260658,-9999,105888.62768225,0.9634857177734375,0.0511322021484375,-0.0649871826171875,105888.62163925,-2.547392038839813,1.509146943823566,-0.0476383266729427,-0.02478420361876488,0.2035070806741714,0.02842478454113007,-0.04870200157165527,0.01253966987133026,-0.009092628955841064,2,0.6497030724457371,0.2170615080724054,-0.7012232137358361,0.1976262982238181,0.9969678521156311,0.04762031137943268,-0.06154043972492218,28.80995941162109,-15.87386703491211,18.10906982421875,2,105886.4661055,4,1,1582558796.63818,1582558685.643339,11,0.6387488,0,0,10.91,0,0,1582558765.788069,105885.978365,0,-0.1056976,99.36552
1582558798.806595,104,0,1582558797.102774,41.20702650638557,29.07401674035576,170.2858,0.1072373,82.19175073588718,3,6.000906205260658,-9999,105888.63772225,0.9946746826171875,0.042938232421875,-0.04248046875,105888.63168025,-2.547227710256553,1.511223468203973,-0.04767404272591711,-0.01777063868939877,0.2101335674524307,0.0004094061441719532,-0.02869993448257446,0.00179232656955719,-0.002633929252624512,2,0.6504088272672511,0.2173323828805245,-0.7005354221154556,0.1974466432932895,0.9970919489860535,0.04765598475933075,-0.05946998670697212,28.80995941162109,-15.87386703491211,18.10906982421875,2,105886.4661055,4,1,1582558796.63818,1582558685.643339,11,0.6387488,0,0,10.91,0,0,1582558765.788069,105885.978365,0,-0.1056976,99.36552
1582558798.816548,105,0,1582558797.102774,41.20702650638557,29.07401674035576,170.2858,0.1072373,82.19175073588718,3,6.000906205260658,-9999,105888.64776225,1.020965576171875,0.029571533203125,-0.0333099365234375,105888.64172025,-2.546619816622272,1.512884381111441,-0.04822576578282937,-0.006870320066809654,0.1637242585420609,-0.05612897127866745,0.004721999168395996,-0.007883578538894653,0.01971018314361572,2,0.6508610992038423,0.2178845662287135,-0.6999859357211481,0.1972964658716463,0.997162938117981,0.04820707440376282,-0.05781229212880135,28.67917633056641,-16.05827331542969,18.14404296875,2,105886.4661055,4,1,1582558796.63818,1582558685.643339,11,0.6387488,0,0,10.91,0,0,1582558765.788069,105885.978365,0,-0.1056976,99.36552
1582558798.84269,106,0,1582558797.102774,41.20702650638557,29.07401674035576,170.2858,0.1072373,82.19175073588718,3,6.000906205260658,-9999,105888.65780325,1.002655029296875,0.040130615234375,-0.042083740234375,105888.65176025,-2.546032915522969,1.51421828810892,-0.04918179092599192,-0.008589906617999077,0.12981316447258,-0.09657631814479828,0.02277398109436035,-0.02006907761096954,0.02181053161621094,2,0.6511542568407493,0.2185369313348074,-0.6995820321455769,0.1970401423640136,0.9971927404403687,0.04916196689009666,-0.05647948756814003,28.43021392822266,-15.87599182128906,18.08892822265625,2,105886.4661055,4,1,1582558796.63818,1582558685.643339,11,0.6387488,0,0,10.91,0,0,1582558765.788069,105885.978365,0,-0.1056976,99.36552
1582558798.843505,107,0,1582558797.102774,41.20702650638557,29.07401674035576,170.2858,0.1072373,82.19175073588718,3,6.000906205260658,-9999,105888.66784325,0.9810333251953125,0.048980712890625,-0.0562896728515625,105888.66180025,-2.546073473176849,1.515583306902975,-0.05034728489694223,-0.002379681449383497,0.1323048174381256,-0.1160877048969269,5.066394805908203e-05,-0.006539031863212585,0.01100081205368042,2,0.651502342420375,0.219059750326274,-0.6992488323345331,0.1964908761279928,0.9972109794616699,0.05032601580023766,-0.05511504784226418,28.43021392822266,-15.87599182128906,18.08892822265625,2,105886.4661055,4,1,1582558796.63818,1582558685.643339,11,0.6387488,0,0,10.91,0,0,1582558765.788069,105885.978365,0,-0.1056976,99.36552
1582558798.84667,108,0,1582558797.102774,41.20702650638557,29.07401674035576,170.2858,0.1072373,82.19175073588718,3,6.000906205260658,-9999,105888.67788325,0.967376708984375,0.047821044921875,-0.0679168701171875,105888.67184125,-2.545612643178274,1.517454122673795,-0.05173398599763625,0.003624683944508433,0.1866783797740936,-0.1390596628189087,-0.01981663703918457,-0.003682136535644531,-0.00686037540435791,2,0.6519462969164032,0.2198709583464328,-0.6987215149092753,0.1959871749991495,0.9972415566444397,0.05171091109514236,-0.05324557423591614,28.32280731201172,-16.15512466430664,18.12936401367188,2,105886.4661055,4,1,1582558796.63818,1582558685.643339,11,0.6387488,0,0,10.91,0,0,1582558765.788069,105885.978365,0,-0.1056976,99.36552
1582558798.856766,109,0,1582558797.102774,41.20702650638557,29.07401674035576,170.2858,0.1072373,82.19175073588718,3,6.000906205260658,-9999,105888.68792425,0.9648284912109375,0.05841064453125,-0.0614013671875,105888.68188125,-2.54577499467683,1.519908511432278,-0.05324918347655676,0.01031614188104868,0.247365415096283,-0.1508721113204956,-0.03150731325149536,-0.002937078475952148,-0.01663655042648315,2,0.6526469057541711,0.2205790952732137,-0.6980762108888936,0.1951576060722018,0.9972899556159973,0.05322402343153954,-0.05079375952482224,28.32280731201172,-16.15512466430664,18.12936401367188,2,105886.4661055,4,1,1582558796.63818,1582558685.643339,11,0.6387488,0,0,10.91,0,0,1582558765.788069,105885.978365,0,-0.1056976,99.36552
1582558798.869232,110,0,1582558797.102774,41.20702650638557,29.07401674035576,170.2858,0.1072373,82.19175073588718,3,6.000906205260658,-9999,105888.69796425,0.969329833984375,0.0522613525390625,-0.0568084716796875,105888.69192125,-2.545379292598534,1.522820242877876,-0.05485544264819509,0.01007250044494867,0.2948448657989502,-0.1605034619569778,-0.03205275535583496,0.00298134982585907,-0.01290774345397949,2,0.6534338122715982,0.221543409397768,-0.6972343702115154,0.1944400630870887,0.9973468780517578,0.05482793599367142,-0.04788554087281227,28.29096221923828,-16.02163314819336,18.40106201171875,2,105886.4661055,4,1,1582558796.63818,1582558685.643339,11,0.6387488,0,0,10.91,0,0,1582558765.788069,105885.978365,0,-0.1056976,99.36552
1582558798.876839,111,0,1582558797.102774,41.20702650638557,29.07401674035576,170.2858,0.1072373,82.19175073588718,3,6.000906205260658,-9999,105888.70800425,0.9722747802734375,0.05645751953125,-0.0521697998046875,105888.70196225,-2.545512365429756,1.52606383928501,-0.05646684839750123,0.00677311047911644,0.3260736167430878,-0.1607455462217331,-0.02698618173599243,-0.004776999354362488,-0.01112723350524902,2,0.6543927521631665,0.2223667693322059,-0.6963345276906533,0.193497308800382,0.9974072575569153,0.05643684417009354,-0.04464629292488098,28.29096221923828,-16.02163314819336,18.40106201171875,2,105886.4661055,4,1,1582558796.63818,1582558685.643339,11,0.6387488,0,0,10.91,0,0,1582558765.788069,105885.978365,0,-0.1056976,99.36552
1582558798.888625,112,0,1582558797.102774,41.20702650638557,29.07401674035576,170.2858,0.1072373,82.19175073588718,3,6.000906205260658,-9999,105888.71804425,0.96380615234375,0.0780792236328125,-0.0448760986328125,105888.71200225,-2.544954886671801,1.529505877370471,-0.05784837550792358,-0.005625455640256405,0.3440643548965454,-0.1415181159973145,-0.02534604072570801,0.001396670937538147,-0.009482681751251221,2,0.6553685703905197,0.2233544279701144,-0.6952804795040746,0.1928470805371437,0.9974764585494995,0.05781611800193787,-0.04120967164635658,28.26041412353516,-15.64650344848633,18.38800048828125,2,105886.4661055,4,1,1582558796.63818,1582558685.643339,11,0.6387488,0,0,10.91,0,0,1582558765.788069,105885.978365,0,-0.1056976,99.36552
1582558798.907025,113,0,1582558797.102774,41.20702650638557,29.07401674035576,170.2858,0.1072373,82.19175073588718,3,6.000906205260658,-9999,105888.72808525,0.94964599609375,0.0954437255859375,-0.034271240234375,105888.72204225,-2.544765519232832,1.533034601431503,-0.05859235588102112,-0.02350698411464691,0.3593508899211884,-0.07413055002689362,-0.03848826885223389,0.02480849623680115,-0.007328569889068604,2,0.6564871702873105,0.2240102915067806,-0.6941732203009984,0.1922696024245907,0.9975723624229431,0.05855883657932281,-0.03768796846270561,28.26041412353516,-15.64650344848633,18.38800048828125,2,105886.4661055,4,1,1582558796.63818,1582558685.643339,11,0.6387488,0,0,10.91,0,0,1582558765.788069,105885.978365,0,-0.1056976,99.36552
1582558798.908045,114,0,1582558797.102774,41.20702650638557,29.07401674035576,170.2858,0.1072373,82.19175073588718,3,6.000906205260658,-9999,105888.73812525,0.9601898193359375,0.0928192138671875,-0.0076751708984375,105888.73211325,-2.543909059294543,1.535974867256613,-0.0586352307724925,-0.02963847666978836,0.2838356494903564,-0.003674805629998446,-0.04667967557907104,0.03762885928153992,0.007635951042175293,2,0.657405929368488,0.2245888418664155,-0.6931289892761487,0.1922225104477505,0.9976762533187866,0.05860163643956184,-0.03475459292531013,28.08515167236328,-15.79994201660156,18.57174682617188,2,105886.4661055,4,1,1582558796.63818,1582558685.643339,11,0.6387488,0,0,10.91,0,0,1582558765.788069,105885.978365,0,-0.1056976,99.36552
1582558798.919822,115,0,1582558797.102774,41.20702650638557,29.07401674035576,170.2858,0.1072373,82.19175073588718,3,6.000906205260658,-9999,105888.74816525,0.961517333984375,0.08538818359375,-0.0100860595703125,105888.74215325,-2.543563497827042,1.538301189507766,-0.05812841042348808,-0.03344679623842239,0.2345812767744064,0.05175170302391052,-0.03708279132843018,0.03300788998603821,0.02426719665527344,2,0.6582313744946109,0.2247536072718925,-0.6922839069908676,0.1922507340806388,0.9977840781211853,0.05809568241238594,-0.03243454545736313,28.08515167236328,-15.79994201660156,18.57174682617188,2,105886.4661055,4,1,1582558796.63818,1582558685.643339,11,0.6387488,0,0,10.91,0,0,1582558765.788069,105885.978365,0,-0.1056976,99.36552
1582558798.926999,116,0,1582558797.102774,41.20702650638557,29.07401674035576,170.2858,0.1072373,82.19175073588718,3,6.000906205260658,-9999,105888.75820525,0.9748687744140625,0.083221435546875,-0.0017242431640625,105888.75219425,-2.542653680265464,1.539901293847332,-0.05716505724593068,-0.032852903008461,0.1572922021150589,0.09750873595476151,-0.03421342372894287,0.02746954560279846,0.02245843410491943,2,0.6587938642832609,0.224879555599355,-0.691580212787123,0.1927086663003735,0.9978900551795959,0.05713392794132233,-0.03083965927362442,28.26938629150391,-15.69121551513672,18.71636962890625,2,105886.4661055,4,1,1582558796.63818,1582558685.643339,11,0.6387488,0,0,10.91,0,0,1582558765.788069,105885.978365,0,-0.1056976,99.36552
1582558798.937213,117,0,1582558797.102774,41.20702650638557,29.07401674035576,170.2858,0.1072373,82.19175073588718,3,6.000906205260658,-9999,105888.76824625,0.964935302734375,0.0723114013671875,-0.019256591796875,105888.76223425,-2.542308144717429,1.541099907899252,-0.0558742877170143,-0.03063821792602539,0.1159671247005463,0.1317559331655502,-0.02287852764129639,0.02648480236530304,0.02657449245452881,2,0.6593180969508118,0.224670394880972,-0.6910319286075868,0.1931265152077784,0.9979993104934692,0.0558452196419239,-0.02964572049677372,28.26938629150391,-15.69121551513672,18.71636962890625,2,105886.4661055,4,1,1582558796.63818,1582558685.643339,11,0.6387488,0,0,10.91,0,0,1582558765.788069,105885.978365,0,-0.1056976,99.36552
1582558798.963988,118,0,1582558797.102774,41.20702650638557,29.07401674035576,170.2858,0.1072373,82.19175073588718,3,6.000906205260658,-9999,105888.77828625,0.976776123046875,0.0595550537109375,-0.0235137939453125,105888.77227425,-2.541397162674529,1.542237291099714,-0.05444988757998086,-0.03365688771009445,0.1125766038894653,0.1436933279037476,-0.03489196300506592,0.01382336020469666,0.005604982376098633,2,0.6597725275983544,0.2245969596400167,-0.690435618960478,0.1937914090407194,0.998110830783844,0.05442298576235771,-0.02851283550262451,28.20342254638672,-15.76088333129883,18.7003173828125,2,105886.4661055,4,1,1582558796.63818,1582558685.643339,11,0.6387488,0,0,10.91,0,0,1582558765.788069,105885.978365,0,-0.1056976,99.36552
1582558798.965022,119,0,1582558797.102774,41.20702650638557,29.07401674035576,170.2858,0.1072373,82.19175073588718,3,6.000906205260658,-9999,105888.78832625,0.998443603515625,0.057769775390625,-0.0183563232421875,105888.78231425,-2.541054602458025,1.543351423094391,-0.05298635781543409,-0.02895906753838062,0.1118375808000565,0.1468848586082458,-0.01528745889663696,0.006465375423431396,0.005639076232910156,2,0.6602867191117716,0.2243211455669669,-0.6898973182478114,0.1942758641527071,0.9982204437255859,0.0529615692794323,-0.02740294486284256,28.20342254638672,-15.76088333129883,18.7003173828125,2,105886.4661055,4,1,1582558796.63818,1582558685.643339,11,0.6387488,0,0,10.91,0,0,1582558765.788069,105885.978365,0,-0.1056976,99.36552
1582558798.96989,120,0,1582558797.102774,41.20702650638557,29.07401674035576,170.2858,0.1072373,82.19175073588718,3,6.000906205260658,-9999,105888.79836725,0.980377197265625,0.0555572509765625,-0.0265045166015625,105888.79235525,-2.540146564939625,1.544575141584159,-0.05155381869029367,-0.03184382990002632,0.1225211620330811,0.1424903273582458,-0.001784324645996094,0.005042716860771179,0.006021559238433838,2,0.6607711351934621,0.2242539445601122,-0.6892698999213683,0.1949328511741957,0.9983282089233398,0.05153098329901695,-0.02618335001170635,28.07387542724609,-15.98580932617188,18.89471435546875,2,105886.4661055,4,1,1582558796.63818,1582558685.643339,11,0.6387488,0,0,10.91,0,0,1582558765.788069,105885.978365,0,-0.1056976,99.36552
1582558798.977211,121,0,1582558797.102774,41.20702650638557,29.07401674035576,170.2858,0.1072373,82.19175073588718,3,6.000906205260658,-9999,105888.80840725,0.9754486083984375,0.055450439453125,-0.024932861328125,105888.80239525,-2.53975259579573,1.545960353639659,-0.05005247497074091,-0.03499887511134148,0.1379605829715729,0.1528833210468292,-0.02042019367218018,0.005764082074165344,-0.001692235469818115,2,0.6613761040434342,0.224010021787769,-0.6886313045286533,0.1954175898475591,0.9984395503997803,0.05003158003091812,-0.02480231784284115,28.07387542724609,-15.98580932617188,18.89471435546875,2,105886.4661055,4,1,1582558796.63818,1582558685.643339,11,0.6387488,0,0,10.91,0,0,1582558765.788069,105885.978365,0,-0.1056976,99.36552
1582558798.987289,122,0,1582558797.102774,41.20702650638557,29.07401674035576,170.2858,0.1072373,82.19175073588718,3,6.000906205260658,-9999,105888.81844725,0.9725799560546875,0.0547943115234375,-0.0258941650390625,105888.81243525,-2.538758965104579,1.547554921937796,-0.04838937008939628,-0.04442007467150688,0.1577151119709015,0.1734913885593414,-0.02513301372528076,0.006845548748970032,-0.002351582050323486,2,0.6620036514902903,0.2239310385783562,-0.687848256729364,0.1961399006980207,0.9985597133636475,0.04837048798799515,-0.02321211062371731,27.93466949462891,-15.92282867431641,18.99093627929688,2,105886.4661055,4,1,1582558796.63818,1582558685.643339,11,0.6387488,0,0,10.91,0,0,1582558765.788069,105885.978365,0,-0.1056976,99.36552
1582558798.997771,123,0,1582558797.102774,41.20702650638557,29.07401674035576,170.2858,0.1072373,82.19175073588718,3,6.000906205260658,-9999,105888.82848725,0.987762451171875,0.04693603515625,-0.0120086669921875,105888.82247625,-2.538280668454945,1.549245668278766,-0.04670439058264945,-0.04435748979449272,0.1670891642570496,0.1716341078281403,-0.02268743515014648,0.007094487547874451,-0.002436280250549316,2,0.6627235039001976,0.2236846230468028,-0.6870801505340849,0.1966816586130434,0.998677670955658,0.04668741300702095,-0.02152549289166927,27.93466949462891,-15.92282867431641,18.99093627929688,2,105886.4661055,4,1,1582558796.63818,1582558685.643339,11,0.6387488,0,0,10.91,0,0,1582558765.788069,105885.978365,0,-0.1056976,99.36552
1582558799.023007,124,0,1582558797.102774,41.20702650638557,29.07401674035576,170.2858,0.1072373,82.19175073588718,3,6.000906205260658,-9999,105888.83852825,0.9882354736328125,0.0536041259765625,-0.005340576171875,105888.83251625,-2.537289927137819,1.55084685313278,-0.04500428213151904,-0.04223642498254776,0.1590432971715927,0.1716378033161163,-0.01143091917037964,0.001224622130393982,0.009897053241729736,2,0.6633560215185832,0.2235951987974345,-0.6862881263596887,0.1974146308780054,0.9987886548042297,0.04498909041285515,-0.01992795243859291,27.68564605712891,-16.0207405090332,18.8936767578125,2,105886.4661055,4,1,1582558796.63818,1582558685.643339,11,0.6387488,0,0,10.91,0,0,1582558765.788069,105885.978365,0,-0.1056976,99.36552
1582558799.023841,125,0,1582558797.102774,41.20702650638557,29.07401674035576,170.2858,0.1072373,82.19175073588718,3,6.000906205260658,-9999,105888.84856825,0.9745330810546875,0.0555572509765625,-0.012939453125,105888.84255625,-2.53694423620932,1.55232708896829,-0.04314298476002181,-0.02703376673161983,0.1472430974245071,0.1896330565214157,-0.01033604145050049,0.01318566501140594,0.01360785961151123,2,0.6640364815264139,0.2232264518954081,-0.685582865831421,0.1979942867188624,0.9988992214202881,0.04312960058450699,-0.01845100522041321,27.68564605712891,-16.0207405090332,18.8936767578125,2,105886.4661055,4,1,1582558796.63818,1582558685.643339,11,0.6387488,0,0,10.91,0,0,1582558765.788069,105885.978365,0,-0.1056976,99.36552
1582558799.027435,126,0,1582558797.102774,41.20702650638557,29.07401674035576,170.2858,0.1072373,82.19175073588718,3,6.000906205260658,-9999,105888.85860825,0.9908599853515625,0.0392913818359375,-0.0069732666015625,105888.85259625,-2.53617208992086,1.553908672398699,-0.04133976911401656,-0.02235754765570164,0.1693178564310074,0.1845095455646515,-0.0315735936164856,0.01092863082885742,-0.000162959098815918,2,0.6646965015614231,0.223029929802125,-0.6848055488445931,0.1986893800521221,0.9990030527114868,0.04132799431681633,-0.01687242276966572,27.36611175537109,-16.23556900024414,19.210693359375,2,105886.4661055,4,1,1582558796.63818,1582558685.643339,11,0.6387488,0,0,10.91,0,0,1582558765.788069,105885.978365,0,-0.1056976,99.36552
1582558799.037911,127,0,1582558797.102774,41.20702650638557,29.07401674035576,170.2858,0.1072373,82.19175073588718,3,6.000906205260658,-9999,105888.86864925,1.025894165039062,0.0284423828125,0.017486572265625,105888.86263725,-2.536187829234019,1.555274399297094,-0.04001229634141976,0.003740631276741624,0.1337691843509674,0.1356546580791473,0.005123734474182129,-0.003125742077827454,0.01666176319122314,2,0.6653157271329051,0.2227117932817465,-0.6842234895499694,0.1989789578385966,0.9990792274475098,0.04000161960721016,-0.01550888083875179,27.36611175537109,-16.23556900024414,19.210693359375,2,105886.4661055,4,1,1582558796.63818,1582558685.643339,11,0.6387488,0,0,10.91,0,0,1582558765.788069,105885.978365,0,-0.1056976,99.36552
1582558799.047524,128,0,1582558797.102774,41.20702650638557,29.07401674035576,170.2858,0.1072373,82.19175073588718,3,6.000906205260658,-9999,105888.87868925,1.037765502929688,0.012237548828125,0.0201416015625,105888.87267725,-2.535905739238651,1.556224018826385,-0.03953644862090261,0.02775965631008148,0.0965050533413887,0.0495164580643177,0.02663582563400269,-0.01372805237770081,0.03223836421966553,2,0.6656627887071647,0.222739419281073,-0.6838329272289343,0.1991300650799854,0.9991124868392944,0.03952614963054657,-0.01456040609627962,27.43708038330078,-16.28890609741211,19.09591674804688,2,105886.4661055,4,1,1582558796.63818,1582558685.643339,11,0.6387488,0,0,10.91,0,0,1582558765.788069,105885.978365,0,-0.1056976,99.36552
1582558799.057611,129,0,1582558797.102774,41.20702650638557,29.07401674035576,170.2858,0.1072373,82.19175073588718,3,6.000906205260658,-9999,105888.88876025,1.028106689453125,0.016693115234375,0.0116424560546875,105888.88271725,-2.536309494988495,1.556717238850221,-0.03998781128103644,0.03909779712557793,0.05010958760976791,-0.0464518815279007,0.04089838266372681,-0.02974309027194977,0.03382045030593872,2,0.6658254715197698,0.2228065445611149,-0.6837531485919651,0.1987849735776301,0.9991016983985901,0.03997715562582016,-0.01406737044453621,27.43708038330078,-16.28890609741211,19.09591674804688,2,105886.4661055,4,1,1582558796.63818,1582558685.643339,11,0.6387488,0,0,10.91,0,0,1582558765.788069,105885.978365,0,-0.1056976,99.36552
1582558799.08494,130,0,1582558797.102774,41.20702650638557,29.07401674035576,170.2858,0.1072373,82.19175073588718,3,6.000906205260658,-9999,105888.89880025,0.9921722412109375,0.0249176025390625,-0.00665283203125,105888.89275725,-2.536285319047213,1.557152523088567,-0.04108310026585577,0.05063461139798164,0.04405276477336884,-0.1073168367147446,0.02193969488143921,-0.02107198536396027,0.02184927463531494,2,0.6658479686982611,0.2232275718054915,-0.6837127587689232,0.198375264252113,0.9990631341934204,0.04107154533267021,-0.01363186724483967,27.49176788330078,-16.33571243286133,18.95608520507812,2,105886.4661055,4,1,1582558796.63818,1582558685.643339,11,0.6387488,0,0,10.91,0,0,1582558765.788069,105885.978365,0,-0.1056976,99.36552
1582558799.087761,131,0,1582558797.102774,41.20702650638557,29.07401674035576,170.2858,0.1072373,82.19175073588718,3,6.000906205260658,-9999,105888.90884025,0.9895172119140625,0.0264129638671875,-0.00762939453125,105888.90279825,-2.536844878474248,1.557785799121808,-0.04271982471181782,0.05277979001402855,0.07046439498662949,-0.1639809161424637,-0.0112643837928772,-0.01890802383422852,0.003439128398895264,2,0.6659419701047015,0.2236563145451818,-0.683716892369437,0.1975610341612139,0.9990031123161316,0.04270683228969574,-0.01299829129129648,27.49176788330078,-16.33571243286133,18.95608520507812,2,105886.4661055,4,1,1582558796.63818,1582558685.643339,11,0.6387488,0,0,10.91,0,0,1582558765.788069,105885.978365,0,-0.1056976,99.36552
1582558799.088499,132,0,1582558797.102774,41.20702650638557,29.07401674035576,170.2858,0.1072373,82.19175073588718,3,6.000906205260658,-9999,105888.91888125,1.001296997070312,0.0324859619140625,0.0094451904296875,105888.91283825,-2.536937529530387,1.558227862221383,-0.04461999819581858,0.06164520978927612,0.04659460857510567,-0.1891742944717407,-0.006289303302764893,-0.01549661159515381,0.008870840072631836,2,0.6658882885894453,0.2243099964154648,-0.683763492039296,0.1968384064618692,0.9989258646965027,0.04460519552230835,-0.01255562528967857,27.49948883056641,-16.14985656738281,19.2200927734375,2,105886.4661055,4,1,1582558796.63818,1582558685.643339,11,0.6387488,0,0,10.91,0,0,1582558765.788069,105885.978365,0,-0.1056976,99.36552
1582558799.097731,133,0,1582558797.102774,41.20702650638557,29.07401674035576,170.2858,0.1072373,82.19175073588718,3,6.000906205260658,-9999,105888.92892125,1.002029418945312,0.0218048095703125,0.005340576171875,105888.92287825,-2.537597741695164,1.558277273329739,-0.04686009524780547,0.06584794074296951,0.008418727666139603,-0.2246167063713074,0.00238800048828125,-0.01639182865619659,0.02215641736984253,2,0.6657250403660092,0.2248503460939251,-0.6840286014707204,0.1958505181446357,0.9988240599632263,0.04684294760227203,-0.01250498462468386,27.49948883056641,-16.14985656738281,19.2200927734375,2,105886.4661055,4,1,1582558796.63818,1582558685.643339,11,0.6387488,0,0,10.91,0,0,1582558765.788069,105885.978365,0,-0.1056976,99.36552
1582558799.107791,134,0,1582558797.102774,41.20702650638557,29.07401674035576,170.2858,0.1072373,82.19175073588718,3,6.000906205260658,-9999,105888.93896125,1.002105712890625,0.03985595703125,0.0057373046875,105888.93291925,-2.537721020435253,1.557983143063693,-0.0493508607057217,0.06097637116909027,-0.02309329062700272,-0.2479436844587326,0.004129111766815186,-0.02673821151256561,0.01724553108215332,2,0.6653547412029847,0.2256201490284363,-0.6843782948130942,0.1949999142706114,0.9987004995346069,0.04933083057403564,-0.01279723364859819,27.68364715576172,-15.85417938232422,19.21902465820312,2,105886.4661055,4,1,1582558796.63818,1582558685.643339,11,0.6387488,0,0,10.91,0,0,1582558765.788069,105885.978365,0,-0.1056976,99.36552
1582558799.12202,135,0,1582558797.102774,41.20702650638557,29.07401674035576,170.2858,0.1072373,82.19175073588718,3,6.000906205260658,-9999,105888.94900125,1.006988525390625,0.060394287109375,0.0016021728515625,105888.94295925,-2.538336826387913,1.557578807833568,-0.05198572536585119,0.05782638117671013,-0.04554720222949982,-0.2627215385437012,0.002543628215789795,-0.007473662495613098,0.01928043365478516,2,0.6649849319411086,0.226264007405333,-0.6848249624843608,0.1939443701798573,0.9985617995262146,0.05196231231093407,-0.0131992781534791,27.68364715576172,-15.85417938232422,19.21902465820312,2,105886.4661055,4,1,1582558796.63818,1582558685.643339,11,0.6387488,0,0,10.91,0,0,1582558765.788069,105885.978365,0,-0.1056976,99.36552
1582558799.140423,136,0,1582558798.102767,41.20702693018446,29.07401457037224,170.3204,0.2144638,81.27415580203099,3,6.000906205260658,-9999,105888.95904225,1.011947631835938,0.061859130859375,0.001312255859375,105888.95299925,-2.538430123038471,1.557251168743427,-0.05481917692545033,0.06025522947311401,-0.03267060220241547,-0.2943300902843475,0.01469254493713379,0.007564648985862732,0.01510423421859741,2,0.6645584606633864,0.2271560114338202,-0.685212683013218,0.1929917763574105,0.9984062314033508,0.05479172617197037,-0.01352439727634192,27.59944915771484,-15.71743011474609,19.29437255859375,2,105886.4661055,4,1,1582558796.63818,1582558685.643339,11,0.6387488,0,0,10.91,0,0,1582558765.788069,105885.978365,0,-0.1056976,99.36552
1582558799.141349,137,0,1582558798.102767,41.20702693018446,29.07401457037224,170.3204,0.2144638,81.27415580203099,3,6.000906205260658,-9999,105888.96908225,0.988067626953125,0.0561981201171875,-0.0190887451171875,105888.96303925,-2.538878169946389,1.556926451780823,-0.05753450229269073,0.04401287436485291,-0.0322282500565052,-0.2755854427814484,0.006457209587097168,0.002625510096549988,0.01203882694244385,2,0.6641856960293289,0.2278905884931831,-0.6856207182239753,0.1919570489574717,0.998249351978302,0.05750276520848274,-0.01384648215025663,27.59944915771484,-15.71743011474609,19.29437255859375,2,105886.4661055,4,1,1582558796.63818,1582558685.643339,11,0.6387488,0,0,10.91,0,0,1582558765.788069,105885.978365,0,-0.1056976,99.36552
1582558799.147783,138,0,1582558798.102767,41.20702693018446,29.07401457037224,170.3204,0.2144638,81.27415580203099,3,6.000906205260658,-9999,105888.97912225,0.9843902587890625,0.069000244140625,-0.0135955810546875,105888.97308025,-2.538605276843976,1.556853495227895,-0.06018028125050419,0.01936851628124714,0.002133984118700027,-0.2705584466457367,-0.01160514354705811,-0.003205090761184692,-0.008840739727020264,2,0.6638239032810241,0.2288651454665443,-0.6858680177608494,0.1911641052027036,0.9980927705764771,0.06014396250247955,-0.01391714159399271,27.61432647705078,-15.62650680541992,19.41400146484375,2,105886.4661055,4,1,1582558796.63818,1582558685.643339,11,0.6387488,0,0,10.91,0,0,1582558765.788069,105885.978365,0,-0.1056976,99.36552
1582558799.157781,139,0,1582558798.102767,41.20702693018446,29.07401457037224,170.3204,0.2144638,81.27415580203099,3,6.000906205260658,-9999,105888.98916325,0.9962005615234375,0.08673095703125,0.010589599609375,105888.98312025,-2.538779509478757,1.556465009882176,-0.06252051633649015,0.01232392247766256,-0.03915246948599815,-0.2356465309858322,-0.0119902491569519,0.01104511320590973,0.007520914077758789,2,0.6634392769641956,0.2295580787289027,-0.686232948458657,0.190357165365048,0.9979438185691833,0.06247979402542114,-0.01430282834917307,27.61432647705078,-15.62650680541992,19.41400146484375,2,105886.4661055,4,1,1582558796.63818,1582558685.643339,11,0.6387488,0,0,10.91,0,0,1582558765.788069,105885.978365,0,-0.1056976,99.36552
1582558799.168232,140,0,1582558798.102767,41.20702693018446,29.07401457037224,170.3204,0.2144638,81.27415580203099,3,6.000906205260658,-9999,105888.99920325,0.9913177490234375,0.081268310546875,-0.004119873046875,105888.99319125,-2.538458756275327,1.55574145091348,-0.06461355920779618,0.01678844541311264,-0.0751006156206131,-0.2104253321886063,-0.0008604526519775391,0.02281104028224945,0.02472031116485596,2,0.6629105558691709,0.2303001288398269,-0.6866376381955946,0.1898422506521129,0.9978000521659851,0.06456860899925232,-0.01502289157360792,27.81395721435547,-15.64325332641602,19.2496337890625,2,105886.4661055,4,1,1582558796.63818,1582558685.643339,11,0.6387488,0,0,10.91,0,0,1582558765.788069,105885.978365,0,-0.1056976,99.36552
1582558799.177876,141,0,1582558798.102767,41.20702693018446,29.07401457037224,170.3204,0.2144638,81.27415580203099,3,6.000906205260658,-9999,105889.00924325,0.98077392578125,0.080322265625,-0.0113677978515625,105889.00323125,-2.538629726403659,1.555019259560731,-0.06654808314946248,0.01535619702190161,-0.07344359904527664,-0.1962818205356598,-0.009862661361694336,0.01335780322551727,0.008578121662139893,2,0.6624564209546655,0.2308262212938192,-0.6870730793800554,0.189212439522681,0.9976623058319092,0.06649897247552872,-0.01574149169027805,27.81395721435547,-15.64325332641602,19.2496337890625,2,105886.4661055,4,1,1582558796.63818,1582558685.643339,11,0.6387488,0,0,10.91,0,0,1582558765.788069,105885.978365,0,-0.1056976,99.36552
1582558799.19731,142,0,1582558798.102767,41.20702693018446,29.07401457037224,170.3204,0.2144638,81.27415580203099,3,6.000906205260658,-9999,105889.01928325,0.9852294921875,0.0831146240234375,-0.0101776123046875,105889.01327125,-2.53829441395693,1.554343244449009,-0.06836784393685705,0.01626966148614883,-0.06802326440811157,-0.1860736608505249,-0.01613795757293701,0.01328149437904358,0.005374610424041748,2,0.6619723053598611,0.2314858850832808,-0.6874337461540077,0.1887902411625356,0.9975287318229675,0.06831459701061249,-0.01641390472650528,27.91043853759766,-15.43941879272461,19.19473266601562,2,105886.4661055,4,1,1582558796.63818,1582558685.643339,11,0.6387488,0,0,10.91,0,0,1582558765.788069,105885.978365,0,-0.1056976,99.36552
1582558799.198117,143,0,1582558798.102767,41.20702693018446,29.07401457037224,170.3204,0.2144638,81.27415580203099,3,6.000906205260658,-9999,105889.02932425,0.9810028076171875,0.07861328125,-0.0149078369140625,105889.02331225,-2.53847669236577,1.553782960988404,-0.07017590470020739,0.01452422607690096,-0.05702121555805206,-0.1836424618959427,-0.01228046417236328,0.01202687621116638,0.005565166473388672,2,0.6615884719645327,0.2319813730452725,-0.6878032424261595,0.1881810003599967,0.9973943829536438,0.07011832296848297,-0.01697067357599735,27.91043853759766,-15.43941879272461,19.19473266601562,2,105886.4661055,4,1,1582558796.63818,1582558685.643339,11,0.6387488,0,0,10.91,0,0,1582558765.788069,105885.978365,0,-0.1056976,99.36552
1582558799.208204,144,0,1582558798.102767,41.20702693018446,29.07401457037224,170.3204,0.2144638,81.27415580203099,3,6.000906205260658,-9999,105889.03936425,0.9807586669921875,0.079315185546875,-0.0142059326171875,105889.03335225,-2.538113236539988,1.553324453279415,-0.0719050789172513,0.01322593446820974,-0.04671131819486618,-0.1727727651596069,-0.01767373085021973,0.006471917033195496,0.002419114112854004,2,0.6611849167210634,0.2326404656091551,-0.6880797366930091,0.1877744347432784,0.9972637295722961,0.07184313237667084,-0.01742583885788918,27.94207000732422,-15.42490386962891,19.1114501953125,2,105889.03469525,4,2,1582558799.20677,1582558685.643339,11,0.6387488,0,0,10.91,0,0,1582558765.788069,105885.978365,0,-0.1056976,99.36552
1582558799.21894,145,0,1582558798.102767,41.20702693018446,29.07401457037224,170.3204,0.2144638,81.27415580203099,3,6.000906205260658,-9999,105889.04940425,0.9932403564453125,0.07635498046875,-0.0129547119140625,105889.04339225,-2.538229089310358,1.552871059196834,-0.0735478040487083,0.008225827477872372,-0.04362887144088745,-0.1653261482715607,-0.01440310478210449,0.005413159728050232,0.003509998321533203,2,0.660848415790271,0.2331125175660156,-0.6883910307671216,0.1872317549549306,0.9971363544464111,0.07348151504993439,-0.01787585020065308,27.94207000732422,-15.42490386962891,19.1114501953125,2,105889.03469525,4,2,1582558799.20677,1582558685.643339,11,0.6387488,0,0,10.91,0,0,1582558765.788069,105885.978365,0,-0.1056976,99.36552
1582558799.228224,146,0,1582558798.102767,41.20702693018446,29.07401457037224,170.3204,0.2144638,81.27415580203099,3,6.000906205260658,-9999,105889.05944525,1.000259399414062,0.0831298828125,-0.00537109375,105889.05343325,-2.537820496400188,1.552234148519211,-0.07520742369676754,0.007227135822176933,-0.06084265559911728,-0.1676128655672073,-0.001939296722412109,0.001743778586387634,0.006614744663238525,2,0.6603849426502748,0.2337464519230984,-0.6887149357920157,0.1868855443725617,0.997001588344574,0.07513654977083206,-0.01850864663720131,28.18891143798828,-15.32120895385742,19.0631103515625,2,105889.03469525,4,2,1582558799.20677,1582558685.643339,11,0.6387488,0,0,10.91,0,0,1582558765.788069,105885.978365,0,-0.1056976,99.36552
1582558799.238299,147,0,1582558798.102767,41.20702693018446,29.07401457037224,170.3204,0.2144638,81.27415580203099,3,6.000906205260658,-9999,105889.06948525,1.000640869140625,0.0856170654296875,-0.0029296875,105889.06347325,-2.537919033723746,1.551378849380494,-0.07691321709972736,0.006240434944629669,-0.08416368812322617,-0.1692592352628708,0.003196001052856445,0.007565274834632874,0.01471269130706787,2,0.6598993142178116,0.23420817138026,-0.6891616886718244,0.1863747884015257,0.9968556761741638,0.07683740556240082,-0.01935885474085808,28.18891143798828,-15.32120895385742,19.0631103515625,2,105889.03469525,4,2,1582558799.20677,1582558685.643339,11,0.6387488,0,0,10.91,0,0,1582558765.788069,105885.978365,0,-0.1056976,99.36552
1582558799.260073,148,0,1582558798.102767,41.20702693018446,29.07401457037224,170.3204,0.2144638,81.27415580203099,3,6.000906205260658,-9999,105889.07952525,1.007736206054688,0.09075927734375,0.0098724365234375,105889.07351325,-2.537530836652209,1.550104972861267,-0.0786397561391,0.008742766454815865,-0.1271156668663025,-0.171265035867691,0.005033969879150391,0.007613763213157654,0.01903152465820312,2,0.659209047328389,0.2347987742955208,-0.689702322698697,0.1860743522384359,0.9966960549354553,0.07855872809886932,-0.02062593586742878,28.16880035400391,-15.28264236450195,19.24398803710938,2,105889.03469525,4,2,1582558799.20677,1582558685.643339,11,0.6387488,0,0,10.91,0,0,1582558765.788069,105885.978365,0,-0.1056976,99.36552
1582558799.260993,149,0,1582558798.102767,41.20702693018446,29.07401457037224,170.3204,0.2144638,81.27415580203099,3,6.000906205260658,-9999,105889.08956525,1.014739990234375,0.089385986328125,0.007110595703125,105889.08355325,-2.537656420601626,1.548112416872166,-0.08031541943063138,0.01057661883533001,-0.1983578950166702,-0.1680290251970291,0.01235115528106689,0.01116171479225159,0.0345645546913147,2,0.658336055554573,0.2351365832632348,-0.6905218172974109,0.1856990657718252,0.9965201020240784,0.08022910356521606,-0.02260885015130043,28.16880035400391,-15.28264236450195,19.24398803710938,2,105889.03469525,4,2,1582558799.20677,1582558685.643339,11,0.6387488,0,0,10.91,0,0,1582558765.788069,105885.978365,0,-0.1056976,99.36552
1582558799.268688,150,0,1582558798.102767,41.20702693018446,29.07401457037224,170.3204,0.2144638,81.27415580203099,3,6.000906205260658,-9999,105889.09960625,1.010269165039062,0.08984375,-0.0108489990234375,105889.09359425,-2.537119135830835,1.5454725286875,-0.08193451346612754,-0.004549555480480194,-0.2682678699493408,-0.1616660803556442,0.02006787061691284,0.00680115818977356,0.02828079462051392,2,0.6571666455023811,0.2356139373536179,-0.6914857587107895,0.1856488735248931,0.996325671672821,0.08184286952018738,-0.02523614466190338,28.43422698974609,-15.2592887878418,18.99368286132812,2,105889.03469525,4,2,1582558799.20677,1582558685.643339,11,0.6387488,0,0,10.91,0,0,1582558765.788069,105885.978365,0,-0.1056976,99.36552
1582558799.278408,151,0,1582558798.102767,41.20702693018446,29.07401457037224,170.3204,0.2144638,81.27415580203099,3,6.000906205260658,-9999,105889.10964625,0.9761962890625,0.094512939453125,-0.01953125,105889.10363425,-2.537017982481322,1.542733268856487,-0.0834387651678595,-0.01361202634871006,-0.2727787494659424,-0.1465300023555756,0.005082607269287109,0.007941603660583496,0.01527488231658936,2,0.6560259672407952,0.2359005168539565,-0.6925103936985884,0.1854996220066324,0.9961284995079041,0.08334197849035263,-0.02796175330877304,28.43422698974609,-15.2592887878418,18.99368286132812,2,105889.03469525,4,2,1582558799.20677,1582558685.643339,11,0.6387488,0,0,10.91,0,0,1582558765.788069,105885.978365,0,-0.1056976,99.36552
1582558799.288506,152,0,1582558798.102767,41.20702693018446,29.07401457037224,170.3204,0.2144638,81.27415580203099,3,6.000906205260658,-9999,105889.11968625,1.058120727539062,0.0890350341796875,-0.0169525146484375,105889.11367425,-2.536291799431817,1.539712433440956,-0.08500394953180251,-0.02556069940328598,-0.3024888634681702,-0.1527767926454544,-0.01166445016860962,0.008289188146591187,0.008819997310638428,2,0.6547044106867681,0.2363869647697605,-0.6935726975129197,0.1855810558043631,0.9959080815315247,0.08490161597728729,-0.03096667490899563,28.40465545654297,-15.16838836669922,18.77490234375,2,105889.03469525,4,2,1582558799.20677,1582558685.643339,11,0.6387488,0,0,10.91,0,0,1582558765.788069,105885.978365,0,-0.1056976,99.36552
1582558799.298502,153,0,1582558798.102767,41.20702693018446,29.07401457037224,170.3204,0.2144638,81.27415580203099,3,6.000906205260658,-9999,105889.12972625,1.158859252929688,0.1251983642578125,0.055206298828125,105889.12371525,-2.536179209806576,1.536624211612422,-0.08706742560325668,-0.02517960220575333,-0.3242402374744415,-0.1883014887571335,0.07961666584014893,0.004081636667251587,0.02566838264465332,2,0.6533689982593615,0.2368352351215574,-0.6947553726881577,0.1852916524262558,0.9956304430961609,0.08695746213197708,-0.03403604775667191,28.40465545654297,-15.16838836669922,18.77490234375,2,105889.03469525,4,2,1582558799.20677,1582558685.643339,11,0.6387488,0,0,10.91,0,0,1582558765.788069,105885.978365,0,-0.1056976,99.36552
1582558799.316003,154,0,1582558798.102767,41.20702693018446,29.07401457037224,170.3204,0.2144638,81.27415580203099,3,6.000906205260658,-9999,105889.13979725,1.484283447265625,0.0617218017578125,-0.0395965576171875,105889.13375525,-2.536034450926889,1.533260797280749,-0.09124063669691793,0.06271249800920486,-0.2780842781066895,-0.4198614358901978,0.2063592672348022,0.04202347993850708,0.1068232655525208,2,0.6516733256799793,0.2379843770203237,-0.6962070373418707,0.1843398305790976,0.9951391220092773,0.0911140963435173,-0.03737062588334084,28.59598541259766,-15.13238906860352,18.63037109375,2,105889.03469525,4,2,1582558799.20677,1582558685.643339,11,0.6387488,0,0,10.91,0,0,1582558765.788069,105885.978365,0,-0.1056976,99.36552
1582558799.318774,155,0,1582558798.102767,41.20702693018446,29.07401457037224,170.3204,0.2144638,81.27415580203099,3,6.000906205260658,-9999,105889.14983825,1.67779541015625,0.0196380615234375,-0.118072509765625,105889.14379525,-2.53510512237026,1.527981631655323,-0.09909230835537924,-0.1609791815280914,-0.5160300135612488,-0.7848727107048035,0.5704444050788879,-0.07033152878284454,-0.0565040111541748,2,0.6487540985583731,0.240462670195247,-0.6985201026665668,0.1826622752704765,0.9941824674606323,0.09893021732568741,-0.0425916463136673,28.59598541259766,-15.13238906860352,18.63037109375,2,105889.03469525,4,2,1582558799.20677,1582558685.643339,11,0.6387488,0,0,10.91,0,0,1582558765.788069,105885.978365,0,-0.1056976,99.36552
1582558799.328625,156,0,1582558798.102767,41.20702693018446,29.07401457037224,170.3204,0.2144638,81.27415580203099,3,6.000906205260658,-9999,105889.15987825,1.6405029296875,0.1192779541015625,0.0679168701171875,105889.15383525,-2.534122666618313,1.520904583867472,-0.1104651599085915,-0.1073091849684715,-0.6924272775650024,-1.126916527748108,0.6566604375839233,-0.06475178897380829,-0.01516491174697876,2,0.6447340546306928,0.2439968403983736,-0.7016858907235717,0.1800569098515605,0.9926682114601135,0.110240638256073,-0.0495670810341835,28.93184661865234,-14.74453735351562,18.47097778320312,2,105889.03469525,4,2,1582558799.20677,1582558685.643339,11,0.6387488,0,0,10.91,0,0,1582558765.788069,105885.978365,0,-0.1056976,99.36552
1582558799.338707,157,0,1582558798.102767,41.20702693018446,29.07401457037224,170.3204,0.2144638,81.27415580203099,3,6.000906205260658,-9999,105889.16991825,1.97991943359375,0.052398681640625,0.0755767822265625,105889.16387625,-2.534365171211616,1.51109666121494,-0.1253499075654484,-0.07270833104848862,-0.9909745454788208,-1.466743588447571,0.7138131856918335,-0.01248763501644135,0.1186413764953613,2,0.6394110400981786,0.2481037678055843,-0.706079603389793,0.1762091226112767,0.9903864860534668,0.125021904706955,-0.05919608473777771,28.93184661865234,-14.74453735351562,18.47097778320312,2,105889.03469525,4,2,1582558799.20677,1582558685.643339,11,0.6387488,0,0,10.91,0,0,1582558765.788069,105885.978365,0,-0.1056976,99.36552
1582558799.348737,158,0,1582558798.102767,41.20702693018446,29.07401457037224,170.3204,0.2144638,81.27415580203099,3,6.000906205260658,-9999,105889.17995825,1.874374389648438,0.1016082763671875,0.255859375,105889.17391625,-2.535613381436853,1.499834304116226,-0.1448105550233727,0.06040637567639351,-1.087286591529846,-1.938936114311218,1.009179830551147,-0.09300646185874939,0.184492826461792,2,0.6330321407554498,0.2533576960054151,-0.7112954669401803,0.1707017521358734,0.9870429635047913,0.1443049758672714,-0.07016037404537201,29.47483062744141,-14.14922332763672,17.96994018554688,2,105889.03469525,4,2,1582558799.20677,1582558685.643339,11,0.6387488,0,0,10.91,0,0,1582558765.788069,105885.978365,0,-0.1056976,99.36552
1582558799.358779,159,0,1582558798.102767,41.20702693018446,29.07401457037224,170.3204,0.2144638,81.27415580203099,3,6.000906205260658,-9999,105889.18999925,1.773208618164062,0.1959991455078125,0.2496490478515625,105889.18395625,-2.539113620364463,1.487835836589911,-0.1685981464035119,0.1571643501520157,-1.165148377418518,-2.386501312255859,0.8542314767837524,-0.05099882185459137,0.3454380035400391,2,0.626003499582789,0.2593731215529788,-0.7171087289198075,0.1630956707353358,0.9824303984642029,0.1678005307912827,-0.08169040828943253,29.47483062744141,-14.14922332763672,17.96994018554688,2,105889.03469525,4,2,1582558799.20677,1582558685.643339,11,0.6387488,0,0,10.91,0,0,1582558765.788069,105885.978365,0,-0.1056976,99.36552
1582558799.377302,160,0,1582558798.102767,41.20702693018446,29.07401457037224,170.3204,0.2144638,81.27415580203099,3,6.000906205260658,-9999,105889.20003925,1.683944702148438,0.261566162109375,0.228363037109375,105889.19399725,-2.544401573819207,1.477949665312512,-0.1955279130335371,0.325297474861145,-0.8617685437202454,-2.748659133911133,0.783267080783844,0.0211927741765976,0.3458453416824341,2,0.6194289337258472,0.2661474265808053,-0.7224185664153167,0.1535731208081026,0.9767200946807861,0.1942844092845917,-0.09094668924808502,30.16585540771484,-12.59249877929688,17.59780883789062,2,105889.03469525,4,2,1582558799.20677,1582558685.643339,11,0.6387488,0,0,10.91,0,0,1582558765.788069,105885.978365,0,-0.1056976,99.36552
1582558799.378906,161,0,1582558798.102767,41.20702693018446,29.07401457037224,170.3204,0.2144638,81.27415580203099,3,6.000906205260658,-9999,105889.21007925,1.88763427734375,0.0373382568359375,-0.091094970703125,105889.20403725,-2.551736384404077,1.467989527879298,-0.2239884420170323,0.4632702469825745,-0.8062472343444824,-2.888330698013306,0.7194382548332214,0.02950187027454376,0.2819944620132446,2,0.6127835539641449,0.2728832173476354,-0.7277546924976604,0.1428431746676929,0.9698712229728699,0.2221201807260513,-0.1000621318817139,30.16585540771484,-12.59249877929688,17.59780883789062,2,105889.03469525,4,2,1582558799.20677,1582558685.643339,11,0.6387488,0,0,10.91,0,0,1582558765.788069,105885.978365,0,-0.1056976,99.36552
