loggingTime,loggingSample,identifierForVendor,locationTimestamp_since1970,locationLatitude,locationLongitude,locationAltitude,locationSpeed,locationCourse,locationVerticalAccuracy,locationHorizontalAccuracy,locationFloor,accelerometerTimestamp_sinceReboot,accelerometerAccelerationX,accelerometerAccelerationY,accelerometerAccelerationZ,motionTimestamp_sinceReboot,motionYaw,motionRoll,motionPitch,motionRotationRateX,motionRotationRateY,motionRotationRateZ,motionUserAccelerationX,motionUserAccelerationY,motionUserAccelerationZ,motionAttitudeReferenceFrame,motionQuaternionX,motionQuaternionY,motionQuaternionZ,motionQuaternionW,motionGravityX,motionGravityY,motionGravityZ,motionMagneticFieldX,motionMagneticFieldY,motionMagneticFieldZ,motionMagneticFieldCalibrationAccuracy,activityTimestamp_sinceReboot,activity,activityActivityConfidence,activityActivityStartDate,pedometerStartDate,pedometerNumberofSteps,pedometerAverageActivePace,pedometerCurrentPace,pedometerCurrentCadence,pedometerDistance,pedometerFloorAscended,pedometerFloorDescended,pedometerEndDate,altimeterTimestamp_sinceReboot,altimeterReset,altimeterRelativeAltitude,altimeterPressure
1580907521.526042,1,0,1580907286.99823,41.20781296037784,29.0754925099451,275.2123,0.1345286,-1,23.46983528137207,200,-9999,11237.29202304167,0.972564697265625,0.0901031494140625,-0.1254425048828125,11237.28695704167,-3.107809197262526,1.431834643645012,-0.09293819141365249,-0.01036496926099062,-0.01455948501825333,0.0003225235268473625,-0.01432257890701294,-0.000717461109161377,0.004512786865234375,2,0.6549157934688984,0.04611663535334312,-0.7540845852207212,-0.0177524876820188,0.9860864281654358,0.09280445426702499,-0.1379171162843704,38.46736907958984,4.602640151977539,-21.87042236328125,2,11224.65753175,2,2,1580907508.898698,1580903939.50652,2435,0.4661743,0,0,2995.009,10,12,1580907483.189245,11234.775904,0,10.80972,97.0776
1580907521.550031,2,0,1580907286.99823,41.20781296037784,29.0754925099451,275.2123,0.1345286,-1,23.46983528137207,200,-9999,11237.30206304167,0.9636383056640625,0.09039306640625,-0.13714599609375,11237.29699704167,-3.107790838713208,1.431830468931365,-0.09295031143082617,-0.00204418832436204,8.790194988250732e-05,0.0004098750650882721,-0.009422957897186279,-0.001263640820980072,0.0138852596282959,2,0.6549135466930652,0.04612724542818468,-0.7540857793957103,-0.01774946096236729,0.986084520816803,0.09281652420759201,-0.1379210501909256,38.46736907958984,4.602640151977539,-21.87042236328125,2,11224.65753175,2,2,1580907508.898698,1580903939.50652,2435,0.4661743,0,0,2995.009,10,12,1580907483.189245,11234.775904,0,10.80972,97.0776
1580907521.55144,3,0,1580907286.99823,41.20781296037784,29.0754925099451,275.2123,0.1345286,-1,23.46983528137207,200,-9999,11237.31210304167,0.96282958984375,0.091796875,-0.136749267578125,11237.30703704167,-3.107750109873564,1.431901507423462,-0.09296296877164928,-0.004476488102227449,0.007555348798632622,-0.0008638957515358925,-0.02597218751907349,-0.003855004906654358,-0.001352250576019287,2,0.6549391073729014,0.04614471987004346,-0.7540628835492843,-0.01773988290139408,0.9860933423042297,0.09282913058996201,-0.1378508657217026,38.19963836669922,4.58575439453125,-21.8250732421875,2,11224.65753175,2,2,1580907508.898698,1580903939.50652,2435,0.4661743,0,0,2995.009,10,12,1580907483.189245,11234.775904,0,10.80972,97.0776
1580907521.552459,4,0,1580907286.99823,41.20781296037784,29.0754925099451,275.2123,0.1345286,-1,23.46983528137207,200,-9999,11237.32214304167,0.967742919921875,0.0916595458984375,-0.1335906982421875,11237.31710804167,-3.107720262334253,1.432047688119854,-0.09295644487462097,-0.003368879202753305,0.01497225277125835,0.001381682232022285,-0.02442139387130737,-0.001101918518543243,-0.001100122928619385,2,0.6549936751636874,0.04615074150546118,-0.7540153176499488,-0.01772986542902037,0.9861140251159668,0.09282263368368149,-0.1377067863941193,38.19963836669922,4.58575439453125,-21.8250732421875,2,11224.65753175,2,2,1580907508.898698,1580903939.50652,2435,0.4661743,0,0,2995.009,10,12,1580907483.189245,11234.775904,0,10.80972,97.0776
1580907521.553626,5,0,1580907286.99823,41.20781296037784,29.0754925099451,275.2123,0.1345286,-1,23.46983528137207,200,-9999,11237.33218404167,0.9712982177734375,0.0933074951171875,-0.1309051513671875,11237.32714804167,-3.107707076821228,1.432162130400306,-0.09292349532963845,-0.001058665104210377,0.01160661317408085,0.004386609420180321,-0.0241655707359314,-0.001847222447395325,-0.0001447200775146484,2,0.6550372272567833,0.04614164094897116,-0.7539783604763126,-0.01771672324526732,0.9861328601837158,0.09278982132673264,-0.1375943571329117,38.28050231933594,4.612003326416016,-21.78240966796875,2,11224.65753175,2,2,1580907508.898698,1580903939.50652,2435,0.4661743,0,0,2995.009,10,12,1580907483.189245,11234.775904,0,10.80972,97.0776
1580907521.554636,6,0,1580907286.99823,41.20781296037784,29.0754925099451,275.2123,0.1345286,-1,23.46983528137207,200,-9999,11237.34222404167,0.9712066650390625,0.091278076171875,-0.1310577392578125,11237.33718904167,-3.107701233540402,1.432231289025674,-0.09288942406903566,0.0001315008848905563,0.007360735908150673,0.003515223041176796,-0.01764744520187378,0.0005061477422714233,0.004120886325836182,2,0.6550639015747465,0.04613011551201232,-0.7539561576437502,-0.0177049372303346,0.9861454367637634,0.09275589883327484,-0.1375266015529633,38.28050231933594,4.612003326416016,-21.78240966796875,2,11224.65753175,2,2,1580907508.898698,1580903939.50652,2435,0.4661743,0,0,2995.009,10,12,1580907483.189245,11234.775904,0,10.80972,97.0776
1580907521.559508,7,0,1580907286.99823,41.20781296037784,29.0754925099451,275.2123,0.1345286,-1,23.46983528137207,200,-9999,11237.35226404167,0.9715118408203125,0.091400146484375,-0.1316070556640625,11237.34722904167,-3.107694599649878,1.432258729538496,-0.09285271908881304,0.0003972193226218224,0.003292780369520187,0.004178911447525024,-0.01783764362335205,-0.001211971044540405,0.004140019416809082,2,0.6550748891592918,0.04611822712685786,-0.7539476270137845,-0.01769102859567294,0.9861525297164917,0.09271935373544693,-0.1375000029802322,38.18587493896484,4.933528900146484,-21.79827880859375,2,11224.65753175,2,2,1580907508.898698,1580903939.50652,2435,0.4661743,0,0,2995.009,10,12,1580907483.189245,11234.775904,0,10.80972,97.0776
1580907521.571131,8,0,1580907286.99823,41.20781296037784,29.0754925099451,275.2123,0.1345286,-1,23.46983528137207,200,-9999,11237.36233504167,0.9717559814453125,0.092742919921875,-0.1307220458984375,11237.35726904167,-3.10768556811768,1.432246866312989,-0.09281983595936427,4.248693585395813e-05,-0.0005980972200632095,0.004132306203246117,-0.01767104864120483,-0.001713186502456665,0.003709793090820312,2,0.6550709148479469,0.0461089118485932,-0.753952056742189,-0.01767655463214582,0.9861540198326111,0.09268660843372345,-0.137512132525444,38.18587493896484,4.933528900146484,-21.79827880859375,2,11224.65753175,2,2,1580907508.898698,1580903939.50652,2435,0.4661743,0,0,2995.009,10,12,1580907483.189245,11234.775904,0,10.80972,97.0776
1580907521.59131,9,0,1580907286.99823,41.20781296037784,29.0754925099451,275.2123,0.1345286,-1,23.46983528137207,200,-9999,11237.37237504167,0.9727935791015625,0.09136962890625,-0.1299591064453125,11237.36730904167,-3.107682893197974,1.432169553521247,-0.09279765139998479,0.0006100712344050407,-0.00776015967130661,0.002021456137299538,-0.01744890213012695,-0.0004398375749588013,0.004228770732879639,2,0.6550421983018442,0.04610211740749321,-0.7539774959755019,-0.01766649871116864,0.9861451983451843,0.09266452491283417,-0.1375886201858521,38.3118896484375,4.768630981445312,-21.89984130859375,2,11224.65753175,2,2,1580907508.898698,1580903939.50652,2435,0.4661743,0,0,2995.009,10,12,1580907483.189245,11234.775904,0,10.80972,97.0776
1580907521.592294,10,0,1580907286.99823,41.20781296037784,29.0754925099451,275.2123,0.1345286,-1,23.46983528137207,200,-9999,11237.38242725,0.970733642578125,0.09014892578125,-0.1327056884765625,11237.37735004167,-3.107685336617282,1.432070736316891,-0.09277380383312968,0.001305689103901386,-0.009948479011654854,0.002284576185047626,-0.01650673151016235,-0.0007669776678085327,0.005379676818847656,2,0.6550055119862225,0.04609321236485343,-0.7540101855200608,-0.01765731262237234,0.986133873462677,0.09264077991247177,-0.1376863867044449,38.3118896484375,4.768630981445312,-21.89984130859375,2,11224.65753175,2,2,1580907508.898698,1580903939.50652,2435,0.4661743,0,0,2995.009,10,12,1580907483.189245,11234.775904,0,10.80972,97.0776
1580907521.599653,11,0,1580907286.99823,41.20781296037784,29.0754925099451,275.2123,0.1345286,-1,23.46983528137207,200,-9999,11237.39246725,0.9681396484375,0.0910797119140625,-0.1343841552734375,11237.38740125,-3.107689681457505,1.432003281065185,-0.09277271745111902,0.0004177913069725037,-0.006043219938874245,-0.000991377979516983,-0.01741302013397217,-0.002520650625228882,0.003645956516265869,2,0.6549802045016812,0.04609197591841904,-0.7540322475390149,-0.01765703997021334,0.9861246943473816,0.09263969212770462,-0.1377529203891754,38.24419403076172,4.839277267456055,-21.99853515625,2,11224.65753175,2,2,1580907508.898698,1580903939.50652,2435,0.4661743,0,0,2995.009,10,12,1580907483.189245,11234.775904,0,10.80972,97.0776
1580907521.609647,12,0,1580907286.99823,41.20781296037784,29.0754925099451,275.2123,0.1345286,-1,23.46983528137207,200,-9999,11237.40250725,0.9677276611328125,0.0919342041015625,-0.133392333984375,11237.39747225,-3.107709344888083,1.431969588040422,-0.09277367017704084,0.002731279470026493,-0.002657277509570122,-0.000184440053999424,-0.02012425661087036,-0.002155378460884094,0.0009936690330505371,2,0.6549679367437061,0.04608619217803067,-0.7540430571370302,-0.01766399279954287,0.9861199259757996,0.09264064580202103,-0.1377861350774765,38.24419403076172,4.839277267456055,-21.99853515625,2,11224.65753175,2,2,1580907508.898698,1580903939.50652,2435,0.4661743,0,0,2995.009,10,12,1580907483.189245,11234.775904,0,10.80972,97.0776
1580907521.619716,13,0,1580907286.99823,41.20781296037784,29.0754925099451,275.2123,0.1345286,-1,23.46983528137207,200,-9999,11237.41254725,0.968597412109375,0.091949462890625,-0.133270263671875,11237.40751225,-3.10770728727233,1.43196994834587,-0.09277671788524805,-0.0008108746260404587,0.0005791131407022476,0.0002447562292218208,-0.02143621444702148,-0.001151323318481445,0.001817405223846436,2,0.6549679564589476,0.04608801080656406,-0.7540429647946429,-0.01766422164146746,0.9861197471618652,0.09264367818832397,-0.1377857476472855,38.26804351806641,4.998069763183594,-22.1383056640625,2,11224.65753175,2,2,1580907508.898698,1580903939.50652,2435,0.4661743,0,0,2995.009,10,12,1580907483.189245,11234.775904,0,10.80972,97.0776
1580907521.648944,14,0,1580907286.99823,41.20781296037784,29.0754925099451,275.2123,0.1345286,-1,23.46983528137207,200,-9999,11237.42258825,0.9692840576171875,0.092254638671875,-0.1326141357421875,11237.41755225,-3.107705085397368,1.43196603599082,-0.09278152986656615,-0.0008361740037798882,-0.001899491995573044,0.0004900330677628517,-0.0206570029258728,-0.001049309968948364,0.001912951469421387,2,0.6549663242983522,0.04609057859729704,-0.7540442450547692,-0.01766487700511864,0.9861187934875488,0.0926484689116478,-0.1377895474433899,38.26804351806641,4.998069763183594,-22.1383056640625,2,11224.65753175,2,2,1580907508.898698,1580903939.50652,2435,0.4661743,0,0,2995.009,10,12,1580907483.189245,11234.775904,0,10.80972,97.0776
1580907521.650241,15,0,1580907286.99823,41.20781296037784,29.0754925099451,275.2123,0.1345286,-1,23.46983528137207,200,-9999,11237.43262825,0.9679718017578125,0.0919036865234375,-0.133056640625,11237.42759325,-3.107709377550927,1.431996977001906,-0.09280287972131158,-0.0001082522794604301,0.004224244505167007,-0.002434466499835253,-0.01960659027099609,-0.0005823522806167603,0.002721190452575684,2,0.6549776215506131,0.04609693891923601,-0.7540339080096174,-0.01767420553771157,0.9861212372779846,0.09266972541809082,-0.1377587765455246,38.07247161865234,5.076972961425781,-21.93719482421875,2,11224.65753175,2,2,1580907508.898698,1580903939.50652,2435,0.4661743,0,0,2995.009,10,12,1580907483.189245,11234.775904,0,10.80972,97.0776
1580907521.651075,16,0,1580907286.99823,41.20781296037784,29.0754925099451,275.2123,0.1345286,-1,23.46983528137207,200,-9999,11237.44269925,0.9676666259765625,0.0918121337890625,-0.1331024169921875,11237.43763325,-3.107706538716652,1.432021312799368,-0.09280732487686605,-0.0001223674044013023,0.001490242779254913,0.0003698421642184258,-0.02069282531738281,-0.001273438334465027,0.002330899238586426,2,0.6549866384758539,0.04609932655611972,-0.7540258579946296,-0.01767515882045514,0.9861240983009338,0.09267415106296539,-0.1377347111701965,38.07247161865234,5.076972961425781,-21.93719482421875,2,11224.65753175,2,2,1580907508.898698,1580903939.50652,2435,0.4661743,0,0,2995.009,10,12,1580907483.189245,11234.775904,0,10.80972,97.0776
1580907521.660168,17,0,1580907286.99823,41.20781296037784,29.0754925099451,275.2123,0.1345286,-1,23.46983528137207,200,-9999,11237.45273925,0.96661376953125,0.0915985107421875,-0.1336822509765625,11237.44767325,-3.107703218717886,1.432078466317714,-0.09281543464658226,0.0007133325561881065,0.005660220980644226,-0.001175589859485626,-0.02082204818725586,-0.001067899167537689,0.00221329927444458,2,0.6550079325941903,0.04610296223274681,-0.7540070952490832,-0.01767788348995532,0.9861312508583069,0.09268222749233246,-0.137678250670433,38.30001831054688,5.061601638793945,-21.85400390625,2,11224.65753175,2,2,1580907508.898698,1580903939.50652,2435,0.4661743,0,0,2995.009,10,12,1580907483.189245,11234.775904,0,10.80972,97.0776
1580907521.669826,18,0,1580907286.99823,41.20781296037784,29.0754925099451,275.2123,0.1345286,-1,23.46983528137207,200,-9999,11237.46277925,0.9680023193359375,0.091156005859375,-0.133758544921875,11237.45771325,-3.107692484301963,1.43217614308109,-0.09280404855278887,-0.0001591192558407784,0.01015297323465347,0.00139143131673336,-0.02220982313156128,-0.001254893839359283,0.001735389232635498,2,0.6550447556818141,0.04610132790526409,-0.7539753236903456,-0.01767235334228831,0.9861457347869873,0.09267089515924454,-0.137582078576088,38.30001831054688,5.061601638793945,-21.85400390625,2,11224.65753175,2,2,1580907508.898698,1580903939.50652,2435,0.4661743,0,0,2995.009,10,12,1580907483.189245,11234.775904,0,10.80972,97.0776
1580907521.679983,19,0,1580907286.99823,41.20781296037784,29.0754925099451,275.2123,0.1345286,-1,23.46983528137207,200,-9999,11237.47282025,0.9679412841796875,0.091827392578125,-0.133544921875,11237.46775425,-3.107670240004258,1.432292201497612,-0.09276968989537505,-0.001537571661174297,0.01098254881799221,0.003631948493421078,-0.02151185274124146,-0.001663096249103546,0.001453161239624023,2,0.6550887340675073,0.04609465439275569,-0.7539379603665496,-0.01765536523425598,0.9861648678779602,0.09263668209314346,-0.1374680697917938,38.06555938720703,4.995969772338867,-22.00628662109375,2,11224.65753175,2,2,1580907508.898698,1580903939.50652,2435,0.4661743,0,0,2995.009,10,12,1580907483.189245,11234.775904,0,10.80972,97.0776
1580907521.691723,20,0,1580907286.99823,41.20781296037784,29.0754925099451,275.2123,0.1345286,-1,23.46983528137207,200,-9999,11237.48286025,0.96868896484375,0.0920867919921875,-0.133026123046875,11237.47782525,-3.107633522737377,1.432439074684332,-0.09271259879822642,-0.002860097214579582,0.01476423628628254,0.007030141539871693,-0.02082008123397827,-0.001072041690349579,0.00130850076675415,2,0.6551444956788032,0.04608389294453375,-0.753890713544259,-0.01762618604178731,0.986190140247345,0.09257983416318893,-0.1373239308595657,38.06555938720703,4.995969772338867,-22.00628662109375,2,11224.65753175,2,2,1580907508.898698,1580903939.50652,2435,0.4661743,0,0,2995.009,10,12,1580907483.189245,11234.775904,0,10.80972,97.0776
1580907521.713098,21,0,1580907286.99823,41.20781296037784,29.0754925099451,275.2123,0.1345286,-1,23.46983528137207,200,-9999,11237.49290025,0.9710540771484375,0.0914459228515625,-0.131683349609375,11237.48786525,-3.107596759405638,1.432576272821388,-0.09266497503016667,-0.002736526541411877,0.01332266815006733,0.004947816021740437,-0.02085864543914795,-0.0007193237543106079,0.001814365386962891,2,0.6551963900536618,0.04607680179471631,-0.7538466942741824,-0.01759985782666908,0.9862133860588074,0.09253241866827011,-0.1371892392635345,38.13675689697266,4.871793746948242,-21.936767578125,2,11224.65753175,2,2,1580907508.898698,1580903939.50652,2435,0.4661743,0,0,2995.009,10,12,1580907483.189245,11234.775904,0,10.80972,97.0776
1580907521.714546,22,0,1580907286.99823,41.20781296037784,29.0754925099451,275.2123,0.1345286,-1,23.46983528137207,200,-9999,11237.50294125,0.969329833984375,0.0904083251953125,-0.131256103515625,11237.49790525,-3.107540171273511,1.432715438821813,-0.0926177777645579,-0.005028176587074995,0.01292585767805576,0.005040227435529232,-0.01844066381454468,-0.0009163394570350647,0.002577662467956543,2,0.6552485600826954,0.04607635231592203,-0.7538021522876588,-0.01756624546254887,0.9862367510795593,0.09248542040586472,-0.137052595615387,38.13675689697266,4.871793746948242,-21.936767578125,2,11224.65753175,2,2,1580907508.898698,1580903939.50652,2435,0.4661743,0,0,2995.009,10,12,1580907483.189245,11234.775904,0,10.80972,97.0776
1580907521.719988,23,0,1580907286.99823,41.20781296037784,29.0754925099451,275.2123,0.1345286,-1,23.46983528137207,200,-9999,11237.51298125,0.969207763671875,0.0916900634765625,-0.1294097900390625,11237.50794525,-3.107484357723036,1.432854026794383,-0.09257285045726964,-0.004462254699319601,0.01300601847469807,0.005434375256299973,-0.01910454034805298,-0.002046376466751099,0.003143250942230225,2,0.6553004759401571,0.04607651371486425,-0.7537577940963663,-0.0175336540308372,0.9862598776817322,0.09244068711996078,-0.1369164884090424,38.24631500244141,4.877758026123047,-21.95574951171875,2,11224.65753175,2,2,1580907508.898698,1580903939.50652,2435,0.4661743,0,0,2995.009,10,12,1580907483.189245,11234.775904,0,10.80972,97.0776
1580907521.730243,24,0,1580907286.99823,41.20781296037784,29.0754925099451,275.2123,0.1345286,-1,23.46983528137207,200,-9999,11237.52305225,0.971038818359375,0.091217041015625,-0.1302490234375,11237.51798625,-3.107458694689761,1.432956578770366,-0.09256522787139804,-0.002390581648796797,0.009006215259432793,0.0008737118914723396,-0.02032470703125,-0.001657292246818542,0.004369378089904785,2,0.6553386998395797,0.04608115460356035,-0.7537244831607078,-0.01752384493618583,0.9862746000289917,0.09243309497833252,-0.1368154287338257,38.24631500244141,4.877758026123047,-21.95574951171875,2,11224.65753175,2,2,1580907508.898698,1580903939.50652,2435,0.4661743,0,0,2995.009,10,12,1580907483.189245,11234.775904,0,10.80972,97.0776
1580907521.740194,25,0,1580907286.99823,41.20781296037784,29.0754925099451,275.2123,0.1345286,-1,23.46983528137207,200,-9999,11237.53309225,0.970428466796875,0.091796875,-0.1313629150390625,11237.52802625,-3.10746033307713,1.433041150618711,-0.0925981063013106,0.001283253543078899,0.008156264200806618,-0.003820913843810558,-0.01789194345474243,-0.001003473997116089,0.005155026912689209,2,0.6553698970875197,0.0460922499759047,-0.7536963821201095,-0.01753720304542114,0.9862831830978394,0.0924658328294754,-0.1367316097021103,38.24765014648438,4.758249282836914,-21.85675048828125,2,11224.65753175,2,2,1580907508.898698,1580903939.50652,2435,0.4661743,0,0,2995.009,10,12,1580907483.189245,11234.775904,0,10.80972,97.0776
1580907521.751121,26,0,1580907286.99823,41.20781296037784,29.0754925099451,275.2123,0.1345286,-1,23.46983528137207,200,-9999,11237.54313225,0.9696502685546875,0.0927581787109375,-0.1301727294921875,11237.53806625,-3.107453238001545,1.433103015053639,-0.09262530544378614,-0.0007031988352537155,0.006157562136650085,-0.001532193273305893,-0.01872187852859497,-0.001503653824329376,0.002255499362945557,2,0.6553924566303606,0.04610426840594106,-0.7536758783201689,-0.01754488199528151,0.9862892031669617,0.09249291568994522,-0.136670246720314,38.24765014648438,4.758249282836914,-21.85675048828125,2,11224.65753175,2,2,1580907508.898698,1580903939.50652,2435,0.4661743,0,0,2995.009,10,12,1580907483.189245,11234.775904,0,10.80972,97.0776
1580907521.769297,27,0,1580907286.99823,41.20781296037784,29.0754925099451,275.2123,0.1345286,-1,23.46983528137207,200,-9999,11237.55317225,0.967071533203125,0.0906829833984375,-0.1322021484375,11237.54810725,-3.107460332208251,1.433173039632625,-0.09265213197996028,0.0003687236458063126,0.007223073393106461,-0.002375394571572542,-0.01854592561721802,0.0002853572368621826,0.004474639892578125,2,0.6554184275254247,0.04611142425110856,-0.7536525486564065,-0.01755797694781858,0.9862962961196899,0.09251962602138519,-0.1366008371114731,38.27389526367188,4.794649124145508,-21.700439453125,2,11224.65753175,2,2,1580907508.898698,1580903939.50652,2435,0.4661743,0,0,2995.009,10,12,1580907483.189245,11234.775904,0,10.80972,97.0776
1580907521.770414,28,0,1580907286.99823,41.20781296037784,29.0754925099451,275.2123,0.1345286,-1,23.46983528137207,200,-9999,11237.56321325,0.968597412109375,0.0915985107421875,-0.13165283203125,11237.55817725,-3.10747317635505,1.433270052818314,-0.09268803768968861,0.001601767726242542,0.01037013158202171,-0.003733606543391943,-0.02171462774276733,-0.001673132181167603,0.002424955368041992,2,0.6554545086796814,0.04611987317677381,-0.7536201326019417,-0.0175768490136438,0.9863061308860779,0.09255538135766983,-0.1365046948194504,38.27389526367188,4.794649124145508,-21.700439453125,2,11224.65753175,2,2,1580907508.898698,1580903939.50652,2435,0.4661743,0,0,2995.009,10,12,1580907483.189245,11234.775904,0,10.80972,97.0776
1580907521.780471,29,0,1580907286.99823,41.20781296037784,29.0754925099451,275.2123,0.1345286,-1,23.46983528137207,200,-9999,11237.57325325,0.970367431640625,0.0924072265625,-0.12994384765625,11237.56821825,-3.107483355982632,1.43335067053249,-0.09270669725976396,0.0008896635845303535,0.008734755218029022,-0.001382845919579268,-0.02151048183441162,-0.001676499843597412,0.001978695392608643,2,0.6554847085668901,0.04612285094820923,-0.7535935251872289,-0.01758866013844206,0.9863156080245972,0.09257395565509796,-0.1364249587059021,38.26791381835938,4.661970138549805,-21.52703857421875,2,11224.65753175,2,2,1580907508.898698,1580903939.50652,2435,0.4661743,0,0,2995.009,10,12,1580907483.189245,11234.775904,0,10.80972,97.0776
1580907521.790407,30,0,1580907286.99823,41.20781296037784,29.0754925099451,275.2123,0.1345286,-1,23.46983528137207,200,-9999,11237.58329325,0.9686279296875,0.0916290283203125,-0.12921142578125,11237.57825825,-3.10748882088022,1.433411729512275,-0.0926927386847482,0.0005719484761357307,0.007077204063534737,0.001914147287607193,-0.01840728521347046,-0.0003503113985061646,0.003520727157592773,2,0.6555081427758399,0.04611527071365475,-0.7535736363711147,-0.01758754359372273,0.986325204372406,0.0925600603222847,-0.1363649070262909,38.26791381835938,4.661970138549805,-21.52703857421875,2,11224.65753175,2,2,1580907508.898698,1580903939.50652,2435,0.4661743,0,0,2995.009,10,12,1580907483.189245,11234.775904,0,10.80972,97.0776
1580907521.80049,31,0,1580907286.99823,41.20781296037784,29.0754925099451,275.2123,0.1345286,-1,23.46983528137207,200,-9999,11237.59333425,0.9680633544921875,0.0924072265625,-0.1292724609375,11237.58829825,-3.107501983344615,1.4334418638023,-0.09266256538346562,0.00211652647703886,0.002731868997216225,0.003780297935009003,-0.02023005485534668,-0.001098409295082092,0.004528641700744629,2,0.6555204612910203,0.04609933704068322,-0.7535638757360282,-0.0175833005469084,0.9863319396972656,0.0925300195813179,-0.136335551738739,38.45271301269531,4.579710006713867,-21.53076171875,2,11224.65753175,2,2,1580907508.898698,1580903939.50652,2435,0.4661743,0,0,2995.009,10,12,1580907483.189245,11234.775904,0,10.80972,97.0776
1580907521.811394,32,0,1580907286.99823,41.20781296037784,29.0754925099451,275.2123,0.1345286,-1,23.46983528137207,200,-9999,11237.60337425,0.9683380126953125,0.089874267578125,-0.132080078125,11237.59833825,-3.107483585901131,1.433469819645287,-0.09263244668312832,-0.00257782731205225,0.001994440332055092,0.003454859368503094,-0.02052640914916992,-0.00045795738697052,0.004989862442016602,2,0.6555312206764967,0.04609378908715091,-0.7535552500622288,-0.01756712187717648,0.9863384962081909,0.09250002354383469,-0.1363083571195602,38.45271301269531,4.579710006713867,-21.53076171875,2,11224.65753175,2,2,1580907508.898698,1580903939.50652,2435,0.4661743,0,0,2995.009,10,12,1580907483.189245,11234.775904,0,10.80972,97.0776
1580907521.830581,33,0,1580907286.99823,41.20781296037784,29.0754925099451,275.2123,0.1345286,-1,23.46983528137207,200,-9999,11237.61344525,0.9652862548828125,0.092010498046875,-0.132965087890625,11237.60837925,-3.107442094433457,1.433540760291893,-0.09257148267869886,-0.00360892666503787,0.005949970334768295,0.007173615507781506,-0.0207553505897522,-0.002518057823181152,0.002555429935455322,2,0.6555583056017039,0.0460838294569938,-0.7535331735363515,-0.01753309789540668,0.986353874206543,0.09243932366371155,-0.1362391710281372,38.60578918457031,4.422513961791992,-21.69134521484375,2,11224.65753175,2,2,1580907508.898698,1580903939.50652,2435,0.4661743,0,0,2995.009,10,12,1580907483.189245,11234.775904,0,10.80972,97.0776
1580907521.831912,34,0,1580907286.99823,41.20781296037784,29.0754925099451,275.2123,0.1345286,-1,23.46983528137207,200,-9999,11237.62348525,0.9669952392578125,0.090057373046875,-0.1326446533203125,11237.61841925,-3.107388647926356,1.433687964357868,-0.09249657499365972,-0.004679783713072538,0.01525638625025749,0.008945416659116745,-0.02287280559539795,-0.0008868575096130371,0.001007020473480225,2,0.6556141514932546,0.04607187740613637,-0.7534863130645852,-0.01749175110406612,0.9863808155059814,0.09236473590135574,-0.1360949277877808,38.44213104248047,4.488685607910156,-21.4486083984375,2,11224.65753175,2,2,1580907508.898698,1580903939.50652,2435,0.4661743,0,0,2995.009,10,12,1580907483.189245,11234.775904,0,10.80972,97.0776
1580907521.840627,35,0,1580907286.99823,41.20781296037784,29.0754925099451,275.2123,0.1345286,-1,23.46983528137207,200,-9999,11237.63352525,0.97247314453125,0.0914459228515625,-0.1290740966796875,11237.62845925,-3.107334106122992,1.433785821479826,-0.09244268659030445,-0.005253828130662441,0.007314126938581467,0.006730084307491779,-0.02344042062759399,-0.002038493752479553,0.0003310441970825195,2,0.6556509302098589,0.04606862785257471,-0.7534552926609941,-0.01745576419356684,0.9863989949226379,0.0923110768198967,-0.1359990835189819,38.44213104248047,4.488685607910156,-21.4486083984375,2,11224.65753175,2,2,1580907508.898698,1580903939.50652,2435,0.4661743,0,0,2995.009,10,12,1580907483.189245,11234.775904,0,10.80972,97.0776
1580907521.851242,36,0,1580907286.99823,41.20781296037784,29.0754925099451,275.2123,0.1345286,-1,23.46983528137207,200,-9999,11237.64356625,0.97076416015625,0.0911865234375,-0.130889892578125,11237.63853025,-3.107310174676827,1.433864669170747,-0.09241513187798148,-0.000233503058552742,0.008722139522433281,0.002863707020878792,-0.01710605621337891,-0.00172106921672821,0.003930747509002686,2,0.6556806791674455,0.04606541928212594,-0.7534299671635899,-0.01743951589703713,0.9864122271537781,0.09228364378213882,-0.1359216421842575,38.47334289550781,4.757247924804688,-21.46148681640625,2,11224.65753175,2,2,1580907508.898698,1580903939.50652,2435,0.4661743,0,0,2995.009,10,12,1580907483.189245,11234.775904,0,10.80972,97.0776
1580907521.860852,37,0,1580907286.99823,41.20781296037784,29.0754925099451,275.2123,0.1345286,-1,23.46983528137207,200,-9999,11237.65360625,0.9710540771484375,0.089569091796875,-0.132415771484375,11237.64857025,-3.107268411690292,1.43394470405756,-0.09240410835910125,-0.00476578576490283,0.006478430703282356,0.002632917836308479,-0.01879638433456421,-0.000474095344543457,0.003103911876678467,2,0.6557101075554465,0.04607426635195288,-0.7534041889082573,-0.01742200908681954,0.9864240884780884,0.09227266907691956,-0.1358428299427032,38.47334289550781,4.757247924804688,-21.46148681640625,2,11224.65753175,2,2,1580907508.898698,1580903939.50652,2435,0.4661743,0,0,2995.009,10,12,1580907483.189245,11234.775904,0,10.80972,97.0776
1580907521.871737,38,0,1580907286.99823,41.20781296037784,29.0754925099451,275.2123,0.1345286,-1,23.46983528137207,200,-9999,11237.66364625,0.96942138671875,0.091552734375,-0.1320037841796875,11237.65861125,-3.107256034068786,1.434063756638423,-0.09241587243446812,-0.0009108595550060272,0.01277654059231281,-0.0004574144259095192,-0.01722460985183716,-0.003018796443939209,0.00149071216583252,2,0.6557544158005155,0.04608171242634229,-0.753365098044304,-0.01742395565712745,0.9864391088485718,0.09228438138961792,-0.1357252448797226,38.53060913085938,4.52336311340332,-21.37066650390625,2,11224.65753175,2,2,1580907508.898698,1580903939.50652,2435,0.4661743,0,0,2995.009,10,12,1580907483.189245,11234.775904,0,10.80972,97.0776
1580907521.895186,39,0,1580907286.99823,41.20781296037784,29.0754925099451,275.2123,0.1345286,-1,23.46983528137207,200,-9999,11237.67368625,0.97247314453125,0.092742919921875,-0.1275787353515625,11237.66865125,-3.107261243489284,1.434136649232246,-0.09243216838393846,-0.000940411351621151,0.008609073236584663,-0.003398617263883352,-0.01991856098175049,-0.001387119293212891,0.0003350973129272461,2,0.6557816355897294,0.04608549975801716,-0.7533410305098998,-0.01743294469070228,0.9864476323127747,0.09230060875415802,-0.1356531530618668,38.53060913085938,4.52336311340332,-21.37066650390625,2,11224.65753175,2,2,1580907508.898698,1580903939.50652,2435,0.4661743,0,0,2995.009,10,12,1580907483.189245,11234.775904,0,10.80972,97.0776
1580907521.896608,40,0,1580907286.99823,41.20781296037784,29.0754925099451,275.2123,0.1345286,-1,23.46983528137207,200,-9999,11237.68372725,0.97119140625,0.091583251953125,-0.12872314453125,11237.67869125,-3.107256807574376,1.434122805961497,-0.09244296524591257,-0.00293698301538825,-0.003217758610844612,-0.002228423953056335,-0.01752001047134399,-0.0002534911036491394,0.00434643030166626,2,0.6557760891272759,0.04609113548512047,-0.7533454226595616,-0.01743450621600008,0.9864446520805359,0.09231135994195938,-0.1356666535139084,38.65615844726562,4.721502304077148,-21.38446044921875,2,11224.65753175,2,2,1580907508.898698,1580903939.50652,2435,0.4661743,0,0,2995.009,10,12,1580907483.189245,11234.775904,0,10.80972,97.0776
1580907521.900967,41,0,1580907286.99823,41.20781296037784,29.0754925099451,275.2123,0.1345286,-1,23.46983528137207,200,-9999,11237.69379725,0.968353271484375,0.091949462890625,-0.12957763671875,11237.68873225,-3.107260299020033,1.434103244253514,-0.09245908214075184,0.0001449286937713623,-0.0005913246423006058,-0.002745709381997585,-0.01614248752593994,-0.0005442202091217041,0.006013691425323486,2,0.6557684474568006,0.04609622453786897,-0.7533516921826429,-0.01744065845803579,0.9864406585693359,0.09232740104198456,-0.1356857568025589,38.65615844726562,4.721502304077148,-21.38446044921875,2,11224.65753175,2,2,1580907508.898698,1580903939.50652,2435,0.4661743,0,0,2995.009,10,12,1580907483.189245,11234.775904,0,10.80972,97.0776
1580907521.911099,42,0,1580907286.99823,41.20781296037784,29.0754925099451,275.2123,0.1345286,-1,23.46983528137207,200,-9999,11237.70383825,0.9698638916015625,0.0928955078125,-0.1287994384765625,11237.69877225,-3.107266044750675,1.434064067681329,-0.09245319521785295,3.573950380086899e-05,-0.003469401970505714,4.102196544408798e-05,-0.02118849754333496,-0.001026645302772522,0.002909004688262939,2,0.6557539526874571,0.04609246741242391,-0.7533645198528225,-0.01743998913124564,0.9864358305931091,0.09232154488563538,-0.1357244700193405,38.56935882568359,4.716333389282227,-21.3697509765625,2,11224.65753175,2,2,1580907508.898698,1580903939.50652,2435,0.4661743,0,0,2995.009,10,12,1580907483.189245,11234.775904,0,10.80972,97.0776
1580907521.920976,43,0,1580907286.99823,41.20781296037784,29.0754925099451,275.2123,0.1345286,-1,23.46983528137207,200,-9999,11237.71387825,0.9688568115234375,0.09173583984375,-0.13140869140625,11237.70881225,-3.107280701936068,1.434030173526017,-0.09243104571736699,0.00159004982560873,-0.004017597064375877,0.002533343620598316,-0.01944643259048462,0.0005213618278503418,0.004987597465515137,2,0.6557420000961822,0.04607962578600369,-0.7533758000886577,-0.01743745097706167,0.9864332675933838,0.09229949116706848,-0.1357581913471222,38.56935882568359,4.716333389282227,-21.3697509765625,2,11224.65753175,2,2,1580907508.898698,1580903939.50652,2435,0.4661743,0,0,2995.009,10,12,1580907483.189245,11234.775904,0,10.80972,97.0776
1580907521.931229,44,0,1580907286.99823,41.20781296037784,29.0754925099451,275.2123,0.1345286,-1,23.46983528137207,200,-9999,11237.72391825,0.9687042236328125,0.0914459228515625,-0.1313323974609375,11237.71885225,-3.10728254775229,1.434008648826162,-0.09240878584152344,0.001453163102269173,-0.002336876466870308,0.002520294860005379,-0.01976591348648071,-0.0004787743091583252,0.002628743648529053,2,0.6557344199042856,0.0460708340690892,-0.7533830440863827,-0.01743034363332835,0.9864323139190674,0.09227732568979263,-0.1357796937227249,38.62814331054688,4.600244522094727,-21.28387451171875,2,11224.65753175,2,2,1580907508.898698,1580903939.50652,2435,0.4661743,0,0,2995.009,10,12,1580907483.189245,11234.775904,0,10.80972,97.0776
1580907521.953282,45,0,1580907286.99823,41.20781296037784,29.0754925099451,275.2123,0.1345286,-1,23.46983528137207,200,-9999,11237.73395925,0.9683990478515625,0.0892333984375,-0.133209228515625,11237.72892325,-3.107251301556021,1.434045367772079,-0.09237245900154299,-0.002243743743747473,0.00449778139591217,0.004515222273766994,-0.02056771516799927,-0.0005950927734375,0.001875579357147217,2,0.6557483225453923,0.0460670931039616,-0.7533716283530869,-0.01740749338522665,0.9864405393600464,0.09224115312099457,-0.1357439160346985,38.62814331054688,4.600244522094727,-21.28387451171875,2,11224.65753175,2,2,1580907508.898698,1580903939.50652,2435,0.4661743,0,0,2995.009,10,12,1580907483.189245,11234.775904,0,10.80972,97.0776
1580907521.954585,46,0,1580907286.99823,41.20781296037784,29.0754925099451,275.2123,0.1345286,-1,23.46983528137207,200,-9999,11237.74399925,0.9713592529296875,0.0906524658203125,-0.1289520263671875,11237.73896325,-3.107222131022708,1.434093876905581,-0.0923384690131191,-0.001888478174805641,0.004579540342092514,0.003505884669721127,-0.02088254690170288,-0.002743139863014221,0.0003327131271362305,2,0.655766656327853,0.04606345021868709,-0.7533564095119071,-0.01738645505953113,0.9864502549171448,0.09220730513334274,-0.1356965005397797,38.51751708984375,4.574075698852539,-21.20574951171875,2,11224.65753175,2,2,1580907508.898698,1580903939.50652,2435,0.4661743,0,0,2995.009,10,12,1580907483.189245,11234.775904,0,10.80972,97.0776
1580907521.96122,47,0,1580907286.99823,41.20781296037784,29.0754925099451,275.2123,0.1345286,-1,23.46983528137207,200,-9999,11237.75403925,0.9706268310546875,0.0907135009765625,-0.1298370361328125,11237.74900425,-3.1071892091739,1.434129727110115,-0.09232245766371756,-0.002219139132648706,0.003682440146803856,0.001068155281245708,-0.01841700077056885,-0.00223887711763382,0.00293731689453125,2,0.655779744873135,0.04606791123252816,-0.7533451820801472,-0.01736961610160238,0.9864566326141357,0.09219136089086533,-0.1356613487005234,38.51751708984375,4.574075698852539,-21.20574951171875,2,11224.65753175,2,2,1580907508.898698,1580903939.50652,2435,0.4661743,0,0,2995.009,10,12,1580907483.189245,11234.775904,0,10.80972,97.0776
1580907521.971265,48,0,1580907286.99823,41.20781296037784,29.0754925099451,275.2123,0.1345286,-1,23.46983528137207,200,-9999,11237.76407925,0.972930908203125,0.092315673828125,-0.1282958984375,11237.75904425,-3.10715788099222,1.434123516694976,-0.09230790498742927,-0.002373069524765015,-0.0002121664583683014,0.00117148645222187,-0.0185394287109375,-0.001507163047790527,0.004271328449249268,2,0.6557769951664112,0.04607276395874988,-0.7533477174119447,-0.01735288757691217,0.9864572286605835,0.09217686951160431,-0.1356676667928696,38.74546051025391,4.533302307128906,-21.40594482421875,2,11224.65753175,2,2,1580907508.898698,1580903939.50652,2435,0.4661743,0,0,2995.009,10,12,1580907483.189245,11234.775904,0,10.80972,97.0776
1580907521.98131,49,0,1580907286.99823,41.20781296037784,29.0754925099451,275.2123,0.1345286,-1,23.46983528137207,200,-9999,11237.77415025,0.971893310546875,0.0901336669921875,-0.1283111572265625,11237.76908425,-3.107126082136097,1.434061632610951,-0.09229584321025724,-0.004062632564455271,-0.005399597808718681,0.002040548250079155,-0.01718944311141968,-0.0005185827612876892,0.003920435905456543,2,0.655753220726546,0.04607918844167663,-0.7533683090268418,-0.01733553138979439,0.9864497780799866,0.09216485917568207,-0.1357288509607315,38.74546051025391,4.533302307128906,-21.40594482421875,2,11224.65753175,2,2,1580907508.898698,1580903939.50652,2435,0.4661743,0,0,2995.009,10,12,1580907483.189245,11234.775904,0,10.80972,97.0776
1580907521.991854,50,0,1580907286.99823,41.20781296037784,29.0754925099451,275.2123,0.1345286,-1,23.46983528137207,200,-9999,11237.78419125,0.9687652587890625,0.0906982421875,-0.131256103515625,11237.77912525,-3.107109173869968,1.433990852055375,-0.09231900306282796,-0.002917473204433918,-0.00635114498436451,-0.001625027041882277,-0.01658248901367188,-0.00164031982421875,0.005699396133422852,2,0.6557256606126545,0.04609405885991908,-0.7533914962010322,-0.01733512985510031,0.9864381551742554,0.09218792617321014,-0.1357983946800232,38.71528625488281,4.496620178222656,-21.11956787109375,2,11224.65753175,2,2,1580907508.898698,1580903939.50652,2435,0.4661743,0,0,2995.009,10,12,1580907483.189245,11234.775904,0,10.80972,97.0776
1580907522.017766,51,0,1580907286.99823,41.20781296037784,29.0754925099451,275.2123,0.1345286,-1,23.46983528137207,200,-9999,11237.79423125,0.9654998779296875,0.0910186767578125,-0.1324920654296875,11237.78916525,-3.107105236956214,1.433980738452292,-0.0923645700045527,-0.001433186233043671,0.0001838542520999908,-0.00464861374348402,-0.01949137449264526,-0.002265654504299164,0.003038465976715088,2,0.6557207739416108,0.04611257829718753,-0.7533943033258799,-0.01734838135418271,0.9864326119422913,0.09223329275846481,-0.1358077973127365,38.71528625488281,4.496620178222656,-21.11956787109375,2,11224.65753175,2,2,1580907508.898698,1580903939.50652,2435,0.4661743,0,0,2995.009,10,12,1580907483.189245,11234.775904,0,10.80972,97.0776
1580907522.019124,52,0,1580907286.99823,41.20781296037784,29.0754925099451,275.2123,0.1345286,-1,23.46983528137207,200,-9999,11237.80427125,0.9680328369140625,0.0919036865234375,-0.13055419921875,11237.79920525,-3.10710335875352,1.43401091507589,-0.09239905590296722,-0.0001815007999539375,0.003436906263232231,-0.004237421322613955,-0.02306294441223145,-0.001582920551300049,0.00119251012802124,2,0.6557313467577482,0.04612590561672252,-0.7533840864262636,-0.01735969168475494,0.9864336848258972,0.09226763248443604,-0.1357776075601578,38.77960205078125,4.468784332275391,-21.0513916015625,2,11224.65753175,2,2,1580907508.898698,1580903939.50652,2435,0.4661743,0,0,2995.009,10,12,1580907483.189245,11234.775904,0,10.80972,97.0776
1580907522.021297,53,0,1580907286.99823,41.20781296037784,29.0754925099451,275.2123,0.1345286,-1,23.46983528137207,200,-9999,11237.81431125,0.9706878662109375,0.0920562744140625,-0.1287078857421875,11237.80927625,-3.107106439523772,1.434028934492237,-0.09241390009584619,0.0005025919526815414,0.002845870330929756,-0.001290286891162395,-0.0224231481552124,-0.000758536159992218,0.00190657377243042,2,0.6557378963992876,0.04613032076378212,-0.7533777855840499,-0.01736615934371447,0.9864345192909241,0.09228241443634033,-0.1357596069574356,38.77960205078125,4.468784332275391,-21.0513916015625,2,11224.65753175,2,2,1580907508.898698,1580903939.50652,2435,0.4661743,0,0,2995.009,10,12,1580907483.189245,11234.775904,0,10.80972,97.0776
1580907522.031539,54,0,1580907286.99823,41.20781296037784,29.0754925099451,275.2123,0.1345286,-1,23.46983528137207,200,-9999,11237.82435225,0.970489501953125,0.09100341796875,-0.1294403076171875,11237.81931625,-3.107130268764141,1.434008028386102,-0.09244018881639571,0.001663197763264179,-0.001969391480088234,-0.004067164845764637,-0.01899999380111694,-0.0005406290292739868,0.004170119762420654,2,0.6557299974356441,0.0461325792188438,-0.7533841842606099,-0.01738328342384311,0.9864293336868286,0.09230858832597733,-0.1357799172401428,38.79785919189453,4.255243301391602,-21.167236328125,2,11224.65753175,2,2,1580907508.898698,1580903939.50652,2435,0.4661743,0,0,2995.009,10,12,1580907483.189245,11234.775904,0,10.80972,97.0776
1580907522.041503,55,0,1580907286.99823,41.20781296037784,29.0754925099451,275.2123,0.1345286,-1,23.46983528137207,200,-9999,11237.83439225,0.970184326171875,0.0919342041015625,-0.1291351318359375,11237.82935725,-3.107159834980955,1.433948298046356,-0.09244769409052848,0.002159498631954193,-0.005744146183133125,-0.00162041699513793,-0.01844173669815063,-0.001326322555541992,0.004549622535705566,2,0.6557080116506575,0.04612622915623215,-0.7534034975515453,-0.01739550225620698,0.9864206314086914,0.09231606870889664,-0.1358387470245361,38.79785919189453,4.255243301391602,-21.167236328125,2,11224.65753175,2,2,1580907508.898698,1580903939.50652,2435,0.4661743,0,0,2995.009,10,12,1580907483.189245,11234.775904,0,10.80972,97.0776
1580907522.069931,56,0,1580907286.99823,41.20781296037784,29.0754925099451,275.2123,0.1345286,-1,23.46983528137207,200,-9999,11237.84443225,0.9698638916015625,0.0921630859375,-0.129425048828125,11237.83939725,-3.107180363917621,1.433864327437615,-0.09243273181588711,0.001413812860846519,-0.007765752263367176,0.001785766333341599,-0.01911842823028564,-0.001006215810775757,0.003946065902709961,2,0.6556771792964387,0.04611460012086169,-0.7534309836341245,-0.01739638835431345,0.9864105582237244,0.09230116754770279,-0.1359217613935471,38.72724151611328,4.19361686706543,-20.96661376953125,2,11224.65753175,2,2,1580907508.898698,1580903939.50652,2435,0.4661743,0,0,2995.009,10,12,1580907483.189245,11234.775904,0,10.80972,97.0776
1580907522.071509,57,0,1580907286.99823,41.20781296037784,29.0754925099451,275.2123,0.1345286,-1,23.46983528137207,200,-9999,11237.85450325,0.9674835205078125,0.091064453125,-0.132965087890625,11237.84943725,-3.107216168120921,1.433815349446232,-0.09242368842343325,0.004495147615671158,-0.004534419625997543,0.0001028403639793396,-0.01903635263442993,-0.0003563165664672852,0.004727005958557129,2,0.6556597497599805,0.04609988627174452,-0.7534468317902411,-0.01740577750318167,0.9864047169685364,0.09229215979576111,-0.1359701901674271,38.72724151611328,4.19361686706543,-20.96661376953125,2,11224.65753175,2,2,1580907508.898698,1580903939.50652,2435,0.4661743,0,0,2995.009,10,12,1580907483.189245,11234.775904,0,10.80972,97.0776
1580907522.072589,58,0,1580907286.99823,41.20781296037784,29.0754925099451,275.2123,0.1345286,-1,23.46983528137207,200,-9999,11237.86454325,0.965911865234375,0.091064453125,-0.1340179443359375,11237.85947725,-3.107260190538554,1.433841068518573,-0.09241728639678878,0.005454684607684612,0.00378902442753315,-7.425993680953979e-05,-0.02084112167358398,-0.001204416155815125,0.001344799995422363,2,0.6556705840609246,0.04608282328913268,-0.7534382107470146,-0.01742084208097672,0.9864089488983154,0.09228578954935074,-0.1359449177980423,38.79234313964844,4.322484970092773,-21.21331787109375,2,11224.65753175,2,2,1580907508.898698,1580903939.50652,2435,0.4661743,0,0,2995.009,10,12,1580907483.189245,11234.775904,0,10.80972,97.0776
1580907522.081799,59,0,1580907286.99823,41.20781296037784,29.0754925099451,275.2123,0.1345286,-1,23.46983528137207,200,-9999,11237.87458425,0.9671478271484375,0.0907440185546875,-0.1330108642578125,11237.86951825,-3.107305499822526,1.43395401783856,-0.0924290073811725,0.005316968075931072,0.01237181760370731,-0.001304314937442541,-0.0229610800743103,-0.00153658539056778,-0.0006136298179626465,2,0.6557139384783146,0.04607139094654196,-0.7534004163799909,-0.01744438132754567,0.9864229559898376,0.09229745715856552,-0.1358333230018616,38.79234313964844,4.322484970092773,-21.21331787109375,2,11224.65753175,2,2,1580907508.898698,1580903939.50652,2435,0.4661743,0,0,2995.009,10,12,1580907483.189245,11234.775904,0,10.80972,97.0776
1580907522.091794,60,0,1580907286.99823,41.20781296037784,29.0754925099451,275.2123,0.1345286,-1,23.46983528137207,200,-9999,11237.88462425,0.9714508056640625,0.0898895263671875,-0.13128662109375,11237.87955825,-3.107336389291098,1.434129615288909,-0.09247938976098966,0.00223249476402998,0.01811199449002743,-0.005035137291997671,-0.0229041576385498,-0.001678436994552612,-4.035234451293945e-05,2,0.6557796999952523,0.04607868314158621,-0.7533420599427764,-0.01747660476818295,0.9864422678947449,0.09234762191772461,-0.1356594860553741,38.67538452148438,4.395622253417969,-20.982421875,2,11224.65753175,2,2,1580907508.898698,1580903939.50652,2435,0.4661743,0,0,2995.009,10,12,1580907483.189245,11234.775904,0,10.80972,97.0776
1580907522.101823,61,0,1580907286.99823,41.20781296037784,29.0754925099451,275.2123,0.1345286,-1,23.46983528137207,200,-9999,11237.89466425,0.97393798828125,0.09033203125,-0.1288299560546875,11237.88962925,-3.107364740533921,1.434297093341153,-0.09257268437606922,0.001863200217485428,0.01912885159254074,-0.01050695963203907,-0.01889008283615112,-0.002656608819961548,0.000998377799987793,2,0.6558414149047873,0.04610301302379482,-0.7532858149151309,-0.017521788784418,0.9864564538002014,0.09244052320718765,-0.1354930996894836,38.67538452148438,4.395622253417969,-20.982421875,2,11224.65753175,2,2,1580907508.898698,1580903939.50652,2435,0.4661743,0,0,2995.009,10,12,1580907483.189245,11234.775904,0,10.80972,97.0776
1580907522.133579,62,0,1580907286.99823,41.20781296037784,29.0754925099451,275.2123,0.1345286,-1,23.46983528137207,200,-9999,11237.90470425,0.974334716796875,0.0901031494140625,-0.1296539306640625,11237.89966925,-3.107393907537294,1.434415593258265,-0.09267269903736422,0.002547632902860641,0.01354340463876724,-0.009433971717953682,-0.01572322845458984,-0.002588614821434021,0.003687500953674316,2,0.655884552177914,0.04613002559759206,-0.7532455291765054,-0.01756836303230044,0.9864633679389954,0.09254010766744614,-0.1353749483823776,38.63955688476562,4.231563568115234,-21.12713623046875,2,11224.65753175,2,2,1580907508.898698,1580903939.50652,2435,0.4661743,0,0,2995.009,10,12,1580907483.189245,11234.775904,0,10.80972,97.0776
1580907522.13519,63,0,1580907286.99823,41.20781296037784,29.0754925099451,275.2123,0.1345286,-1,23.46983528137207,200,-9999,11237.91474525,0.9718017578125,0.090667724609375,-0.1292572021484375,11237.90970925,-3.107409314012246,1.434508678939013,-0.09278574071044639,0.0002019805833697319,0.01059085875749588,-0.01082341186702251,-0.01455044746398926,-0.002533644437789917,0.003761827945709229,2,0.6559175159341878,0.04616666862826337,-0.7532135292399742,-0.01761345257325363,0.9864655733108521,0.09265266358852386,-0.1352816969156265,38.63955688476562,4.231563568115234,-21.12713623046875,2,11224.65753175,2,2,1580907508.898698,1580903939.50652,2435,0.4661743,0,0,2995.009,10,12,1580907483.189245,11234.775904,0,10.80972,97.0776
1580907522.13636,64,0,1580907286.99823,41.20781296037784,29.0754925099451,275.2123,0.1345286,-1,23.46983528137207,200,-9999,11237.92478525,0.9697265625,0.0908203125,-0.129608154296875,11237.91975025,-3.10739868930261,1.434589439595622,-0.09290102876774917,-0.00357384979724884,0.007624363526701927,-0.01157069485634565,-0.01668685674667358,-0.002648726105690002,0.003131270408630371,2,0.655945186930194,0.04621279824457367,-0.7531857403007043,-0.01764919814552339,0.9864658713340759,0.09276745468378067,-0.1352005749940872,38.70596313476562,4.208635330200195,-21.26690673828125,2,11224.65753175,2,2,1580907508.898698,1580903939.50652,2435,0.4661743,0,0,2995.009,10,12,1580907483.189245,11234.775904,0,10.80972,97.0776
1580907522.14198,65,0,1580907286.99823,41.20781296037784,29.0754925099451,275.2123,0.1345286,-1,23.46983528137207,200,-9999,11237.93485625,0.971923828125,0.09197998046875,-0.1281890869140625,11237.92979025,-3.107399391023846,1.43464349538355,-0.09300191933391612,-0.001348190009593964,0.004235079512000084,-0.009129182435572147,-0.01908028125762939,-0.002139106392860413,0.003214120864868164,2,0.6559633690042063,0.04625003236052117,-0.7531668261912647,-0.01768386043297264,0.9864639639854431,0.09286791086196899,-0.1351459920406342,38.70596313476562,4.208635330200195,-21.26690673828125,2,11224.65753175,2,2,1580907508.898698,1580903939.50652,2435,0.4661743,0,0,2995.009,10,12,1580907483.189245,11234.775904,0,10.80972,97.0776
1580907522.152561,66,0,1580907286.99823,41.20781296037784,29.0754925099451,275.2123,0.1345286,-1,23.46983528137207,200,-9999,11237.94489625,0.9715118408203125,0.0920562744140625,-0.1284637451171875,11237.93983025,-3.107419668633442,1.434650618456201,-0.09310771021032443,0.0013525215908885,0.002149824053049088,-0.01166344620287418,-0.01772862672805786,-0.001710653305053711,0.004243314266204834,2,0.6559642236972317,0.04628310219693896,-0.7531630394139038,-0.01772642317057972,0.9864551424980164,0.09297323971986771,-0.1351376175880432,38.80380249023438,4.26568603515625,-21.0166015625,2,11224.65753175,2,2,1580907508.898698,1580903939.50652,2435,0.4661743,0,0,2995.009,10,12,1580907483.189245,11234.775904,0,10.80972,97.0776
1580907522.16211,67,0,1580907286.99823,41.20781296037784,29.0754925099451,275.2123,0.1345286,-1,23.46983528137207,200,-9999,11237.95493625,0.9695892333984375,0.092254638671875,-0.1297149658203125,11237.94987025,-3.107413013011098,1.434592332432088,-0.09318741595343041,-0.003255127929151058,-0.006690376438200474,-0.008322097361087799,-0.01766753196716309,-0.001073077321052551,0.004162728786468506,2,0.6559403895133382,0.04631577609499455,-0.7531812374587438,-0.01774875899795898,0.9864398837089539,0.09305260330438614,-0.1351941078901291,38.80380249023438,4.26568603515625,-21.0166015625,2,11224.65753175,2,2,1580907508.898698,1580903939.50652,2435,0.4661743,0,0,2995.009,10,12,1580907483.189245,11234.775904,0,10.80972,97.0776
1580907522.192513,68,0,1580907286.99823,41.20781296037784,29.0754925099451,275.2123,0.1345286,-1,23.46983528137207,200,-9999,11237.96497725,0.96624755859375,0.0925750732421875,-0.132293701171875,11237.95991125,-3.107406661124581,1.434562455559871,-0.09323791404063973,-0.001803971827030182,-0.003029327839612961,-0.004994743503630161,-0.0184522271156311,-0.001230314373970032,0.004069507122039795,2,0.6559278961475649,0.04633711477378585,-0.7531904404907219,-0.01776227091125217,0.9864311218261719,0.09310287982225418,-0.135222926735878,38.7744140625,4.364412307739258,-20.98541259765625,2,11224.65753175,2,2,1580907508.898698,1580903939.50652,2435,0.4661743,0,0,2995.009,10,12,1580907483.189245,11234.775904,0,10.80972,97.0776
1580907522.193913,69,0,1580907286.99823,41.20781296037784,29.0754925099451,275.2123,0.1345286,-1,23.46983528137207,200,-9999,11237.97501725,0.96697998046875,0.09326171875,-0.131072998046875,11237.96998225,-3.107395179417107,1.434575453496984,-0.09325480839431004,-0.001671724952757359,0.0009113587439060211,-0.001023336313664913,-0.02225184440612793,-0.0009114742279052734,0.0006539225578308105,2,0.6559321470377829,0.04634712027614003,-0.7531862411113898,-0.01776378563313274,0.9864315390586853,0.09311970323324203,-0.135209932923317,38.7744140625,4.364412307739258,-20.98541259765625,2,11224.65753175,2,2,1580907508.898698,1580903939.50652,2435,0.4661743,0,0,2995.009,10,12,1580907483.189245,11234.775904,0,10.80972,97.0776
1580907522.195032,70,0,1580907286.99823,41.20781296037784,29.0754925099451,275.2123,0.1345286,-1,23.46983528137207,200,-9999,11237.98505725,0.9664154052734375,0.0924530029296875,-0.1321563720703125,11237.98002225,-3.107382625564076,1.43463132537172,-0.09327247355891329,-0.001163594424724579,0.005157236009836197,-0.002125085797160864,-0.02276128530502319,-0.0001661777496337891,0.001742720603942871,2,0.6559525176900428,0.04635738360961091,-0.7531677365672922,-0.01776616378934731,0.9864373803138733,0.09313729405403137,-0.1351545751094818,38.93170928955078,4.294958114624023,-21.20294189453125,2,11224.65753175,2,2,1580907508.898698,1580903939.50652,2435,0.4661743,0,0,2995.009,10,12,1580907483.189245,11234.775904,0,10.80972,97.0776
1580907522.202382,71,0,1580907286.99823,41.20781296037784,29.0754925099451,275.2123,0.1345286,-1,23.46983528137207,200,-9999,11237.99509825,0.9675445556640625,0.091094970703125,-0.1313018798828125,11237.99006225,-3.107369585055717,1.434725904823518,-0.093305208425449,-0.001611725427210331,0.008233390748500824,-0.003072987776249647,-0.02261853218078613,-0.0007939338684082031,0.0007486939430236816,2,0.6559871136936353,0.04637313136076616,-0.7531365280989181,-0.01777419468130308,0.9864472150802612,0.09316988289356232,-0.1350608766078949,38.93170928955078,4.294958114624023,-21.20294189453125,2,11224.65753175,2,2,1580907508.898698,1580903939.50652,2435,0.4661743,0,0,2995.009,10,12,1580907483.189245,11234.775904,0,10.80972,97.0776
1580907522.212321,72,0,1580907286.99823,41.20781296037784,29.0754925099451,275.2123,0.1345286,-1,23.46983528137207,200,-9999,11238.00513825,0.9718475341796875,0.09100341796875,-0.1293182373046875,11238.00010225,-3.1073629162477,1.434849427934192,-0.09337241132839809,-0.001435690559446812,0.01292108558118343,-0.006630971096456051,-0.0221560001373291,-0.002081751823425293,0.0007323026657104492,2,0.6560320113233076,0.0463994904786716,-0.7530952381229093,-0.01779663411623984,0.9864576458930969,0.09323679655790329,-0.1349381804466248,38.80023193359375,4.50501823425293,-20.98394775390625,2,11224.65753175,2,2,1580907508.898698,1580903939.50652,2435,0.4661743,0,0,2995.009,10,12,1580907483.189245,11234.775904,0,10.80972,97.0776
1580907522.222309,73,0,1580907286.99823,41.20781296037784,29.0754925099451,275.2123,0.1345286,-1,23.46983528137207,200,-9999,11238.01520925,0.974884033203125,0.091400146484375,-0.127960205078125,11238.01014325,-3.107348652578004,1.434954020658927,-0.09346854522377464,-0.002311845310032368,0.009985692799091339,-0.009296543896198273,-0.01906371116638184,-0.002452388405799866,0.002611458301544189,2,0.656068963764225,0.04643938639441662,-0.7530599836736571,-0.0178252766729908,0.9864629507064819,0.09333250671625137,-0.1348337978124619,38.94021606445312,4.671661376953125,-21.16961669921875,2,11224.65753175,2,2,1580907508.898698,1580903939.50652,2435,0.4661743,0,0,2995.009,10,12,1580907483.189245,11234.775904,0,10.80972,97.0776
1580907522.253025,74,0,1580907286.99823,41.20781296037784,29.0754925099451,275.2123,0.1345286,-1,23.46983528137207,200,-9999,11238.02524925,0.97320556640625,0.091522216796875,-0.1291046142578125,11238.02018325,-3.107317521860502,1.435045225500848,-0.09359747053415593,-0.005611235275864601,0.008300710469484329,-0.01321352086961269,-0.01466947793960571,-0.002733685076236725,0.004136979579925537,2,0.6560997743826859,0.04649725933578544,-0.7530287125646505,-0.01785805202968635,0.9864632487297058,0.09346087276935577,-0.1347421854734421,38.94021606445312,4.671661376953125,-21.16961669921875,2,11224.65753175,2,2,1580907508.898698,1580903939.50652,2435,0.4661743,0,0,2995.009,10,12,1580907483.189245,11234.775904,0,10.80972,97.0776
1580907522.254598,75,0,1580907286.99823,41.20781296037784,29.0754925099451,275.2123,0.1345286,-1,23.46983528137207,200,-9999,11238.03528925,0.97235107421875,0.09307861328125,-0.1267852783203125,11238.03022325,-3.107288525065061,1.435083703727237,-0.09371236656282128,-0.004126474726945162,0.002561338245868683,-0.01109717600047588,-0.01521331071853638,-0.002253323793411255,0.003776907920837402,2,0.6561110785895392,0.04654962687787799,-0.7530149633809248,-0.01788579144635617,0.9864577651023865,0.09357526153326035,-0.1347027719020844,38.75193786621094,4.552940368652344,-21.1561279296875,2,11224.65753175,2,2,1580907508.898698,1580903939.50652,2435,0.4661743,0,0,2995.009,10,12,1580907483.189245,11234.775904,0,10.80972,97.0776
1580907522.255813,76,0,1580907286.99823,41.20781296037784,29.0754925099451,275.2123,0.1345286,-1,23.46983528137207,200,-9999,11238.04532925,0.970123291015625,0.0919952392578125,-0.1286468505859375,11238.04026425,-3.107257397269162,1.435077353320941,-0.09381159310094506,-0.005100659094750881,-0.002692012116312981,-0.008811118081212044,-0.01677495241165161,-0.001375816762447357,0.004499077796936035,2,0.6561057919247961,0.04659720267920236,-0.7530161567718334,-0.01790653353301148,0.9864477515220642,0.09367405623197556,-0.1347077786922455,38.75193786621094,4.552940368652344,-21.1561279296875,2,11224.65753175,2,2,1580907508.898698,1580903939.50652,2435,0.4661743,0,0,2995.009,10,12,1580907483.189245,11234.775904,0,10.80972,97.0776
1580907522.262995,77,0,1580907286.99823,41.20781296037784,29.0754925099451,275.2123,0.1345286,-1,23.46983528137207,200,-9999,11238.05537025,0.9678192138671875,0.09228515625,-0.1295318603515625,11238.05033425,-3.107223088518092,1.435100907257646,-0.09391100952221315,-0.005810220260173082,0.002246255055069923,-0.01001157891005278,-0.0177607536315918,-0.001307249069213867,0.005038976669311523,2,0.6561116904710931,0.04664562396932227,-0.7530074514787567,-0.01792684689697029,0.9864415526390076,0.09377302974462509,-0.1346832662820816,38.96843719482422,4.390712738037109,-21.46343994140625,2,11224.65753175,2,2,1580907508.898698,1580903939.50652,2435,0.4661743,0,0,2995.009,10,12,1580907483.189245,11234.775904,0,10.80972,97.0776
1580907522.272552,78,0,1580907286.99823,41.20781296037784,29.0754925099451,275.2123,0.1345286,-1,23.46983528137207,200,-9999,11238.06541025,0.9714202880859375,0.09423828125,-0.126922607421875,11238.06037525,-3.107161187618097,1.435087988486845,-0.09397676342412871,-0.007482951506972313,-0.002099491655826569,-0.005420022644102573,-0.02181178331375122,-0.002456262707710266,0.001816093921661377,2,0.6561039365437372,0.04669076924325966,-0.7530115316161001,-0.01792484378698836,0.9864338040351868,0.09383849799633026,-0.1346951872110367,38.96843719482422,4.390712738037109,-21.46343994140625,2,11224.65753175,2,2,1580907508.898698,1580903939.50652,2435,0.4661743,0,0,2995.009,10,12,1580907483.189245,11234.775904,0,10.80972,97.0776
1580907522.282753,79,0,1580907286.99823,41.20781296037784,29.0754925099451,275.2123,0.1345286,-1,23.46983528137207,200,-9999,11238.07545025,0.970550537109375,0.093414306640625,-0.127166748046875,11238.07041525,-3.107094973712899,1.434996494600839,-0.09401954050055922,-0.006353286094963551,-0.01054704468697309,-0.002946678549051285,-0.01843863725662231,3.442168235778809e-06,0.005338966846466064,2,0.6560670128687524,0.04672939161307659,-0.7530414777346622,-0.01791184742296173,0.9864173531532288,0.09388108551502228,-0.1347848773002625,38.67028045654297,4.582818984985352,-21.489013671875,2,11224.65753175,2,2,1580907508.898698,1580903939.50652,2435,0.4661743,0,0,2995.009,10,12,1580907483.189245,11234.775904,0,10.80972,97.0776
1580907522.315444,80,0,1580907286.99823,41.20781296037784,29.0754925099451,275.2123,0.1345286,-1,23.46983528137207,200,-9999,11238.08549125,0.9676513671875,0.093994140625,-0.1285247802734375,11238.08045525,-3.107020321504361,1.434905759713691,-0.09404790558398128,-0.007334128022193909,-0.009991508908569813,-0.001780746970325708,-0.01779806613922119,-0.0006504654884338379,0.005230188369750977,2,0.6560304711317545,0.04676535843762624,-0.7530717241561364,-0.01789092677739559,0.9864026308059692,0.09390932321548462,-0.1348740458488464,38.67028045654297,4.582818984985352,-21.489013671875,2,11224.65753175,2,2,1580907508.898698,1580903939.50652,2435,0.4661743,0,0,2995.009,10,12,1580907483.189245,11234.775904,0,10.80972,97.0776
1580907522.31688,81,0,1580907286.99823,41.20781296037784,29.0754925099451,275.2123,0.1345286,-1,23.46983528137207,200,-9999,11238.09556125,0.9666900634765625,0.0936737060546875,-0.1307373046875,11238.09049525,-3.106924742577748,1.434865181993149,-0.09405739753461591,-0.009173120371997356,-0.005561807192862034,0.000575704500079155,-0.02081298828125,-0.000568389892578125,0.004446208477020264,2,0.6560127450526917,0.04680064151661995,-0.7530858166852418,-0.01785710412204818,0.986396312713623,0.09391877800226212,-0.1349139511585236,38.78467559814453,4.581186294555664,-21.34893798828125,2,11224.65753175,2,2,1580907508.898698,1580903939.50652,2435,0.4661743,0,0,2995.009,10,12,1580907483.189245,11234.775904,0,10.80972,97.0776
1580907522.318127,82,0,1580907286.99823,41.20781296037784,29.0754925099451,275.2123,0.1345286,-1,23.46983528137207,200,-9999,11238.10560225,0.9654693603515625,0.092926025390625,-0.1332244873046875,11238.10053625,-3.106832411295139,1.434893223460584,-0.0940610116532133,-0.009142760187387466,0.001404488459229469,0.001379447057843208,-0.02225065231323242,-0.0003125965595245361,0.002938389778137207,2,0.6560210679198183,0.04683203486227105,-0.7530773236198918,-0.01782418797402503,0.9863997101783752,0.09392236918210983,-0.134886234998703,38.78467559814453,4.581186294555664,-21.34893798828125,2,11224.65753175,2,2,1580907508.898698,1580903939.50652,2435,0.4661743,0,0,2995.009,10,12,1580907483.189245,11234.775904,0,10.80972,97.0776
1580907522.322958,83,0,1580907286.99823,41.20781296037784,29.0754925099451,275.2123,0.1345286,-1,23.46983528137207,200,-9999,11238.11564225,0.966522216796875,0.09375,-0.131134033203125,11238.11057625,-3.106772326075481,1.43499417506621,-0.09405928802328128,-0.005584772676229477,0.01072779484093189,0.002258772030472755,-0.02296644449234009,-0.001363739371299744,-0.0006099939346313477,2,0.6560577129508574,0.04685019621733135,-0.7530447191044606,-0.01780336579668974,0.9864134192466736,0.09392065554857254,-0.1347866654396057,38.79419708251953,4.643642425537109,-21.54583740234375,2,11224.65753175,2,2,1580907508.898698,1580903939.50652,2435,0.4661743,0,0,2995.009,10,12,1580907483.189245,11234.775904,0,10.80972,97.0776
1580907522.332833,84,0,1580907286.99823,41.20781296037784,29.0754925099451,275.2123,0.1345286,-1,23.46983528137207,200,-9999,11238.12568225,0.9723968505859375,0.0944366455078125,-0.126373291015625,11238.12061625,-3.106739331072877,1.435076388829245,-0.09405672437469781,-0.002144767437130213,0.00956505723297596,0.001718683168292046,-0.02390849590301514,-0.0005829557776451111,0.0003616809844970703,2,0.6560879477739584,0.04685932491606717,-0.7530181268213068,-0.0177920217963022,0.9864248037338257,0.09391810745000839,-0.1347056180238724,38.79419708251953,4.643642425537109,-21.54583740234375,2,11224.65753175,2,2,1580907508.898698,1580903939.50652,2435,0.4661743,0,0,2995.009,10,12,1580907483.189245,11234.775904,0,10.80972,97.0776
1580907522.342687,85,0,1580907286.99823,41.20781296037784,29.0754925099451,275.2123,0.1345286,-1,23.46983528137207,200,-9999,11238.13572325,0.9744110107421875,0.0953216552734375,-0.1243896484375,11238.13068725,-3.106727715728546,1.435036396806415,-0.09406643783112102,-0.001641098409891129,-0.00498887337744236,5.311332643032074e-05,-0.0184396505355835,-0.0001959577202796936,0.004047751426696777,2,0.6560724102755007,0.046867141874215,-0.7530311400681309,-0.01778991150720223,0.9864183664321899,0.0939277783036232,-0.1347449272871017,38.6590576171875,4.723648071289062,-21.59783935546875,2,11224.65753175,2,2,1580907508.898698,1580903939.50652,2435,0.4661743,0,0,2995.009,10,12,1580907483.189245,11235.721349,0,10.80972,97.0776
1580907522.375803,86,0,1580907286.99823,41.20781296037784,29.0754925099451,275.2123,0.1345286,-1,23.46983528137207,200,-9999,11238.14576325,0.9719085693359375,0.093170166015625,-0.1298980712890625,11238.14072725,-3.106748156674821,1.434943180490039,-0.09409323713183168,0.002780014649033546,-0.009305858053267002,-0.002779691014438868,-0.01435059309005737,0.001394703984260559,0.008656144142150879,2,0.6560371973589787,0.04687134299906655,-0.7530612745890788,-0.01780422594733612,0.9864034056663513,0.09395445883274078,-0.1348365396261215,38.6590576171875,4.723648071289062,-21.59783935546875,2,11224.65753175,2,2,1580907508.898698,1580903939.50652,2435,0.4661743,0,0,2995.009,10,12,1580907483.189245,11235.721349,0,10.80972,97.0776
1580907522.377735,87,0,1580907286.99823,41.20781296037784,29.0754925099451,275.2123,0.1345286,-1,23.46983528137207,200,-9999,11238.15580325,0.9692535400390625,0.0914764404296875,-0.133148193359375,11238.15076825,-3.1067647205249,1.434891840250968,-0.09413532729698054,0.001450136303901672,-0.004197770729660988,-0.003746516536921263,-0.01664376258850098,-0.0003868043422698975,0.004006743431091309,2,0.6560173295649422,0.04688219247808536,-0.7530774311992875,-0.01782309419713198,0.9863924980163574,0.09399636089801788,-0.1348866522312164,38.63021087646484,4.684291839599609,-21.49267578125,2,11224.65753175,2,2,1580907508.898698,1580903939.50652,2435,0.4661743,0,0,2995.009,10,12,1580907483.189245,11235.721349,0,10.80972,97.0776
1580907522.379042,88,0,1580907286.99823,41.20781296037784,29.0754925099451,275.2123,0.1345286,-1,23.46983528137207,200,-9999,11238.16584325,0.9705963134765625,0.0924224853515625,-0.129638671875,11238.16080825,-3.106786541176542,1.434857664876518,-0.09420584335196749,0.001004057005047798,-0.003105608746409416,-0.00735589861869812,-0.0187382698059082,-0.002639219164848328,-1.925230026245117e-05,2,0.6560034183313779,0.04690185451079597,-0.75308762319408,-0.01785368045821938,0.9863813519477844,0.0940665602684021,-0.1349194645881653,38.63021087646484,4.684291839599609,-21.49267578125,2,11224.65753175,2,2,1580907508.898698,1580903939.50652,2435,0.4661743,0,0,2995.009,10,12,1580907483.189245,11235.721349,0,10.80972,97.0776
1580907522.383125,89,0,1580907286.99823,41.20781296037784,29.0754925099451,275.2123,0.1345286,-1,23.46983528137207,200,-9999,11238.17588425,0.9677734375,0.09271240234375,-0.1307525634765625,11238.17084825,-3.106816487933679,1.434845411953849,-0.09427398403144635,0.002442093566060066,-0.0004713106900453568,-0.006750526838004589,-0.01932555437088013,-0.00261572003364563,0.001655042171478271,2,0.6559980076459107,0.04691776244060501,-0.7530905290334476,-0.01788706372987835,0.9863733053207397,0.09413439780473709,-0.1349306702613831,38.53675842285156,4.902416229248047,-21.48687744140625,2,11224.65753175,2,2,1580907508.898698,1580903939.50652,2435,0.4661743,0,0,2995.009,10,12,1580907483.189245,11235.721349,0,10.80972,97.0776
1580907522.393326,90,0,1580907286.99823,41.20781296037784,29.0754925099451,275.2123,0.1345286,-1,23.46983528137207,200,-9999,11238.18595425,0.9675750732421875,0.094146728515625,-0.1293792724609375,11238.18088925,-3.106844562301868,1.434822781807092,-0.09432296283644886,0.002352078445255756,-0.003404516726732254,-0.00477153155952692,-0.02003514766693115,-0.001764342188835144,0.002561807632446289,2,0.6559890614913838,0.04692717392339343,-0.7530971787834121,-0.01791319353861699,0.986365795135498,0.09418316185474396,-0.1349523812532425,38.53675842285156,4.902416229248047,-21.48687744140625,2,11224.65753175,2,2,1580907508.898698,1580903939.50652,2435,0.4661743,0,0,2995.009,10,12,1580907483.189245,11235.721349,0,10.80972,97.0776
1580907522.403079,91,0,1580907286.99823,41.20781296037784,29.0754925099451,275.2123,0.1345286,-1,23.46983528137207,200,-9999,11238.19599525,0.966888427734375,0.09320068359375,-0.131439208984375,11238.19092925,-3.106860156081054,1.434814176004096,-0.09434597953678892,0.001711134798824787,-0.0006191674619913101,-0.002206946723163128,-0.0219389796257019,-0.0005513355135917664,0.002875328063964844,2,0.6559856810756411,0.0469307906557905,-0.7530995636385475,-0.01792642867767834,0.9863624572753906,0.0942060798406601,-0.1349605768918991,38.5863037109375,4.674203872680664,-21.490478515625,2,11224.65753175,2,2,1580907508.898698,1580903939.50652,2435,0.4661743,0,0,2995.009,10,12,1580907483.189245,11235.721349,0,10.80972,97.0776
1580907522.435925,92,0,1580907286.99823,41.20781296037784,29.0754925099451,275.2123,0.1345286,-1,23.46983528137207,200,-9999,11238.20603525,0.969451904296875,0.0931549072265625,-0.1283111572265625,11238.20096925,-3.10684825768266,1.434802489385767,-0.09435548827457733,-0.001653769053518772,-0.003002697601914406,-0.0006370134651660919,-0.02211970090866089,-0.0005608499050140381,0.001482725143432617,2,0.6559807993873208,0.0469383719867958,-0.7531032699211702,-0.01792480861507811,0.9863598346710205,0.09421554207801819,-0.1349719613790512,38.5863037109375,4.674203872680664,-21.490478515625,2,11224.65753175,2,2,1580907508.898698,1580903939.50652,2435,0.4661743,0,0,2995.009,10,12,1580907483.189245,11235.721349,0,10.80972,97.0776
1580907522.437288,93,0,1580907286.99823,41.20781296037784,29.0754925099451,275.2123,0.1345286,-1,23.46983528137207,200,-9999,11238.21607525,0.9625091552734375,0.0915069580078125,-0.1349029541015625,11238.21104025,-3.106829253030989,1.434888147496266,-0.09437653295486699,-0.00162963755428791,0.008540097624063492,-0.002661187667399645,-0.019855797290802,-0.001512661576271057,0.00386965274810791,2,0.6560121400706196,0.04695175129191689,-0.753075144619164,-0.01792657425690765,0.9863694906234741,0.09423649311065674,-0.1348872035741806,38.64376831054688,4.746566772460938,-21.50335693359375,2,11224.65753175,2,2,1580907508.898698,1580903939.50652,2435,0.4661743,0,0,2995.009,10,12,1580907483.189245,11235.721349,0,10.80972,97.0776
1580907522.438459,94,0,1580907286.99823,41.20781296037784,29.0754925099451,275.2123,0.1345286,-1,23.46983528137207,200,-9999,11238.22611625,0.9681854248046875,0.0926666259765625,-0.13201904296875,11238.22108025,-3.106801050436284,1.43506720970223,-0.09437336556799357,-0.002589973155409098,0.01803399994969368,0.001790818758308887,-0.02480900287628174,-0.002257153391838074,-0.0006560683250427246,2,0.6560789635414259,0.04695820780650382,-0.7530167808218153,-0.01791911152223877,0.9863940477371216,0.09423334151506424,-0.1347106397151947,38.64376831054688,4.746566772460938,-21.50335693359375,2,11224.65753175,2,2,1580907508.898698,1580903939.50652,2435,0.4661743,0,0,2995.009,10,12,1580907483.189245,11235.721349,0,10.80972,97.0776
1580907522.443509,95,0,1580907286.99823,41.20781296037784,29.0754925099451,275.2123,0.1345286,-1,23.46983528137207,200,-9999,11238.23615625,0.9748992919921875,0.0939788818359375,-0.1254119873046875,11238.23112025,-3.10677260899042,1.435182460254543,-0.09436485048241795,-0.00221498915925622,0.01090908795595169,0.001045394688844681,-0.02403181791305542,-0.002691179513931274,-0.001929640769958496,2,0.6561218754388084,0.04696330438311772,-0.7529793269768982,-0.01790831109970406,0.9864103198051453,0.09422486275434494,-0.1345970630645752,38.42081451416016,4.825248718261719,-21.57940673828125,2,11224.65753175,2,2,1580907508.898698,1580903939.50652,2435,0.4661743,0,0,2995.009,10,12,1580907483.189245,11235.721349,0,10.80972,97.0776
1580907522.453298,96,0,1580907286.99823,41.20781296037784,29.0754925099451,275.2123,0.1345286,-1,23.46983528137207,200,-9999,11238.24619625,0.9728851318359375,0.091461181640625,-0.1272735595703125,11238.24116125,-3.106719394663659,1.435225715391841,-0.09434984084207027,-0.004887471441179514,0.003918558359146118,0.002201206982135773,-0.01511269807815552,-0.0002195313572883606,0.005260348320007324,2,0.6561372416073245,0.04697473229681316,-0.7529657963039708,-0.01788435879179841,0.9864175915718079,0.09420992434024811,-0.1345545947551727,38.42081451416016,4.825248718261719,-21.57940673828125,2,11224.65753175,2,2,1580907508.898698,1580903939.50652,2435,0.4661743,0,0,2995.009,10,12,1580907483.189245,11235.721349,0,10.80972,97.0776
1580907522.463439,97,0,1580907286.99823,41.20781296037784,29.0754925099451,275.2123,0.1345286,-1,23.46983528137207,200,-9999,11238.25623625,0.9724273681640625,0.090850830078125,-0.129150390625,11238.25120125,-3.106656478470202,1.435244648431868,-0.09435896999668199,-0.006045147776603699,0.0008535254746675491,0.0001593613997101784,-0.01541954278945923,-0.002380117774009705,0.006034970283508301,2,0.6561426897590122,0.04699863605773938,-0.7529600404307595,-0.01786411722029974,0.9864192605018616,0.09421900659799576,-0.1345358043909073,38.63166809082031,4.842658996582031,-21.67578125,2,11224.65753175,2,2,1580907508.898698,1580903939.50652,2435,0.4661743,0,0,2995.009,10,12,1580907483.189245,11235.721349,0,10.80972,97.0776
1580907522.491835,98,0,1580907286.99823,41.20781296037784,29.0754925099451,275.2123,0.1345286,-1,23.46983528137207,200,-9999,11238.26630725,0.972564697265625,0.09246826171875,-0.1282501220703125,11238.26124125,-3.106594578052177,1.435261141073751,-0.09441543744399664,-0.005776967387646437,0.001879375427961349,-0.005415167659521103,-0.01656091213226318,-0.003535136580467224,0.003256142139434814,2,0.6561461986150621,0.04704002432816481,-0.7529544693196644,-0.0178597641042844,0.9864161610603333,0.09427522867918015,-0.1345188021659851,38.63166809082031,4.842658996582031,-21.67578125,2,11224.65753175,2,2,1580907508.898698,1580903939.50652,2435,0.4661743,0,0,2995.009,10,12,1580907483.189245,11235.721349,0,10.80972,97.0776
1580907522.493707,99,0,1580907286.99823,41.20781296037784,29.0754925099451,275.2123,0.1345286,-1,23.46983528137207,200,-9999,11238.27634825,0.9725341796875,0.0946197509765625,-0.1265716552734375,11238.27128225,-3.106529840313947,1.435232690548103,-0.09448046719361075,-0.006575163453817368,-0.003768958151340485,-0.005097477231174707,-0.01685619354248047,-0.002852365374565125,0.003161370754241943,2,0.6561325243915835,0.04708596424345739,-0.7529636310295285,-0.01785609430510111,0.9864063262939453,0.09433996677398682,-0.1345460414886475,38.50808715820312,4.765407562255859,-21.685791015625,2,11224.65753175,2,2,1580907508.898698,1580903939.50652,2435,0.4661743,0,0,2995.009,10,12,1580907483.189245,11235.721349,0,10.80972,97.0776
1580907522.495615,100,0,1580907286.99823,41.20781296037784,29.0754925099451,275.2123,0.1345286,-1,23.46983528137207,200,-9999,11238.28638825,0.9700469970703125,0.094390869140625,-0.12762451171875,11238.28132225,-3.106492357763337,1.435180106454277,-0.09456400954151736,-0.00424622930586338,-0.005865931510925293,-0.007931613363325596,-0.01618504524230957,-0.0005553960800170898,0.005318105220794678,2,0.6561099982030275,0.04713013692710675,-0.7529801695331444,-0.01786820668729462,0.9863913655281067,0.09442313760519028,-0.1345968395471573,38.50808715820312,4.765407562255859,-21.685791015625,2,11224.65753175,2,2,1580907508.898698,1580903939.50652,2435,0.4661743,0,0,2995.009,10,12,1580907483.189245,11235.721349,0,10.80972,97.0776
1580907522.503593,101,0,1580907286.99823,41.20781296037784,29.0754925099451,275.2123,0.1345286,-1,23.46983528137207,200,-9999,11238.29642825,0.967071533203125,0.09442138671875,-0.129364013671875,11238.29136225,-3.106473353663764,1.435150257872693,-0.09466281936924073,-0.003719071391969919,-0.003341667354106903,-0.0100368969142437,-0.01875054836273193,-0.0001199841499328613,0.005025923252105713,2,0.6560961213726831,0.04717378573681977,-0.7529889772441549,-0.01789282156024841,0.9863781332969666,0.09452150017023087,-0.134625032544136,38.56278228759766,4.709999084472656,-21.70648193359375,2,11224.65753175,2,2,1580907508.898698,1580903939.50652,2435,0.4661743,0,0,2995.009,10,12,1580907483.189245,11235.721349,0,10.80972,97.0776
1580907522.51361,102,0,1580907286.99823,41.20781296037784,29.0754925099451,275.2123,0.1345286,-1,23.46983528137207,200,-9999,11238.30646825,0.96734619140625,0.094451904296875,-0.130615234375,11238.30143325,-3.106463051339482,1.435168484926634,-0.09473285376089619,-0.002277768682688475,0.00287548266351223,-0.005436019971966743,-0.02088266611099243,-0.0006476491689682007,0.003633737564086914,2,0.6561011857791748,0.0472033318607652,-0.752982282883497,-0.01791238832197158,0.9863740801811218,0.09459122270345688,-0.1346061527729034,38.56278228759766,4.709999084472656,-21.70648193359375,2,11224.65753175,2,2,1580907508.898698,1580903939.50652,2435,0.4661743,0,0,2995.009,10,12,1580907483.189245,11235.721349,0,10.80972,97.0776
1580907522.523639,103,0,1580907286.99823,41.20781296037784,29.0754925099451,275.2123,0.1345286,-1,23.46983528137207,200,-9999,11238.31650925,0.9688262939453125,0.093780517578125,-0.12860107421875,11238.31147325,-3.106451000445723,1.435180854551182,-0.09481107040174626,-0.002379921730607748,0.0001047253608703613,-0.008538971655070782,-0.02249425649642944,-0.0003900304436683655,0.001331865787506104,2,0.6561038201003888,0.04723657989291335,-0.7529774389873246,-0.01793384721958741,0.9863684773445129,0.09466908872127533,-0.1345929652452469,38.52191162109375,4.945051193237305,-21.7591552734375,2,11224.65753175,2,2,1580907508.898698,1580903939.50652,2435,0.4661743,0,0,2995.009,10,12,1580907483.189245,11235.721349,0,10.80972,97.0776
1580907522.555652,104,0,1580907286.99823,41.20781296037784,29.0754925099451,275.2123,0.1345286,-1,23.46983528137207,200,-9999,11238.32654925,0.9690399169921875,0.09356689453125,-0.1312103271484375,11238.32151425,-3.106446379559581,1.435210367227504,-0.09489612212605066,-0.00105313491076231,0.001893570646643639,-0.009561892598867416,-0.02044540643692017,-0.001131057739257812,0.00316321849822998,2,0.6561129417747205,0.04726980374915542,-0.7529666528596044,-0.01796076965123555,0.9863643050193787,0.09475375711917877,-0.1345627456903458,38.52191162109375,4.945051193237305,-21.7591552734375,2,11224.65753175,2,2,1580907508.898698,1580903939.50652,2435,0.4661743,0,0,2995.009,10,12,1580907483.189245,11235.721349,0,10.80972,97.0776
1580907522.556914,105,0,1580907286.99823,41.20781296037784,29.0754925099451,275.2123,0.1345286,-1,23.46983528137207,200,-9999,11238.33658925,0.9672393798828125,0.093048095703125,-0.132354736328125,11238.33155425,-3.106419180593314,1.435285123393475,-0.09498947005522125,-0.004398820456117392,0.007436279207468033,-0.01002055127173662,-0.02012628316879272,-0.001376837491989136,0.002019882202148438,2,0.6561383687479012,0.04731314713734846,-0.7529412459591616,-0.01798297994561308,0.9863656163215637,0.0948466882109642,-0.1344878077507019,38.39598846435547,4.941194534301758,-21.5947265625,2,11224.65753175,2,2,1580907508.898698,1580903939.50652,2435,0.4661743,0,0,2995.009,10,12,1580907483.189245,11235.721349,0,10.80972,97.0776
1580907522.558141,106,0,1580907286.99823,41.20781296037784,29.0754925099451,275.2123,0.1345286,-1,23.46983528137207,200,-9999,11238.34666025,0.968048095703125,0.094085693359375,-0.1287841796875,11238.34159425,-3.106374719695503,1.435378431232678,-0.09504801727929409,-0.004952491726726294,0.009747637435793877,-0.005308353807777166,-0.021201491355896,-0.001877784729003906,-0.0007740259170532227,2,0.6561711397525729,0.0473489037151375,-0.7529103557462403,-0.01798769252302143,0.986372709274292,0.09490496665239334,-0.134395033121109,38.39598846435547,4.941194534301758,-21.5947265625,2,11224.65753175,2,2,1580907508.898698,1580903939.50652,2435,0.4661743,0,0,2995.009,10,12,1580907483.189245,11235.721349,0,10.80972,97.0776
1580907522.563972,107,0,1580907286.99823,41.20781296037784,29.0754925099451,275.2123,0.1345286,-1,23.46983528137207,200,-9999,11238.35670025,0.9678192138671875,0.09429931640625,-0.1292572021484375,11238.35163425,-3.10632285838748,1.435464048371164,-0.09507070988952873,-0.004809195175766945,0.006896281614899635,-0.00173866143450141,-0.02162289619445801,-0.001686811447143555,0.00194859504699707,2,0.6562016394287751,0.047373678917903,-0.7528824213510882,-0.01797765949267785,0.986382007598877,0.09492755681276321,-0.1343102902173996,38.396728515625,5.111381530761719,-21.7281494140625,2,11224.65753175,2,2,1580907508.898698,1580903939.50652,2435,0.4661743,0,0,2995.009,10,12,1580907483.189245,11235.721349,0,10.80972,97.0776
1580907522.573922,108,0,1580907286.99823,41.20781296037784,29.0754925099451,275.2123,0.1345286,-1,23.46983528137207,200,-9999,11238.36674125,0.96826171875,0.0928192138671875,-0.1293487548828125,11238.36167525,-3.106238304909636,1.435587800846876,-0.09508529632667372,-0.008763190358877182,0.01186840422451496,-0.0008941730484366417,-0.02082949876785278,-0.0005112215876579285,0.003382265567779541,2,0.656245899592294,0.04740579224191951,-0.7528423352060833,-0.0179535638645635,0.9863972067832947,0.09494207799434662,-0.1341880261898041,38.396728515625,5.111381530761719,-21.7281494140625,2,11224.65753175,2,2,1580907508.898698,1580903939.50652,2435,0.4661743,0,0,2995.009,10,12,1580907483.189245,11235.721349,0,10.80972,97.0776
1580907522.583963,109,0,1580907286.99823,41.20781296037784,29.0754925099451,275.2123,0.1345286,-1,23.46983528137207,200,-9999,11238.37678125,0.9675750732421875,0.094146728515625,-0.1290740966796875,11238.37171525,-3.106155825436987,1.435745536478644,-0.09508514089232302,-0.008473093621432781,0.01575895212590694,0.0006328010931611061,-0.02146118879318237,-0.002326875925064087,0.001501917839050293,2,0.6563033187313477,0.04743138387066561,-0.7527913462405266,-0.01792620421525537,0.9864183664321899,0.09494192898273468,-0.1340324282646179,38.310546875,5.107597351074219,-21.76300048828125,2,11224.65753175,2,2,1580907508.898698,1580903939.50652,2435,0.4661743,0,0,2995.009,10,12,1580907483.189245,11235.721349,0,10.80972,97.0776
1580907522.617432,110,0,1580907286.99823,41.20781296037784,29.0754925099451,275.2123,0.1345286,-1,23.46983528137207,200,-9999,11238.38680775,0.971221923828125,0.0944671630859375,-0.1258544921875,11238.38177275,-3.106081194370556,1.435887747337095,-0.09507767375435461,-0.007412889041006565,0.01341883279383183,0.001511644572019577,-0.0212520956993103,-0.001770094037055969,0.002597332000732422,2,0.6563552416652931,0.04745179493746789,-0.7527454236151242,-0.01789903348739939,0.9864381551742554,0.09493449330329895,-0.1338922530412674,38.310546875,5.107597351074219,-21.76300048828125,2,11224.65753175,2,2,1580907508.898698,1580903939.50652,2435,0.4661743,0,0,2995.009,10,12,1580907483.189245,11235.721349,0,10.80972,97.0776
1580907522.619633,111,0,1580907286.99823,41.20781296037784,29.0754925099451,275.2123,0.1345286,-1,23.46983528137207,200,-9999,11238.39684775,0.970977783203125,0.0965576171875,-0.1265411376953125,11238.39181275,-3.105999327408258,1.435977275659364,-0.09505564943370717,-0.007993793115019798,0.008983513340353966,0.003992720507085323,-0.01943510770797729,-0.000939391553401947,0.004202723503112793,2,0.6563874887281962,0.04746958454461128,-0.7527169924150877,-0.0178631079778053,0.9864521026611328,0.0949125662446022,-0.1338042020797729,38.50749206542969,5.102668762207031,-21.68145751953125,2,11224.65753175,2,2,1580907508.898698,1580903939.50652,2435,0.4661743,0,0,2995.009,10,12,1580907483.189245,11235.721349,0,10.80972,97.0776
1580907522.620821,112,0,1580907286.99823,41.20781296037784,29.0754925099451,275.2123,0.1345286,-1,23.46983528137207,200,-9999,11238.40688875,0.9715576171875,0.0959014892578125,-0.12664794921875,11238.40185275,-3.105936741178621,1.436011807266643,-0.09501821154152615,-0.005890162661671638,0.002413760870695114,0.005069702863693237,-0.0177801251411438,0.0007154271006584167,0.005649209022521973,2,0.6563998304487962,0.04747574875425656,-0.7527067394345147,-0.0178280560588344,0.9864603281021118,0.09487529844045639,-0.1337706297636032,38.44633483886719,5.074239730834961,-21.8258056640625,2,11224.65753175,2,2,1580907508.898698,1580903939.50652,2435,0.4661743,0,0,2995.009,10,12,1580907483.189245,11235.721349,0,10.80972,97.0776
1580907522.624545,113,0,1580907286.99823,41.20781296037784,29.0754925099451,275.2123,0.1345286,-1,23.46983528137207,200,-9999,11238.41692875,0.9739837646484375,0.094635009765625,-0.126312255859375,11238.41189375,-3.105898309297793,1.436008247156824,-0.09499233054779427,-0.004128338769078255,0.0005682297050952911,0.004015997052192688,-0.01785856485366821,0.001382097601890564,0.004691600799560547,2,0.6563981557009523,0.04747866787613575,-0.7527085673674465,-0.01780499640638201,0.9864622950553894,0.09484953433275223,-0.1337744742631912,38.44633483886719,5.074239730834961,-21.8258056640625,2,11224.65753175,2,2,1580907508.898698,1580903939.50652,2435,0.4661743,0,0,2995.009,10,12,1580907483.189245,11235.721349,0,10.80972,97.0776
1580907522.634183,114,0,1580907286.99823,41.20781296037784,29.0754925099451,275.2123,0.1345286,-1,23.46983528137207,200,-9999,11238.42699975,0.973419189453125,0.092437744140625,-0.1253814697265625,11238.42193375,-3.105881243121312,1.435917829374919,-0.09501964101487106,-0.001099259592592716,-0.009827153757214546,-0.003246975596994162,-0.01601290702819824,-0.0003236383199691772,0.004612743854522705,2,0.6563631126194832,0.04749533682734353,-0.7527380374875343,-0.01780540934724245,0.9864476323127747,0.0948767215013504,-0.1338633149862289,38.47532653808594,4.935476303100586,-21.7557373046875,2,11224.65753175,2,2,1580907508.898698,1580903939.50652,2435,0.4661743,0,0,2995.009,10,12,1580907483.189245,11235.721349,0,10.80972,97.0776
1580907522.644391,115,0,1580907286.99823,41.20781296037784,29.0754925099451,275.2123,0.1345286,-1,23.46983528137207,200,-9999,11238.43703975,0.9697418212890625,0.09405517578125,-0.1305694580078125,11238.43197375,-3.105855939085361,1.435835016531712,-0.09507140660515834,-0.003767520189285278,-0.009388424456119537,-0.003739595878869295,-0.01508122682571411,-0.002160564064979553,0.006647348403930664,2,0.6563301781407237,0.04752383426978827,-0.7527649444281113,-0.01781092875981707,0.9864318370819092,0.09492824971675873,-0.1339443624019623,38.47532653808594,4.935476303100586,-21.7557373046875,2,11224.65753175,2,2,1580907508.898698,1580903939.50652,2435,0.4661743,0,0,2995.009,10,12,1580907483.189245,11235.721349,0,10.80972,97.0776
1580907522.671831,116,0,1580907286.99823,41.20781296037784,29.0754925099451,275.2123,0.1345286,-1,23.46983528137207,200,-9999,11238.44707975,0.9687347412109375,0.0937042236328125,-0.1315460205078125,11238.44201375,-3.105867249423895,1.435843930490971,-0.09518313087346901,0.0001252228394150734,0.001265551894903183,-0.01038950867950916,-0.01806265115737915,-0.002302631735801697,0.002517044544219971,2,0.6563313120812535,0.04756203017875595,-0.7527604538616128,-0.01785214333098077,0.9864223599433899,0.09503947198390961,-0.1339341253042221,38.37374114990234,4.768350601196289,-21.744873046875,2,11224.65753175,2,2,1580907508.898698,1580903939.50652,2435,0.4661743,0,0,2995.009,10,12,1580907483.189245,11235.721349,0,10.80972,97.0776
1580907522.673115,117,0,1580907286.99823,41.20781296037784,29.0754925099451,275.2123,0.1345286,-1,23.46983528137207,200,-9999,11238.45712075,0.9708404541015625,0.093597412109375,-0.1295318603515625,11238.45205475,-3.105878310205548,1.435883456056182,-0.09533582067753417,-0.0007482357323169708,0.003686346113681793,-0.01446874719113111,-0.02087652683258057,-0.001295380294322968,-0.0005298852920532227,2,0.6563430313805739,0.04761543120726939,-0.7527456029624852,-0.01790744750291606,0.986413300037384,0.09519147127866745,-0.1338931918144226,38.37374114990234,4.768350601196289,-21.744873046875,2,11224.65753175,2,2,1580907508.898698,1580903939.50652,2435,0.4661743,0,0,2995.009,10,12,1580907483.189245,11235.721349,0,10.80972,97.0776
1580907522.674407,118,0,1580907286.99823,41.20781296037784,29.0754925099451,275.2123,0.1345286,-1,23.46983528137207,200,-9999,11238.46716075,0.96978759765625,0.095611572265625,-0.12652587890625,11238.46212575,-3.105900102635974,1.435878534617744,-0.09549273408210718,-0.0002475613728165627,-0.000995490700006485,-0.01567302830517292,-0.01886206865310669,-0.002459093928337097,0.001456558704376221,2,0.6563381857925263,0.04766729336097539,-0.7527450922179311,-0.01796713007708607,0.9863978028297424,0.09534767270088196,-0.1338960230350494,38.35292816162109,4.865835189819336,-21.5894775390625,2,11224.65753175,2,2,1580907508.898698,1580903939.50652,2435,0.4661743,0,0,2995.009,10,12,1580907483.189245,11235.721349,0,10.80972,97.0776
1580907522.684403,119,0,1580907286.99823,41.20781296037784,29.0754925099451,275.2123,0.1345286,-1,23.46983528137207,200,-9999,11238.47720075,0.9682159423828125,0.095428466796875,-0.1274261474609375,11238.47216575,-3.105933729489603,1.435821653479675,-0.0956184433298965,0.0008371248841285706,-0.005850521847605705,-0.01261198148131371,-0.01859831809997559,-0.0008755996823310852,0.004166185855865479,2,0.6563147617558815,0.04770401345111387,-0.7527619195987472,-0.0180197651036114,0.9863783121109009,0.09547280520200729,-0.1339505165815353,38.35292816162109,4.865835189819336,-21.5894775390625,2,11224.65753175,2,2,1580907508.898698,1580903939.50652,2435,0.4661743,0,0,2995.009,10,12,1580907483.189245,11235.721349,0,10.80972,97.0776
1580907522.694415,120,0,1580907286.99823,41.20781296037784,29.0754925099451,275.2123,0.1345286,-1,23.46983528137207,200,-9999,11238.48724075,0.966949462890625,0.094635009765625,-0.12860107421875,11238.48220575,-3.105984874478394,1.435763676035725,-0.09571190810573577,0.004482991993427277,-0.005379674956202507,-0.01026387233287096,-0.02061116695404053,-3.813207149505615e-05,0.005061507225036621,2,0.6562920608620693,0.04772288021230005,-0.7527793978474302,-0.01806835853105615,0.9863617420196533,0.09556584060192108,-0.1340065151453018,38.11940765380859,4.948125839233398,-21.619384765625,2,11224.65753175,2,2,1580907508.898698,1580903939.50652,2435,0.4661743,0,0,2995.009,10,12,1580907483.189245,11235.721349,0,10.80972,97.0776
1580907522.704454,121,0,1580907286.99823,41.20781296037784,29.0754925099451,275.2123,0.1345286,-1,23.46983528137207,200,-9999,11238.49728175,0.96533203125,0.0955352783203125,-0.129302978515625,11238.49224575,-3.106021439018179,1.435739016735383,-0.09577129770008712,0.00283490214496851,-0.002846816554665565,-0.005992810241878033,-0.02189916372299194,-0.001348614692687988,0.003269433975219727,2,0.6562823167828611,0.0477334258124897,-0.7527864833461991,-0.01810105503433582,0.9863528609275818,0.09562496095895767,-0.1340300887823105,38.11940765380859,4.948125839233398,-21.619384765625,2,11224.65753175,2,2,1580907508.898698,1580903939.50652,2435,0.4661743,0,0,2995.009,10,12,1580907483.189245,11235.721349,0,10.80972,97.0776
1580907522.735772,122,0,1580907286.99823,41.20781296037784,29.0754925099451,275.2123,0.1345286,-1,23.46983528137207,200,-9999,11238.50735275,0.9675140380859375,0.0947723388671875,-0.128570556640625,11238.50228675,-3.106067166687251,1.435712433963064,-0.09581085686897391,0.004483931697905064,-0.003784248605370522,-0.004451372660696507,-0.02343297004699707,-0.0005488693714141846,0.002532303333282471,2,0.6562725176159495,0.04773352886766279,-0.7527942726130087,-0.01813064166606475,0.9863455295562744,0.09566433727741241,-0.1340557783842087,38.33309936523438,4.84400749206543,-21.466552734375,2,11224.65753175,2,2,1580907508.898698,1580903939.50652,2435,0.4661743,0,0,2995.009,10,12,1580907483.189245,11235.721349,0,10.80972,97.0776
1580907522.737064,123,0,1580907286.99823,41.20781296037784,29.0754925099451,275.2123,0.1345286,-1,23.46983528137207,200,-9999,11238.51739275,0.9661865234375,0.09393310546875,-0.131072998046875,11238.51232675,-3.10609324690902,1.435725278486368,-0.09583323885794909,0.002841114066541195,0.0006231963634490967,-0.003065017517656088,-0.02271544933319092,-0.001044243574142456,0.002732932567596436,2,0.656277472785801,0.04773326642923158,-0.7527895470411338,-0.0181481235176951,0.986345112323761,0.09568661451339722,-0.1340428292751312,38.33309936523438,4.84400749206543,-21.466552734375,2,11224.65753175,2,2,1580907508.898698,1580903939.50652,2435,0.4661743,0,0,2995.009,10,12,1580907483.189245,11235.721349,0,10.80972,97.0776
1580907522.738114,124,0,1580907286.99823,41.20781296037784,29.0754925099451,275.2123,0.1345286,-1,23.46983528137207,200,-9999,11238.52743275,0.9658966064453125,0.0920562744140625,-0.1324310302734375,11238.52236675,-3.106073655370135,1.435835913221938,-0.09583413104293514,-0.002631149254739285,0.0107733029872179,0.001156625337898731,-0.02173846960067749,-0.001716509461402893,0.001814782619476318,2,0.6563186229817745,0.04773902755662379,-0.7527534640337155,-0.01814367887457613,0.9863598942756653,0.09568750858306885,-0.1339337080717087,38.28692626953125,4.683784484863281,-21.496826171875,2,11224.65753175,2,2,1580907508.898698,1580903939.50652,2435,0.4661743,0,0,2995.009,10,12,1580907483.189245,11235.721349,0,10.80972,97.0776
1580907522.744931,125,0,1580907286.99823,41.20781296037784,29.0754925099451,275.2123,0.1345286,-1,23.46983528137207,200,-9999,11238.53747275,0.9700775146484375,0.09393310546875,-0.127685546875,11238.53240775,-3.106045709537258,1.435973903498654,-0.09585218996038559,-0.003575637470930815,0.01310961320996284,-0.001282186713069677,-0.0239679217338562,-0.003626644611358643,-0.001862287521362305,2,0.6563694965443546,0.04775373136580257,-0.7527080391097812,-0.01814240802224651,0.9863764643669128,0.09570547938346863,-0.1337973326444626,38.28692626953125,4.683784484863281,-21.496826171875,2,11224.65753175,2,2,1580907508.898698,1580903939.50652,2435,0.4661743,0,0,2995.009,10,12,1580907483.189245,11235.721349,0,10.80972,97.0776
1580907522.754533,126,0,1580907286.99823,41.20781296037784,29.0754925099451,275.2123,0.1345286,-1,23.46983528137207,200,-9999,11238.54751375,0.969268798828125,0.0950164794921875,-0.1286468505859375,11238.54247775,-3.106016228050835,1.436126187772176,-0.09585598797848907,-0.002065625041723251,0.01513893902301788,0.0007577948272228241,-0.02012741565704346,-0.002852238714694977,0.002900421619415283,2,0.656426017426879,0.04776345336120168,-0.7526582928467412,-0.01813619726291184,0.9863964915275574,0.09570926427841187,-0.1336470693349838,38.37888336181641,4.631406784057617,-21.49359130859375,2,11224.65753175,2,2,1580907508.898698,1580903939.50652,2435,0.4661743,0,0,2995.009,10,12,1580907483.189245,11235.721349,0,10.80972,97.0776
1580907522.765225,127,0,1580907286.99823,41.20781296037784,29.0754925099451,275.2123,0.1345286,-1,23.46983528137207,200,-9999,11238.55755375,0.968536376953125,0.0960540771484375,-0.12799072265625,11238.55251875,-3.105965496098468,1.436288058213104,-0.09585355569144029,-0.005745365750044584,0.01495624892413616,0.001305144280195236,-0.01958489418029785,-0.00117136538028717,0.002541840076446533,2,0.6564857694128313,0.0477777248568776,-0.7526057349923736,-0.0181201653854282,0.9864184260368347,0.09570684283971786,-0.1334874480962753,38.37888336181641,4.631406784057617,-21.49359130859375,2,11224.65753175,2,2,1580907508.898698,1580903939.50652,2435,0.4661743,0,0,2995.009,10,12,1580907483.189245,11235.721349,0,10.80972,97.0776
1580907522.795599,128,0,1580907286.99823,41.20781296037784,29.0754925099451,275.2123,0.1345286,-1,23.46983528137207,200,-9999,11238.56759375,0.9674224853515625,0.096221923828125,-0.12823486328125,11238.56255875,-3.105926151136535,1.436458670796665,-0.09583655341236731,-0.003694731742143631,0.0164398979395628,0.001738174818456173,-0.02020442485809326,-8.626282215118408e-05,0.002876937389373779,2,0.6565494092821967,0.04778270722300398,-0.7525503198683269,-0.01810384192218703,0.9864428639411926,0.09568991512060165,-0.1333193778991699,38.37729644775391,4.712270736694336,-21.56732177734375,2,11224.65753175,2,2,1580907508.898698,1580903939.50652,2435,0.4661743,0,0,2995.009,10,12,1580907483.189245,11235.721349,0,10.80972,97.0776
1580907522.797492,129,0,1580907286.99823,41.20781296037784,29.0754925099451,275.2123,0.1345286,-1,23.46983528137207,200,-9999,11238.57763475,0.9692840576171875,0.0959014892578125,-0.127960205078125,11238.57259875,-3.105890759958789,1.436647340335139,-0.09579948932461571,-0.003620600327849388,0.01912079937756062,0.004182862117886543,-0.02198803424835205,0.0002711713314056396,0.002492368221282959,2,0.6566203837760662,0.04777869442852685,-0.7524891740478352,-0.01808283945127732,0.9864715337753296,0.09565301984548569,-0.133133739233017,38.37729644775391,4.712270736694336,-21.56732177734375,2,11224.65753175,2,2,1580907508.898698,1580903939.50652,2435,0.4661743,0,0,2995.009,10,12,1580907483.189245,11235.721349,0,10.80972,97.0776
1580907522.798992,130,0,1580907286.99823,41.20781296037784,29.0754925099451,275.2123,0.1345286,-1,23.46983528137207,200,-9999,11238.58770475,0.9738311767578125,0.095550537109375,-0.126495361328125,11238.58263875,-3.105877249873443,1.436789174440553,-0.0957688063291534,-0.001054910942912102,0.01280511356890202,0.004078200086951256,-0.02078908681869507,0.0003475695848464966,0.002703428268432617,2,0.6566741147162327,0.04777032112502537,-0.7524430748771813,-0.01807105310122283,0.9864932894706726,0.0956224799156189,-0.1329942047595978,38.30396270751953,4.640884399414062,-21.2763671875,2,11224.65753175,2,2,1580907508.898698,1580903939.50652,2435,0.4661743,0,0,2995.009,10,12,1580907483.189245,11235.721349,0,10.80972,97.0776
1580907522.804846,131,0,1580907286.99823,41.20781296037784,29.0754925099451,275.2123,0.1345286,-1,23.46983528137207,200,-9999,11238.59774575,0.9733123779296875,0.0955657958984375,-0.125579833984375,11238.59267975,-3.105892298761382,1.436878141332218,-0.09577181915208355,0.003067034296691418,0.008075974881649017,-0.0007377662695944309,-0.01640611886978149,-0.0003420859575271606,0.00333249568939209,2,0.6567078765870555,0.04776570769734502,-0.7524136980405819,-0.0180798301284536,0.9865047931671143,0.09562548249959946,-0.1329064071178436,38.30396270751953,4.640884399414062,-21.2763671875,2,11224.65753175,2,2,1580907508.898698,1580903939.50652,2435,0.4661743,0,0,2995.009,10,12,1580907483.189245,11235.721349,0,10.80972,97.0776
1580907522.814976,132,0,1580907286.99823,41.20781296037784,29.0754925099451,275.2123,0.1345286,-1,23.46983528137207,200,-9999,11238.60778575,0.9708404541015625,0.0948333740234375,-0.1272430419921875,11238.60271975,-3.105908945603425,1.43694737522729,-0.09579475936949672,0.001065935008227825,0.00682508759200573,-0.002865099348127842,-0.01537543535232544,-0.0002581551671028137,0.00480496883392334,2,0.6567338085046132,0.04776823191209541,-0.7523904759726796,-0.01809529866622565,0.986511766910553,0.09564831107854843,-0.1328378021717072,38.32434844970703,4.471712112426758,-21.241943359375,2,11224.65753175,2,2,1580907508.898698,1580903939.50652,2435,0.4661743,0,0,2995.009,10,12,1580907483.189245,11235.721349,0,10.80972,97.0776
1580907522.824928,133,0,1580907286.99823,41.20781296037784,29.0754925099451,275.2123,0.1345286,-1,23.46983528137207,200,-9999,11238.61782575,0.9706878662109375,0.0948028564453125,-0.126220703125,11238.61275975,-3.105922648832875,1.437015548779285,-0.09583043250951542,-0.0005782311782240868,0.008259020745754242,-0.004610347561538219,-0.01794463396072388,-0.0009346380829811096,0.003668844699859619,2,0.6567589823715707,0.04777651447824001,-0.7523675040534779,-0.01811382148558324,0.9865174293518066,0.09568382054567337,-0.1327700912952423,38.32434844970703,4.471712112426758,-21.241943359375,2,11224.65753175,2,2,1580907508.898698,1580903939.50652,2435,0.4661743,0,0,2995.009,10,12,1580907483.189245,11235.721349,0,10.80972,97.0776
1580907522.855087,134,0,1580907286.99823,41.20781296037784,29.0754925099451,275.2123,0.1345286,-1,23.46983528137207,200,-9999,11238.62786575,0.96881103515625,0.0946502685546875,-0.1274871826171875,11238.62283075,-3.105933518709898,1.437065318469173,-0.0958618641505784,0.0007155323401093483,0.004528997465968132,-0.003280631266534328,-0.01875686645507812,-0.001240655779838562,0.003421127796173096,2,0.6567772515491723,0.04778430156212722,-0.7523507836836956,-0.01812943254227778,0.9865211844444275,0.09571511298418045,-0.1327206045389175,38.39565277099609,4.656959533691406,-21.188720703125,2,11224.65753175,2,2,1580907508.898698,1580903939.50652,2435,0.4661743,0,0,2995.009,10,12,1580907483.189245,11235.721349,0,10.80972,97.0776
1580907522.856377,135,0,1580907286.99823,41.20781296037784,29.0754925099451,275.2123,0.1345286,-1,23.46983528137207,200,-9999,11238.63790675,0.969635009765625,0.0959320068359375,-0.127410888671875,11238.63287075,-3.105933574694419,1.437123717472213,-0.09588811185939478,-0.001369345001876354,0.005412772297859192,-0.002233050763607025,-0.02025759220123291,-0.001404210925102234,0.003561139106750488,2,0.6567986384324034,0.04779361109536235,-0.7523311692612623,-0.0181394953838907,0.9865262508392334,0.09574123471975327,-0.1326626390218735,38.39565277099609,4.656959533691406,-21.188720703125,2,11224.65753175,2,2,1580907508.898698,1580903939.50652,2435,0.4661743,0,0,2995.009,10,12,1580907483.189245,11235.721349,0,10.80972,97.0776
1580907522.85734,136,0,1580907286.99823,41.20781296037784,29.0754925099451,275.2123,0.1345286,-1,23.46983528137207,200,-9999,11238.64794675,0.9691009521484375,0.0953369140625,-0.1273040771484375,11238.64291175,-3.105949065168067,1.437171505340998,-0.09590538631002993,0.001622716896235943,0.005177615210413933,-0.001859941985458136,-0.01951467990875244,-0.0004601404070854187,0.002628684043884277,2,0.6568165934055102,0.04779457921767782,-0.7523151705909878,-0.01815214449785643,0.9865310192108154,0.09575843065977097,-0.1326152831315994,38.5435791015625,4.599105834960938,-21.05999755859375,2,11224.65753175,2,2,1580907508.898698,1580903939.50652,2435,0.4661743,0,0,2995.009,10,12,1580907483.189245,11235.721349,0,10.80972,97.0776
1580907522.865102,137,0,1580907286.99823,41.20781296037784,29.0754925099451,275.2123,0.1345286,-1,23.46983528137207,200,-9999,11238.65798675,0.9688262939453125,0.09564208984375,-0.1266937255859375,11238.65295175,-3.105965449103699,1.437193347332332,-0.09591047951149788,0.002025479450821877,0.001645363867282867,-0.001153493765741587,-0.02002060413360596,-0.0005872994661331177,0.002881765365600586,2,0.6568250831947248,0.04779091387197009,-0.7523078378418717,-0.01816050094418084,0.986533522605896,0.09576350450515747,-0.1325936764478683,38.5435791015625,4.599105834960938,-21.05999755859375,2,11224.65753175,2,2,1580907508.898698,1580903939.50652,2435,0.4661743,0,0,2995.009,10,12,1580907483.189245,11235.721349,0,10.80972,97.0776
1580907522.875204,138,0,1580907286.99823,41.20781296037784,29.0754925099451,275.2123,0.1345286,-1,23.46983528137207,200,-9999,11238.66805775,0.968109130859375,0.09466552734375,-0.1279144287109375,11238.66299175,-3.105984005894828,1.437223714964446,-0.0958926859174887,0.002876092679798603,0.002450436353683472,0.00212059635668993,-0.02033150196075439,-0.0002948939800262451,0.003217995166778564,2,0.6568373528349262,0.04777785999256982,-0.7522978557906281,-0.01816235637778416,0.9865391254425049,0.09574579447507858,-0.1325639337301254,38.49331665039062,4.455053329467773,-21.15081787109375,2,11224.65753175,2,2,1580907508.898698,1580903939.50652,2435,0.4661743,0,0,2995.009,10,12,1580907483.189245,11235.721349,0,10.80972,97.0776
1580907522.885271,139,0,1580907286.99823,41.20781296037784,29.0754925099451,275.2123,0.1345286,-1,23.46983528137207,200,-9999,11238.67809775,0.96771240234375,0.09417724609375,-0.12841796875,11238.67303275,-3.105981515362297,1.437282677079318,-0.09587690108325442,-0.0003275126218795776,0.005774553865194321,0.001303094439208508,-0.02122575044631958,-0.0009962916374206543,0.002824187278747559,2,0.6568598322211653,0.04777221291478472,-0.752278611568687,-0.01815764179671407,0.9865483641624451,0.09573008120059967,-0.1325059533119202,38.49331665039062,4.455053329467773,-21.15081787109375,2,11224.65753175,2,2,1580907508.898698,1580903939.50652,2435,0.4661743,0,0,2995.009,10,12,1580907483.189245,11235.721349,0,10.80972,97.0776
1580907522.915786,140,0,1580907286.99823,41.20781296037784,29.0754925099451,275.2123,0.1345286,-1,23.46983528137207,200,-9999,11238.68813875,0.96893310546875,0.0948944091796875,-0.12762451171875,11238.68307275,-3.105965747508767,1.437372658385136,-0.09585558810580828,-0.001887858845293522,0.008819345384836197,0.001883929595351219,-0.0214686393737793,-0.00196683406829834,0.001316368579864502,2,0.6568937765329826,0.04776857099980249,-0.7522495036009987,-0.01814684290350665,0.9865623116493225,0.09570886194705963,-0.1324174553155899,38.26370239257812,4.465494155883789,-21.04681396484375,2,11224.65753175,2,2,1580907508.898698,1580903939.50652,2435,0.4661743,0,0,2995.009,10,12,1580907483.189245,11235.721349,0,10.80972,97.0776
1580907522.917218,141,0,1580907286.99823,41.20781296037784,29.0754925099451,275.2123,0.1345286,-1,23.46983528137207,200,-9999,11238.69817875,0.9700164794921875,0.0943145751953125,-0.127227783203125,11238.69311275,-3.10594637822868,1.437473346261013,-0.09582970515280538,-0.00195388775318861,0.009939804673194885,0.003256208263337612,-0.02081304788589478,-0.001086488366127014,0.002041220664978027,2,0.6569317597539742,0.04776430040631383,-0.7522170174637747,-0.0181334364439163,0.9865782260894775,0.09568309783935547,-0.1323184669017792,38.26370239257812,4.465494155883789,-21.04681396484375,2,11224.65753175,2,2,1580907508.898698,1580903939.50652,2435,0.4661743,0,0,2995.009,10,12,1580907483.189245,11235.721349,0,10.80972,97.0776
1580907522.91822,142,0,1580907286.99823,41.20781296037784,29.0754925099451,275.2123,0.1345286,-1,23.46983528137207,200,-9999,11238.70821875,0.9700927734375,0.094390869140625,-0.12652587890625,11238.70318375,-3.105931116853319,1.43756038342441,-0.09580995908417345,-0.001130704768002033,0.008492110297083855,0.002018637955188751,-0.01945322751998901,-0.001631349325180054,0.002306461334228516,2,0.6569645685975719,0.04776111000517513,-0.7521888867260798,-0.01812326960576499,0.9865916967391968,0.09566344320774078,-0.1322328597307205,38.5732421875,4.492012023925781,-20.977294921875,2,11224.65753175,2,2,1580907508.898698,1580903939.50652,2435,0.4661743,0,0,2995.009,10,12,1580907483.189245,11235.721349,0,10.80972,97.0776
1580907522.925365,143,0,1580907286.99823,41.20781296037784,29.0754925099451,275.2123,0.1345286,-1,23.46983528137207,200,-9999,11238.71825975,0.9694976806640625,0.0957183837890625,-0.127960205078125,11238.71322375,-3.105925514867667,1.437658736429068,-0.09579455612657514,-0.0004564989358186722,0.01048496924340725,0.001509048044681549,-0.01925408840179443,-0.001570217311382294,0.003246724605560303,2,0.657001779901551,0.04775627301969541,-0.7521566615222289,-0.01811845489796471,0.9866060018539429,0.09564810991287231,-0.1321360021829605,38.5732421875,4.492012023925781,-20.977294921875,2,11224.65753175,2,2,1580907508.898698,1580903939.50652,2435,0.4661743,0,0,2995.009,10,12,1580907483.189245,11235.721349,0,10.80972,97.0776
1580907522.935429,144,0,1580907286.99823,41.20781296037784,29.0754925099451,275.2123,0.1345286,-1,23.46983528137207,200,-9999,11238.72829975,0.9683380126953125,0.09539794921875,-0.1273040771484375,11238.72326375,-3.105930120444425,1.437772322318393,-0.09577100495694421,0.000573611818253994,0.01208393089473248,0.00292691495269537,-0.01962226629257202,-0.0007074475288391113,0.002204060554504395,2,0.6570451284912048,0.04774488875430164,-0.7521196945331713,-0.01811513810430218,0.9866233468055725,0.09562467038631439,-0.1320242434740067,38.50251007080078,4.453710556030273,-21.067138671875,2,11224.65753175,2,2,1580907508.898698,1580903939.50652,2435,0.4661743,0,0,2995.009,10,12,1580907483.189245,11235.721349,0,10.80972,97.0776
1580907522.945589,145,0,1580907286.99823,41.20781296037784,29.0754925099451,275.2123,0.1345286,-1,23.46983528137207,200,-9999,11238.73833975,0.970550537109375,0.094268798828125,-0.126678466796875,11238.73330475,-3.105931415966984,1.437889740547325,-0.09574249173855731,0.0008334154263138771,0.01222657039761543,0.003132350742816925,-0.02093750238418579,0.0001297295093536377,0.001661002635955811,2,0.6570899563733188,0.04773269312855987,-0.7520814302397097,-0.01810904406448507,0.986641526222229,0.09559628367424011,-0.1319087594747543,38.50251007080078,4.453710556030273,-21.067138671875,2,11224.65753175,2,2,1580907508.898698,1580903939.50652,2435,0.4661743,0,0,2995.009,10,12,1580907483.189245,11235.721349,0,10.80972,97.0776
1580907522.972606,146,0,1580907286.99823,41.20781296037784,29.0754925099451,275.2123,0.1345286,-1,23.46983528137207,200,-9999,11238.74837975,0.97076416015625,0.094329833984375,-0.127227783203125,11238.74334475,-3.105922818035066,1.438001148488753,-0.09573725997327953,-0.0007674107328057289,0.01018818840384483,0.0009120730683207512,-0.01973199844360352,-0.001665592193603516,0.002573192119598389,2,0.6571317628634844,0.04773254472519686,-0.752044947386284,-0.01810674932261901,0.986656665802002,0.09559107571840286,-0.1317989081144333,38.45468139648438,4.306480407714844,-20.9254150390625,2,11224.65753175,2,2,1580907508.898698,1580903939.50652,2435,0.4661743,0,0,2995.009,10,12,1580907483.189245,11235.721349,0,10.80972,97.0776
1580907522.973911,147,0,1580907286.99823,41.20781296037784,29.0754925099451,275.2123,0.1345286,-1,23.46983528137207,200,-9999,11238.75845075,0.9704132080078125,0.095184326171875,-0.126983642578125,11238.75338475,-3.105912529832841,1.438126234086825,-0.09574546162522393,-0.001341217197477818,0.01254868879914284,-0.000806828960776329,-0.01835912466049194,-0.001536443829536438,0.002372980117797852,2,0.6571783693951765,0.04773787150540751,-0.7520037998623369,-0.01810856993896848,0.9866723418235779,0.09559924155473709,-0.1316753774881363,38.45468139648438,4.306480407714844,-20.9254150390625,2,11224.65753175,2,2,1580907508.898698,1580903939.50652,2435,0.4661743,0,0,2995.009,10,12,1580907483.189245,11235.721349,0,10.80972,97.0776
1580907522.975683,148,0,1580907286.99823,41.20781296037784,29.0754925099451,275.2123,0.1345286,-1,23.46983528137207,200,-9999,11238.76849075,0.96881103515625,0.0956573486328125,-0.1261444091796875,11238.76342575,-3.105909295686255,1.438225909254629,-0.09575297203182852,-0.000712178647518158,0.009105753153562546,-0.001458237878978252,-0.01904308795928955,-0.0009488463401794434,0.001755475997924805,2,0.6572155936619656,0.04774085267221424,-0.7519710968433927,-0.01811219636808668,0.9866848587989807,0.0956067219376564,-0.1315769553184509,38.53813171386719,4.366231918334961,-21.019775390625,2,11224.65753175,2,2,1580907508.898698,1580903939.50652,2435,0.4661743,0,0,2995.009,10,12,1580907483.189245,11235.721349,0,10.80972,97.0776
1580907522.985698,149,0,1580907286.99823,41.20781296037784,29.0754925099451,275.2123,0.1345286,-1,23.46983528137207,200,-9999,11238.77853175,0.9690093994140625,0.0963134765625,-0.1263275146484375,11238.77346575,-3.105917633110472,1.438325268303307,-0.09575994815679471,0.0005619721487164497,0.008977686986327171,-0.001372308470308781,-0.01994055509567261,-0.0003607422113418579,0.002770781517028809,2,0.6572530030829196,0.04773982978662439,-0.7519381212965689,-0.01812001366788231,0.9866970777511597,0.09561366587877274,-0.1314788013696671,38.53813171386719,4.366231918334961,-21.019775390625,2,11224.65753175,2,2,1580907508.898698,1580903939.50652,2435,0.4661743,0,0,2995.009,10,12,1580907483.189245,11235.721349,0,10.80972,97.0776
1580907522.995855,150,0,1580907286.99823,41.20781296037784,29.0754925099451,275.2123,0.1345286,-1,23.46983528137207,200,-9999,11238.78857175,0.9694366455078125,0.0949554443359375,-0.12677001953125,11238.78353675,-3.10591633676221,1.438426793514333,-0.0957675298833665,-0.0001717293635010719,0.01037158444523811,-0.000739541370421648,-0.02099078893661499,0.0005319789052009583,0.002853453159332275,2,0.6572909638591029,0.04774218349199111,-0.7519047942905736,-0.01812443622617586,0.9867098331451416,0.09562121331691742,-0.1313785463571548,38.68094635009766,4.334014892578125,-20.98394775390625,2,11224.65753175,2,2,1580907508.898698,1580903939.50652,2435,0.4661743,0,0,2995.009,10,12,1580907483.189245,11235.721349,0,10.80972,97.0776
1580907523.005719,151,0,1580907286.99823,41.20781296037784,29.0754925099451,275.2123,0.1345286,-1,23.46983528137207,200,-9999,11238.79861175,0.9697723388671875,0.093841552734375,-0.1269378662109375,11238.79357675,-3.105915522389372,1.438519534599129,-0.09577985218143949,0.001226885244250298,0.008950987830758095,-0.001809250563383102,-0.01978105306625366,-0.0004416406154632568,0.002395331859588623,2,0.6573255366080442,0.04774623544944531,-0.7518741165632667,-0.01813040642161862,0.9867208003997803,0.09563347697257996,-0.1312868744134903,38.68094635009766,4.334014892578125,-20.98394775390625,2,11224.65753175,2,2,1580907508.898698,1580903939.50652,2435,0.4661743,0,0,2995.009,10,12,1580907483.189245,11235.721349,0,10.80972,97.0776
1580907523.033493,152,0,1580907286.99823,41.20781296037784,29.0754925099451,275.2123,0.1345286,-1,23.46983528137207,200,-9999,11238.80865275,0.9703521728515625,0.0943603515625,-0.1254425048828125,11238.80361675,-3.105907774473409,1.438617942685086,-0.09577126227549909,0.000659366138279438,0.009535018354654312,0.001857922412455082,-0.01997798681259155,-0.001775816082954407,0.001657307147979736,2,0.6573625318307608,0.04774466701833318,-0.7518420626049618,-0.01812700443366554,0.9867346882820129,0.09562492370605469,-0.1311898976564407,38.65126037597656,4.358678817749023,-20.91168212890625,2,11224.65753175,2,2,1580907508.898698,1580903939.50652,2435,0.4661743,0,0,2995.009,10,12,1580907483.189245,11235.721349,0,10.80972,97.0776
1580907523.034838,153,0,1580907286.99823,41.20781296037784,29.0754925099451,275.2123,0.1345286,-1,23.46983528137207,200,-9999,11238.81869275,0.9698638916015625,0.0954132080078125,-0.125732421875,11238.81365775,-3.105896361185084,1.438689308212194,-0.09576424677963367,-0.0007756408303976059,0.006118018180131912,0.0007956819608807564,-0.01911830902099609,-0.00184515118598938,0.002730965614318848,2,0.657389253160238,0.04774513670693309,-0.7518186548572531,-0.01812211908178768,0.9867445230484009,0.09561794251203537,-0.1311195492744446,38.81183624267578,4.358482360839844,-20.89361572265625,2,11224.65753175,2,2,1580907508.898698,1580903939.50652,2435,0.4661743,0,0,2995.009,10,12,1580907483.189245,11235.721349,0,10.80972,97.0776
1580907523.036346,154,0,1580907286.99823,41.20781296037784,29.0754925099451,275.2123,0.1345286,-1,23.46983528137207,200,-9999,11238.82873275,0.96881103515625,0.0952606201171875,-0.1266326904296875,11238.82369775,-3.105891112254872,1.438782434093846,-0.09574693930649304,0.0002406211569905281,0.009214209392666817,0.00202073622494936,-0.01946806907653809,-0.0008207857608795166,0.00337141752243042,2,0.6574245171861423,0.04773952330986323,-0.7517883930697509,-0.01811666109827653,0.9867584705352783,0.09560071676969528,-0.13102787733078,38.81183624267578,4.358482360839844,-20.89361572265625,2,11224.65753175,2,2,1580907508.898698,1580903939.50652,2435,0.4661743,0,0,2995.009,10,12,1580907483.189245,11235.721349,0,10.80972,97.0776
1580907523.046074,155,0,1580907286.99823,41.20781296037784,29.0754925099451,275.2123,0.1345286,-1,23.46983528137207,200,-9999,11238.83880375,0.9696502685546875,0.0958404541015625,-0.125762939453125,11238.83373775,-3.10587986056169,1.438875589303161,-0.09572463448886377,-0.0001192511990666389,0.008754484355449677,0.002548657357692719,-0.02080988883972168,-0.0003254860639572144,0.001814663410186768,2,0.6574597695565915,0.04773400606654734,-0.7517580801611444,-0.01810731415492547,0.9867727160453796,0.09557851403951645,-0.1309362351894379,38.86666107177734,4.281747817993164,-20.90338134765625,2,11224.65753175,2,2,1580907508.898698,1580903939.50652,2435,0.4661743,0,0,2995.009,10,12,1580907483.189245,11235.721349,0,10.80972,97.0776
1580907523.055965,156,0,1580907286.99823,41.20781296037784,29.0754925099451,275.2123,0.1345286,-1,23.46983528137207,200,-9999,11238.84884375,0.9697723388671875,0.0947265625,-0.1262359619140625,11238.84377775,-3.105873642369277,1.438967117757482,-0.09569338163315992,0.0010192496702075,0.009639719501137733,0.003279427997767925,-0.02010774612426758,-0.0003858655691146851,0.002670466899871826,2,0.6574947269895002,0.04772349218839148,-0.7517284145481634,-0.01809686805218763,0.9867876172065735,0.0955474004149437,-0.130846306681633,38.86666107177734,4.281747817993164,-20.90338134765625,2,11224.65753175,2,2,1580907508.898698,1580903939.50652,2435,0.4661743,0,0,2995.009,10,12,1580907483.189245,11235.721349,0,10.80972,97.0776
1580907523.066008,157,0,1580907286.99823,41.20781296037784,29.0754925099451,275.2123,0.1345286,-1,23.46983528137207,200,-9999,11238.85888475,0.9697723388671875,0.0939788818359375,-0.125518798828125,11238.85381875,-3.105868420301785,1.439053936973096,-0.09565355208298157,0.0006150621920824051,0.007638417184352875,0.004237018525600433,-0.01995503902435303,-0.0002392977476119995,0.002020478248596191,2,0.6575281275997767,0.04770947608713277,-0.7517004191743282,-0.01808385537577321,0.9868028163909912,0.09550775587558746,-0.130761131644249,38.72618103027344,4.261495590209961,-20.94970703125,2,11224.65753175,2,2,1580907508.898698,1580903939.50652,2435,0.4661743,0,0,2995.009,10,12,1580907483.189245,11235.721349,0,10.80972,97.0776
1580907523.090903,158,0,1580907286.99823,41.20781296037784,29.0754925099451,275.2123,0.1345286,-1,23.46983528137207,200,-9999,11238.86892475,0.971099853515625,0.0959625244140625,-0.1240692138671875,11238.86385875,-3.105860121195231,1.439136125142595,-0.09561397407698255,5.899369716644287e-05,0.007465843111276627,0.004203995689749718,-0.02004587650299072,-0.002107128500938416,0.002550065517425537,2,0.6575597077830754,0.04769660900348868,-0.7516739613584712,-0.01806965814054043,0.9868173003196716,0.09546835720539093,-0.1306805312633514,38.72618103027344,4.261495590209961,-20.94970703125,2,11224.65753175,2,2,1580907508.898698,1580903939.50652,2435,0.4661743,0,0,2995.009,10,12,1580907483.189245,11235.721349,0,10.80972,97.0776
1580907523.092608,159,0,1580907286.99823,41.20781296037784,29.0754925099451,275.2123,0.1345286,-1,23.46983528137207,200,-9999,11238.87896475,0.9707794189453125,0.094940185546875,-0.1258697509765625,11238.87392975,-3.1058541730388,1.439201723351093,-0.09557258425698506,0.0003824839368462563,0.006774034351110458,0.005141779780387878,-0.018898606300354,-0.0002499893307685852,0.003798246383666992,2,0.657585141304178,0.04768244146159103,-0.7516530728394242,-0.01805534119103409,0.986829936504364,0.09542715549468994,-0.1306163370609283,38.79229736328125,4.219236373901367,-20.92254638671875,2,11224.65753175,2,2,1580907508.898698,1580903939.50652,2435,0.4661743,0,0,2995.009,10,12,1580907483.189245,11235.721349,0,10.80972,97.0776
1580907523.096319,160,0,1580907286.99823,41.20781296037784,29.0754925099451,275.2123,0.1345286,-1,23.46983528137207,200,-9999,11238.88900475,0.9694061279296875,0.0941162109375,-0.1265716552734375,11238.88396975,-3.105854211593488,1.439272510121593,-0.09553346013962104,0.001211525872349739,0.007824117317795753,0.004495164379477501,-0.01848453283309937,-0.0003025457262992859,0.002858340740203857,2,0.6576126377660351,0.04766710551555525,-0.7516300442977955,-0.01804417311915436,0.9868426322937012,0.09538821130990982,-0.1305469274520874,38.79229736328125,4.219236373901367,-20.92254638671875,2,11224.65753175,2,2,1580907508.898698,1580903939.50652,2435,0.4661743,0,0,2995.009,10,12,1580907483.189245,11235.721349,0,10.80972,97.0776
1580907523.106157,161,0,1580907286.99823,41.20781296037784,29.0754925099451,275.2123,0.1345286,-1,23.46983528137207,200,-9999,11238.89904575,0.968505859375,0.0939178466796875,-0.1265411376953125,11238.89400975,-3.105854395777842,1.439347259556486,-0.09548315896682447,0.0008338028565049171,0.00705907866358757,0.005554390139877796,-0.01976549625396729,-0.001259379088878632,0.001442492008209229,2,0.6576418529125186,0.04764749734738792,-0.7516062231992332,-0.01802943862063046,0.9868572950363159,0.0953381359577179,-0.1304738223552704,38.84276580810547,4.27387809753418,-20.81109619140625,2,11224.65753175,2,2,1580907508.898698,1580903939.50652,2435,0.4661743,0,0,2995.009,10,12,1580907483.189245,11235.721349,0,10.80972,97.0776
1580907523.116143,162,0,1580907286.99823,41.20781296037784,29.0754925099451,275.2123,0.1345286,-1,23.46983528137207,200,-9999,11238.90908575,0.9693450927734375,0.09454345703125,-0.1259765625,11238.90405075,-3.105863232923653,1.439438542014903,-0.09542751629677179,0.001897202804684639,0.008847657591104507,0.006185293197631836,-0.02080506086349487,-0.001951515674591064,0.001368045806884766,2,0.657677618193366,0.04762288921472045,-0.7515767485376753,-0.01801660525879134,0.9868744015693665,0.09528274834156036,-0.1303844153881073,38.84276580810547,4.27387809753418,-20.81109619140625,2,11224.65753175,2,2,1580907508.898698,1580903939.50652,2435,0.4661743,0,0,2995.009,10,12,1580907483.189245,11235.721349,0,10.80972,97.0776
