loggingTime,loggingSample,identifierForVendor,locationTimestamp_since1970,locationLatitude,locationLongitude,locationAltitude,locationSpeed,locationCourse,locationVerticalAccuracy,locationHorizontalAccuracy,locationFloor,accelerometerTimestamp_sinceReboot,accelerometerAccelerationX,accelerometerAccelerationY,accelerometerAccelerationZ,motionTimestamp_sinceReboot,motionYaw,motionRoll,motionPitch,motionRotationRateX,motionRotationRateY,motionRotationRateZ,motionUserAccelerationX,motionUserAccelerationY,motionUserAccelerationZ,motionAttitudeReferenceFrame,motionQuaternionX,motionQuaternionY,motionQuaternionZ,motionQuaternionW,motionGravityX,motionGravityY,motionGravityZ,motionMagneticFieldX,motionMagneticFieldY,motionMagneticFieldZ,motionMagneticFieldCalibrationAccuracy,activityTimestamp_sinceReboot,activity,activityActivityConfidence,activityActivityStartDate,pedometerStartDate,pedometerNumberofSteps,pedometerAverageActivePace,pedometerCurrentPace,pedometerCurrentCadence,pedometerDistance,pedometerFloorAscended,pedometerFloorDescended,pedometerEndDate,altimeterTimestamp_sinceReboot,altimeterReset,altimeterRelativeAltitude,altimeterPressure
1580905431.58299,1,0,1580904337.000819,41.20701635159924,29.07533761282497,172.748,-1,-1,5.74967098236084,48.00724964208526,-9999,9147.323926000001,0.9564361572265625,0.08306884765625,-0.1747589111328125,9147.318860000001,2.32116917463121,1.399576023749469,-0.08287079681872456,-0.007555461954325438,0.02280564606189728,0.01351511850953102,-0.03123611211776733,-0.001653820276260376,-0.006529569625854492,2,-0.60275276262458,0.2275719777006004,0.6902715175470098,0.3292800210216701,0.9819959402084351,0.08277597278356552,-0.1698002070188522,45.17347717285156,6.933500289916992,-8.35247802734375,2,9147.164899000001,4,1,1580905431.406065,1580903939.50652,1111,0.4627655,0,0,1410.409,1,0,1580905431.406553,9144.899299000001,0,2.713654,97.17159
1580905431.633196,2,0,1580904337.000819,41.20701635159924,29.07533761282497,172.748,-1,-1,5.74967098236084,48.00724964208526,-9999,9147.333966,0.954803466796875,0.0816192626953125,-0.18023681640625,9147.3289,2.321288164874924,1.399899505097387,-0.08268355980005525,-0.008554413914680481,0.03169474750757217,0.01982973888516426,-0.02682030200958252,0.0003793537616729736,-0.006280303001403809,2,-0.602851687086197,0.2276559918579481,0.6902204052614204,0.3291481225114578,0.9820661544799805,0.08258938044309616,-0.1694851815700531,45.17347717285156,6.933500289916992,-8.35247802734375,2,9147.164899000001,4,1,1580905431.406065,1580903939.50652,1111,0.4627655,0,0,1410.409,1,0,1580905431.406553,9144.899299000001,0,2.713654,97.17159
1580905431.634243,3,0,1580904337.000819,41.20701635159924,29.07533761282497,172.748,-1,-1,5.74967098236084,48.00724964208526,-9999,9147.344007,0.9614105224609375,0.07879638671875,-0.177337646484375,9147.338941,2.321407996581203,1.400371790197392,-0.08247494604505405,-0.008758301846683025,0.04908903688192368,0.02256645634770393,-0.02855002880096436,-0.0008620619773864746,-0.01221972703933716,2,-0.6029990731933603,0.2277717773186589,0.6901275392720635,0.3289927357850696,0.9821630716323853,0.0823814794421196,-0.1690242737531662,45.07186889648438,6.951498031616211,-8.39520263671875,2,9147.164899000001,4,1,1580905431.406065,1580903939.50652,1111,0.4627655,0,0,1410.409,1,0,1580905431.406553,9144.899299000001,0,2.713654,97.17159
1580905431.635059,4,0,1580904337.000819,41.20701635159924,29.07533761282497,172.748,-1,-1,5.74967098236084,48.00724964208526,-9999,9147.354047000001,0.970428466796875,0.0791015625,-0.17340087890625,9147.348981000001,2.321527744037645,1.400864907760521,-0.0822765419779493,-0.008073071017861366,0.05026455223560333,0.02120691165328026,-0.02204251289367676,-0.00348702073097229,-0.009802877902984619,2,-0.6031550732417382,0.2278872991562733,0.690026808849062,0.328837852054034,0.9822622537612915,0.08218374848365784,-0.168542668223381,45.07186889648438,6.951498031616211,-8.39520263671875,2,9147.164899000001,4,1,1580905431.406065,1580903939.50652,1111,0.4627655,0,0,1410.409,1,0,1580905431.406553,9144.899299000001,0,2.713654,97.17159
1580905431.635898,5,0,1580904337.000819,41.20701635159924,29.07533761282497,172.748,-1,-1,5.74967098236084,48.00724964208526,-9999,9147.364087,0.9705657958984375,0.0793914794921875,-0.171234130859375,9147.359021,2.321651649537366,1.401291283071781,-0.08211229744285424,-0.008955518715083599,0.04221118614077568,0.01733322441577911,-0.01310980319976807,-0.003017961978912354,-0.006283283233642578,2,-0.6032932840565126,0.2279784092301891,0.6899420135779372,0.3286990189774976,0.982347309589386,0.08202005922794342,-0.1681261211633682,45.16089630126953,6.600822448730469,-8.30377197265625,2,9147.164899000001,4,1,1580905431.406065,1580903939.50652,1111,0.4627655,0,0,1410.409,1,0,1580905431.406553,9144.899299000001,0,2.713654,97.17159
1580905431.636684,6,0,1580904337.000819,41.20701635159924,29.07533761282497,172.748,-1,-1,5.74967098236084,48.00724964208526,-9999,9147.374127000001,0.971893310546875,0.079803466796875,-0.1704254150390625,9147.369092000001,2.321764200040631,1.401572895057889,-0.08199038201599738,-0.008402646519243717,0.02677630633115768,0.01292702276259661,-0.01302957534790039,-0.002606332302093506,-0.004391729831695557,2,-0.6033861890240627,0.2280340632124939,0.6898929347632925,0.3285928116666328,0.9824044704437256,0.08189854770898819,-0.1678511500358582,45.16089630126953,6.600822448730469,-8.30377197265625,2,9147.164899000001,4,1,1580905431.406065,1580903939.50652,1111,0.4627655,0,0,1410.409,1,0,1580905431.406553,9144.899299000001,0,2.713654,97.17159
1580905431.637457,7,0,1580904337.000819,41.20701635159924,29.07533761282497,172.748,-1,-1,5.74967098236084,48.00724964208526,-9999,9147.384168,0.96722412109375,0.0795440673828125,-0.172637939453125,9147.379132,2.321866202329827,1.401761548412122,-0.08189863348681015,-0.0095962043851614,0.01966315135359764,0.01083865016698837,-0.0117412805557251,-0.002102822065353394,-0.00376737117767334,2,-0.6034500316898419,0.2280669120816226,0.6898659198708896,0.3285096273615187,0.9824435710906982,0.08180710673332214,-0.1676670908927917,45.18494415283203,6.77354621887207,-8.250732421875,2,9147.164899000001,4,1,1580905431.406065,1580903939.50652,1111,0.4627655,0,0,1410.409,1,0,1580905431.406553,9144.899299000001,0,2.713654,97.17159
1580905431.638289,8,0,1580904337.000819,41.20701635159924,29.07533761282497,172.748,-1,-1,5.74967098236084,48.00724964208526,-9999,9147.394208,0.9665985107421875,0.0802764892578125,-0.1706085205078125,9147.389173000001,2.321954061181547,1.401851977359578,-0.08183583691222494,-0.007109611295163631,0.006407534703612328,0.006420466117560863,-0.01643073558807373,-0.002299576997756958,-0.006067872047424316,2,-0.6034824290574489,0.2280776049427807,0.6898621057184545,0.3284509193457511,0.9824638962745667,0.08174452185630798,-0.1675791293382645,45.18494415283203,6.77354621887207,-8.250732421875,2,9147.164899000001,4,1,1580905431.406065,1580903939.50652,1111,0.4627655,0,0,1410.409,1,0,1580905431.406553,9144.899299000001,0,2.713654,97.17159
1580905431.639121,9,0,1580904337.000819,41.20701635159924,29.07533761282497,172.748,-1,-1,5.74967098236084,48.00724964208526,-9999,9147.404248000001,0.960662841796875,0.0807647705078125,-0.17437744140625,9147.399213000001,2.322027882562089,1.401966302515465,-0.08174222521452043,-0.005104450508952141,0.01417064666748047,0.01041294261813164,-0.01708298921585083,-0.001473724842071533,-0.004149794578552246,2,-0.6035171951701135,0.2281073438575353,0.6898530055418612,0.3283852569052481,0.9824904799461365,0.0816512256860733,-0.1674680709838867,45.15815734863281,6.721691131591797,-8.367828369140625,2,9147.164899000001,4,1,1580905431.406065,1580903939.50652,1111,0.4627655,0,0,1410.409,1,0,1580905431.406553,9144.899299000001,0,2.713654,97.17159
1580905431.63996,10,0,1580904337.000819,41.20701635159924,29.07533761282497,172.748,-1,-1,5.74967098236084,48.00724964208526,-9999,9147.414289,0.972503662109375,0.083953857421875,-0.166717529296875,9147.409253,2.322063957807982,1.401940003769081,-0.08160903345438973,-0.00154913030564785,-0.003384379670023918,0.014478525146842,-0.02302491664886475,-0.0008525252342224121,-0.007890820503234863,2,-0.6034935912549065,0.2281394750136291,0.6898858544867792,0.3283372650409233,0.9824967384338379,0.08151847869157791,-0.1674957275390625,45.15815734863281,6.721691131591797,-8.367828369140625,2,9147.407117000001,2,0,1580905431.648283,1580903939.50652,1111,0.4627655,0,0,1410.409,1,0,1580905431.406553,9144.899299000001,0,2.713654,97.17159
1580905431.649156,11,0,1580904337.000819,41.20701635159924,29.07533761282497,172.748,-1,-1,5.74967098236084,48.00724964208526,-9999,9147.424329000001,0.9731903076171875,0.0799560546875,-0.1688690185546875,9147.419293000001,2.322059107250162,1.401721907308654,-0.08147589056781145,0.004270373843610287,-0.02182831801474094,0.01343991234898567,-0.01115822792053223,0.002469420433044434,-1.46031379699707e-05,2,-0.6033991589100784,0.2281524528558977,0.6899698403668815,0.3283252833020869,0.9824708700180054,0.0813857764005661,-0.1677118241786957,45.0640869140625,7.096214294433594,-8.262939453125,2,9147.407117000001,2,0,1580905431.648283,1580903939.50652,1111,0.4627655,0,0,1410.409,1,0,1580905431.406553,9144.899299000001,0,2.713654,97.17159
1580905431.659129,12,0,1580904337.000819,41.20701635159924,29.07533761282497,172.748,-1,-1,5.74967098236084,48.00724964208526,-9999,9147.434369000001,0.9661102294921875,0.0779266357421875,-0.1749420166015625,9147.429334,2.322041778354504,1.401456704172909,-0.08140234317320837,0.00326902512460947,-0.02571520209312439,0.00599637720733881,-0.0104328989982605,-0.001455008983612061,-0.00190424919128418,2,-0.6032953755491886,0.228140296284601,0.6900575147340569,0.3283402631498442,0.9824323058128357,0.08131247013807297,-0.1679733842611313,45.0640869140625,7.096214294433594,-8.262939453125,2,9147.407117000001,2,0,1580905431.648283,1580903939.50652,1111,0.4627655,0,0,1410.409,1,0,1580905431.406553,9144.899299000001,0,2.713654,97.17159
1580905431.67109,13,0,1580904337.000819,41.20701635159924,29.07533761282497,172.748,-1,-1,5.74967098236084,48.00724964208526,-9999,9147.444440000001,0.9619293212890625,0.0758819580078125,-0.1758575439453125,9147.439374000001,2.322004224063598,1.401236088503455,-0.08139832698425943,0.004134972579777241,-0.021792221814394,-0.001065846066921949,-0.01747620105743408,-0.003480464220046997,-0.007760226726531982,2,-0.6032144162133841,0.2281168172202472,0.690118429322843,0.3283771894915034,0.9823954701423645,0.08130846917629242,-0.1681901663541794,45.21311950683594,6.826147079467773,-8.25189208984375,2,9147.407117000001,2,0,1580905431.648283,1580903939.50652,1111,0.4627655,0,0,1410.409,1,0,1580905431.406553,9144.899299000001,0,2.713654,97.17159
1580905431.689645,14,0,1580904337.000819,41.20701635159924,29.07533761282497,172.748,-1,-1,5.74967098236084,48.00724964208526,-9999,9147.454477916668,0.953887939453125,0.07476806640625,-0.1815338134765625,9147.449414000001,2.321998987762254,1.401155282520602,-0.08146157949062614,-0.002653159201145172,-0.008354176767170429,-0.008106178604066372,-0.02163845300674438,-0.00558820366859436,-0.008597016334533691,2,-0.6031947854435035,0.228082661884505,0.690132976696056,0.3284065573362762,0.9823769330978394,0.08137151598930359,-0.168268695473671,45.21311950683594,6.826147079467773,-8.25189208984375,2,9147.407117000001,2,0,1580905431.648283,1580903939.50652,1111,0.4627655,0,0,1410.409,1,0,1580905431.406553,9144.899299000001,0,2.713654,97.17159
1580905431.69068,15,0,1580904337.000819,41.20701635159924,29.07533761282497,172.748,-1,-1,5.74967098236084,48.00724964208526,-9999,9147.464518916668,0.95367431640625,0.0809173583984375,-0.1799774169921875,9147.459452916668,2.321994778780887,1.401263562288386,-0.0814917520984898,4.591792821884155e-05,0.01291565783321857,-0.002296649385243654,-0.02969568967819214,-0.006732195615768433,-0.01438033580780029,2,-0.603235900741119,0.2280909770849021,0.6900953059295512,0.3284043690638802,0.9823926687240601,0.08140158653259277,-0.1681619137525558,45.24649810791016,6.898693084716797,-8.307525634765625,2,9147.407117000001,2,0,1580905431.648283,1580903939.50652,1111,0.4627655,0,0,1410.409,1,0,1580905431.406553,9144.899299000001,0,2.713654,97.17159
1580905431.699322,16,0,1580904337.000819,41.20701635159924,29.07533761282497,172.748,-1,-1,5.74967098236084,48.00724964208526,-9999,9147.474558916667,0.95928955078125,0.0815887451171875,-0.173675537109375,9147.469492916667,2.322006742080244,1.401403348946992,-0.08147449001266299,-0.0001881737262010574,0.01368051581084728,0.002158552408218384,-0.02993422746658325,-0.0005657076835632324,-0.01296114921569824,2,-0.6032830623760581,0.2281164815899536,0.6900576314689847,0.3283793656783324,0.9824176430702209,0.08138438314199448,-0.1680248379707336,45.24649810791016,6.898693084716797,-8.307525634765625,2,9147.407117000001,2,0,1580905431.648283,1580903939.50652,1111,0.4627655,0,0,1410.409,1,0,1580905431.406553,9144.899299000001,0,2.713654,97.17159
1580905431.70948,17,0,1580904337.000819,41.20701635159924,29.07533761282497,172.748,-1,-1,5.74967098236084,48.00724964208526,-9999,9147.484598916668,0.9631500244140625,0.081787109375,-0.17279052734375,9147.479532916666,2.32201853493683,1.401541105932942,-0.08140996299444654,0.0006547980010509491,0.01372236385941505,0.006756014190614223,-0.02434730529785156,0.0001700222492218018,-0.00679391622543335,2,-0.6033229137135316,0.2281584528529279,0.690027145390453,0.3283408523191812,0.9824458360671997,0.08132006973028183,-0.1678903698921204,45.33125305175781,6.650163650512695,-8.035614013671875,2,9147.407117000001,2,0,1580905431.648283,1580903939.50652,1111,0.4627655,0,0,1410.409,1,0,1580905431.406553,9144.899299000001,0,2.713654,97.17159
1580905431.719435,18,0,1580904337.000819,41.20701635159924,29.07533761282497,172.748,-1,-1,5.74967098236084,48.00724964208526,-9999,9147.494638916667,0.963623046875,0.079376220703125,-0.1715850830078125,9147.489603916667,2.322045765298391,1.401642436399099,-0.08130733829824295,-0.001675734762102365,0.01057850196957588,0.01080748066306114,-0.02051198482513428,0.0004708170890808105,-0.006007194519042969,2,-0.6033466076468817,0.228203343321729,0.6900156604921762,0.3282901889796642,0.9824710488319397,0.08121778070926666,-0.1677922159433365,45.33125305175781,6.650163650512695,-8.035614013671875,2,9147.407117000001,2,0,1580905431.648283,1580903939.50652,1111,0.4627655,0,0,1410.409,1,0,1580905431.406553,9144.899299000001,0,2.713654,97.17159
1580905431.731015,19,0,1580904337.000819,41.20701635159924,29.07533761282497,172.748,-1,-1,5.74967098236084,48.00724964208526,-9999,9147.504679916667,0.9615936279296875,0.080230712890625,-0.17266845703125,9147.499643916668,2.322083628681404,1.401698550267638,-0.08115761980299108,-0.002033744007349014,0.004230290651321411,0.01525358203798532,-0.02006024122238159,-0.001790642738342285,-0.004854738712310791,2,-0.6033493082622811,0.2282543509722439,0.6900263039007402,0.3282274168857121,0.9824924468994141,0.08106856048107147,-0.1677391231060028,45.33631896972656,6.744422912597656,-8.340057373046875,2,9147.407117000001,2,0,1580905431.648283,1580903939.50652,1111,0.4627655,0,0,1410.409,1,0,1580905431.406553,9144.899299000001,0,2.713654,97.17159
1580905431.749933,20,0,1580904337.000819,41.20701635159924,29.07533761282497,172.748,-1,-1,5.74967098236084,48.00724964208526,-9999,9147.514719916668,0.9591827392578125,0.0792083740234375,-0.17669677734375,9147.509684916668,2.322111574234071,1.401803490491389,-0.08097363325559223,0.0005758870393037796,0.01050496287643909,0.01894152909517288,-0.02212214469909668,-0.000752568244934082,-0.006039023399353027,2,-0.6033629234477865,0.2283285322993128,0.6900254554211431,0.3281525586097013,0.9825247526168823,0.08088517189025879,-0.1676385253667831,45.33631896972656,6.744422912597656,-8.340057373046875,2,9147.407117000001,2,0,1580905431.648283,1580903939.50652,1111,0.4627655,0,0,1410.409,1,0,1580905431.406553,9144.899299000001,0,2.713654,97.17159
1580905431.750868,21,0,1580904337.000819,41.20701635159924,29.07533761282497,172.748,-1,-1,5.74967098236084,48.00724964208526,-9999,9147.524759916667,0.9633941650390625,0.076446533203125,-0.1761932373046875,9147.519724916667,2.322160832733773,1.401975399735187,-0.08081266795060435,-0.001975687220692635,0.01747765205800533,0.01583628356456757,-0.02457481622695923,-0.001614242792129517,-0.01023417711257935,2,-0.6034052816423127,0.2283991094052735,0.6900046911954694,0.3280694271702898,0.9825664758682251,0.08072473853826523,-0.1674718260765076,45.37360382080078,6.800613403320312,-8.201751708984375,2,9147.407117000001,2,0,1580905431.648283,1580903939.50652,1111,0.4627655,0,0,1410.409,1,0,1580905431.406553,9144.899299000001,0,2.713654,97.17159
1580905431.759651,22,0,1580904337.000819,41.20701635159924,29.07533761282497,172.748,-1,-1,5.74967098236084,48.00724964208526,-9999,9147.534800916666,0.9648590087890625,0.0781097412109375,-0.1722259521484375,9147.529764916668,2.322223105581968,1.402160522303032,-0.08064526387630631,-0.00275785755366087,0.01906729303300381,0.01766294240951538,-0.02040779590606689,-0.004209041595458984,-0.00991058349609375,2,-0.6034528021081031,0.2284701715140525,0.689982903085206,0.3279783443353435,0.9826107621192932,0.08055787533521652,-0.1672921925783157,45.37360382080078,6.800613403320312,-8.201751708984375,2,9147.407117000001,2,0,1580905431.648283,1580903939.50652,1111,0.4627655,0,0,1410.409,1,0,1580905431.406553,9144.899299000001,0,2.713654,97.17159
1580905431.769725,23,0,1580904337.000819,41.20701635159924,29.07533761282497,172.748,-1,-1,5.74967098236084,48.00724964208526,-9999,9147.544840916667,0.969757080078125,0.0781402587890625,-0.172088623046875,9147.539804916667,2.322256323567057,1.402300248375894,-0.08050793733814403,-0.0002717161551117897,0.01621242240071297,0.01300379075109959,-0.01897722482681274,-0.002408802509307861,-0.006078839302062988,2,-0.6034855565395733,0.2285318558998237,0.6899657537783379,0.3279111658858441,0.9826450347900391,0.08042099326848984,-0.1671567410230637,45.40196990966797,6.781164169311523,-8.19921875,2,9147.407117000001,2,0,1580905431.648283,1580903939.50652,1111,0.4627655,0,0,1410.409,1,0,1580905431.406553,9144.899299000001,0,2.713654,97.17159
1580905431.779726,24,0,1580904337.000819,41.20701635159924,29.07533761282497,172.748,-1,-1,5.74967098236084,48.00724964208526,-9999,9147.554880916667,0.9754486083984375,0.0793304443359375,-0.1656951904296875,9147.549845916667,2.32228510409176,1.40225631388341,-0.08038667999347014,-0.001320735085755587,-0.004697121679782867,0.01186076179146767,-0.01408147811889648,-0.002257257699966431,-0.005896925926208496,2,-0.603456725781034,0.2285590068091279,0.6900008763821461,0.3278710339642647,0.9826471209526062,0.08030012995004654,-0.1672015190124512,45.40196990966797,6.781164169311523,-8.19921875,2,9147.407117000001,2,0,1580905431.648283,1580903939.50652,1111,0.4627655,0,0,1410.409,1,0,1580905431.406553,9144.899299000001,0,2.713654,97.17159
1580905431.79069,25,0,1580904337.000819,41.20701635159924,29.07533761282497,172.748,-1,-1,5.74967098236084,48.00724964208526,-9999,9147.564951916667,0.9721527099609375,0.08270263671875,-0.16796875,9147.559885916668,2.32228822651336,1.402032981500354,-0.08026190202150858,0.00197399128228426,-0.02251564338803291,0.01199116744101048,-0.008362352848052979,-0.0009425580501556396,0.0007181167602539062,2,-0.6033625085763242,0.2285658343959496,0.6900866535482241,0.3278594655212991,0.9826197624206543,0.08017575740814209,-0.1674226820468903,45.41290283203125,6.945091247558594,-8.218902587890625,2,9147.407117000001,2,0,1580905431.648283,1580903939.50652,1111,0.4627655,0,0,1410.409,1,0,1580905431.406553,9144.899299000001,0,2.713654,97.17159
1580905431.812,26,0,1580904337.000819,41.20701635159924,29.07533761282497,172.748,-1,-1,5.74967098236084,48.00724964208526,-9999,9147.574991916666,0.971527099609375,0.07916259765625,-0.17071533203125,9147.569925916667,2.322256545635917,1.401678776136033,-0.08013970132208045,0.005144485272467136,-0.03542398661375046,0.01133656315505505,-0.01160848140716553,0.002551645040512085,-0.001205265522003174,2,-0.6032195339624058,0.2285607400442964,0.6902056744935532,0.3278754789295395,0.9825699925422668,0.08005394786596298,-0.1677723675966263,45.41290283203125,6.945091247558594,-8.218902587890625,2,9147.407117000001,2,0,1580905431.648283,1580903939.50652,1111,0.4627655,0,0,1410.409,1,0,1580905431.406553,9144.899299000001,0,2.713654,97.17159
1580905431.813222,27,0,1580904337.000819,41.20701635159924,29.07533761282497,172.748,-1,-1,5.74967098236084,48.00724964208526,-9999,9147.585031916668,0.9742584228515625,0.0764617919921875,-0.1707611083984375,9147.579966916668,2.322186893564477,1.401203520968937,-0.08005014859503604,0.008527969941496849,-0.04642048105597496,0.008151141926646233,-0.01216131448745728,-0.0008990764617919922,-0.003483295440673828,2,-0.6030349885541455,0.2285356477010341,0.6903503025446313,0.3279278952680015,0.9824972152709961,0.07996468245983124,-0.1682405173778534,45.31471252441406,6.729442596435547,-8.13275146484375,2,9147.407117000001,2,0,1580905431.648283,1580903939.50652,1111,0.4627655,0,0,1410.409,1,0,1580905431.406553,9144.899299000001,0,2.713654,97.17159
1580905431.819965,28,0,1580904337.000819,41.20701635159924,29.07533761282497,172.748,-1,-1,5.74967098236084,48.00724964208526,-9999,9147.595072916667,0.96881103515625,0.075531005859375,-0.17401123046875,9147.590006916667,2.322091410227062,1.400655828364385,-0.08003151300274963,0.009767137467861176,-0.05303976684808731,-0.0001480672508478165,-0.009338974952697754,-0.003581225872039795,-0.002989828586578369,2,-0.6028323652039792,0.228481285253333,0.690502519076823,0.3280181481872279,0.9824065566062927,0.07994610816240311,-0.1687788814306259,45.31471252441406,6.729442596435547,-8.13275146484375,2,9147.407117000001,2,0,1580905431.648283,1580903939.50652,1111,0.4627655,0,0,1410.409,1,0,1580905431.406553,9144.899299000001,0,2.713654,97.17159
1580905431.830098,29,0,1580904337.000819,41.20701635159924,29.07533761282497,172.748,-1,-1,5.74967098236084,48.00724964208526,-9999,9147.605112916668,0.9605712890625,0.0749053955078125,-0.1760406494140625,9147.600046916667,2.322001783304221,1.400128974472108,-0.08005108075967141,0.008822302334010601,-0.05197736993432045,-0.003670979291200638,-0.01469564437866211,-0.004531592130661011,-0.005722224712371826,2,-0.6026429908435558,0.2284148696787776,0.6906436849054045,0.3281148140991427,0.9823157787322998,0.07996561378240585,-0.1692961454391479,45.20970916748047,6.796291351318359,-8.162139892578125,2,9147.407117000001,2,0,1580905431.648283,1580903939.50652,1111,0.4627655,0,0,1410.409,1,0,1580905431.406553,9144.899299000001,0,2.713654,97.17159
1580905431.839974,30,0,1580904337.000819,41.20701635159924,29.07533761282497,172.748,-1,-1,5.74967098236084,48.00724964208526,-9999,9147.615152916667,0.9505462646484375,0.075042724609375,-0.181793212890625,9147.610117916667,2.321929157679196,1.399779335274854,-0.08009560865330335,0.006672065705060959,-0.03422686830163002,-0.005127994809299707,-0.02287232875823975,-0.005201607942581177,-0.007408022880554199,2,-0.6025201755772198,0.2283635918423248,0.6907308915774425,0.3281928035752499,0.9822531938552856,0.08000999689102173,-0.1696390211582184,45.20970916748047,6.796291351318359,-8.162139892578125,2,9147.407117000001,2,0,1580905431.648283,1580903939.50652,1111,0.4627655,0,0,1410.409,1,0,1580905431.406553,9144.899299000001,0,2.713654,97.17159
1580905431.851533,31,0,1580904337.000819,41.20701635159924,29.07533761282497,172.748,-1,-1,5.74967098236084,48.00724964208526,-9999,9147.625193916667,0.9491729736328125,0.0770416259765625,-0.1825408935546875,9147.620157916666,2.321867305762507,1.399677889185883,-0.08012537141967674,0.005191812291741371,-0.008609790354967117,-0.003751855809241533,-0.03287780284881592,-0.005093991756439209,-0.01306134462356567,2,-0.6024822663003087,0.2283549780799241,0.690747031260369,0.3282343168198552,0.9822335243225098,0.08003966510295868,-0.1697382479906082,45.22554779052734,6.782892227172852,-8.051055908203125,2,9147.407117000001,2,0,1580905431.648283,1580903939.50652,1111,0.4627655,0,0,1410.409,1,0,1580905431.406553,9144.899299000001,0,2.713654,97.17159
1580905431.872453,32,0,1580904337.000819,41.20701635159924,29.07533761282497,172.748,-1,-1,5.74967098236084,48.00724964208526,-9999,9147.635233916668,0.9533233642578125,0.078125,-0.1782379150390625,9147.630197916667,2.321833007464748,1.399711423463046,-0.08008293578138198,0.003882335498929024,0.002856450155377388,0.003909526392817497,-0.034260094165802,-0.003052711486816406,-0.01384139060974121,2,-0.6024839734561961,0.2283859023758988,0.6907373289000842,0.3282300592038201,0.9822425842285156,0.07999736070632935,-0.1697058826684952,45.22554779052734,6.782892227172852,-8.051055908203125,2,9147.407117000001,2,0,1580905431.648283,1580903939.50652,1111,0.4627655,0,0,1410.409,1,0,1580905431.406553,9144.899299000001,0,2.713654,97.17159
1580905431.874583,33,0,1580904337.000819,41.20701635159924,29.07533761282497,172.748,-1,-1,5.74967098236084,48.00724964208526,-9999,9147.645273916667,0.952484130859375,0.0766143798828125,-0.1806793212890625,9147.640238916667,2.321826209157912,1.399916884782173,-0.08000781712341365,0.002000652253627777,0.0213178601115942,0.006931197829544544,-0.03015053272247314,-0.001894325017929077,-0.009739398956298828,2,-0.6025436025313697,0.2284483818644765,0.6906850049154399,0.3281872282181257,0.982283353805542,0.07992248237133026,-0.1695050895214081,45.34931182861328,6.859062194824219,-8.005340576171875,2,9147.407117000001,2,0,1580905431.648283,1580903939.50652,1111,0.4627655,0,0,1410.409,1,0,1580905431.406553,9144.899299000001,0,2.713654,97.17159
1580905431.880231,34,0,1580904337.000819,41.20701635159924,29.07533761282497,172.748,-1,-1,5.74967098236084,48.00724964208526,-9999,9147.655313916668,0.9582977294921875,0.0753173828125,-0.1776275634765625,9147.650278916668,2.321825508628019,1.40025553779284,-0.07994338786318099,0.0007510967552661896,0.03428932279348373,0.005733042024075985,-0.03105223178863525,-0.003340691328048706,-0.01251298189163208,2,-0.6026514260098544,0.2285270544040043,0.6905919833930162,0.3281301173588749,0.9823457002639771,0.07985826581716537,-0.1691732853651047,45.34931182861328,6.859062194824219,-8.005340576171875,2,9147.407117000001,2,0,1580905431.648283,1580903939.50652,1111,0.4627655,0,0,1410.409,1,0,1580905431.406553,9144.899299000001,0,2.713654,97.17159
1580905431.890207,35,0,1580904337.000819,41.20701635159924,29.07533761282497,172.748,-1,-1,5.74967098236084,48.00724964208526,-9999,9147.665354916668,0.961822509765625,0.075439453125,-0.175994873046875,9147.660318916667,2.321826255135791,1.400662351674667,-0.07988625975123595,0.001449163071811199,0.04068230837583542,0.005417081527411938,-0.02531194686889648,-0.004580706357955933,-0.009860694408416748,2,-0.6027839527502858,0.2286138700861554,0.6904776188450106,0.3280668276568737,0.9824188947677612,0.07980131357908249,-0.1687744110822678,45.374267578125,6.609838485717773,-8.18231201171875,2,9147.407117000001,2,0,1580905431.648283,1580903939.50652,1111,0.4627655,0,0,1410.409,1,0,1580905431.406553,9144.899299000001,0,2.713654,97.17159
1580905431.900326,36,0,1580904337.000819,41.20701635159924,29.07533761282497,172.748,-1,-1,5.74967098236084,48.00724964208526,-9999,9147.675425916666,0.9657135009765625,0.07635498046875,-0.1746826171875,9147.670359916667,2.321837165083466,1.401087518504299,-0.0798551274704318,2.67690047621727e-05,0.04281949251890182,0.00272409338504076,-0.02186137437820435,-0.004427522420883179,-0.008645772933959961,2,-0.6029276001109194,0.2286913823351922,0.6903556803485345,0.3280054467214087,0.9824930429458618,0.0797702819108963,-0.1683571189641953,45.374267578125,6.609838485717773,-8.18231201171875,2,9147.407117000001,2,0,1580905431.648283,1580903939.50652,1111,0.4627655,0,0,1410.409,1,0,1580905431.406553,9144.899299000001,0,2.713654,97.17159
1580905431.911494,37,0,1580904337.000819,41.20701635159924,29.07533761282497,172.748,-1,-1,5.74967098236084,48.00724964208526,-9999,9147.685465916667,0.96771240234375,0.0793914794921875,-0.1720428466796875,9147.680399916668,2.321868576848665,1.401456025730998,-0.07981064012990967,-0.002960108686238527,0.0380517914891243,0.004625914618372917,-0.01803600788116455,-0.003467559814453125,-0.007695376873016357,2,-0.6030521170810541,0.2287581846252321,0.6902561445362189,0.327939669055009,0.9825586080551147,0.07972593605518341,-0.1679956763982773,45.30450439453125,6.562307357788086,-8.05633544921875,2,9147.407117000001,2,0,1580905431.648283,1580903939.50652,1111,0.4627655,0,0,1410.409,1,0,1580905431.406553,9144.899299000001,0,2.713654,97.17159
1580905431.937012,38,0,1580904337.000819,41.20701635159924,29.07533761282497,172.748,-1,-1,5.74967098236084,48.00724964208526,-9999,9147.695505916667,0.9671783447265625,0.0818328857421875,-0.1700592041015625,9147.690439916667,2.321887167405864,1.401710702531154,-0.0797130081791647,-0.0004580691456794739,0.0250433161854744,0.0106318760663271,-0.01608759164810181,-0.0003336966037750244,-0.005304813385009766,2,-0.6031284307782807,0.2288290287392162,0.6901962949079581,0.327875865378594,0.9826090335845947,0.07962861657142639,-0.1677467375993729,45.41439819335938,6.604507446289062,-8.096405029296875,2,9147.407117000001,2,0,1580905431.648283,1580903939.50652,1111,0.4627655,0,0,1410.409,1,0,1580905431.406553,9144.899299000001,0,2.713654,97.17159
1580905431.938376,39,0,1580904337.000819,41.20701635159924,29.07533761282497,172.748,-1,-1,5.74967098236084,48.00724964208526,-9999,9147.705545916668,0.96435546875,0.077880859375,-0.173065185546875,9147.700479916668,2.321878901084253,1.401923439830286,-0.07961127694241708,0.00310010090470314,0.02321892976760864,0.009379729628562927,-0.01666545867919922,0.002209305763244629,-0.00352931022644043,2,-0.6031866326161858,0.2289025186243424,0.6901452027286155,0.3278248696103784,0.9826526045799255,0.07952720671892166,-0.167539045214653,45.41439819335938,6.604507446289062,-8.096405029296875,2,9147.407117000001,2,0,1580905431.648283,1580903939.50652,1111,0.4627655,0,0,1410.409,1,0,1580905431.406553,9144.899299000001,0,2.713654,97.17159
1580905431.940541,40,0,1580904337.000819,41.20701635159924,29.07533761282497,172.748,-1,-1,5.74967098236084,48.00724964208526,-9999,9147.715586916667,0.964385986328125,0.0771636962890625,-0.1733551025390625,9147.710520916668,2.321886812443916,1.402127581468519,-0.07949847838136664,0.0006342800334095955,0.02219041809439659,0.01038374193012714,-0.0195314884185791,-0.001630187034606934,-0.006734728813171387,2,-0.6032421484134111,0.2289736622807035,0.6901009744115947,0.3277661070962708,0.9826955795288086,0.07941477000713348,-0.167339950799942,45.39952850341797,6.766887664794922,-7.824066162109375,2,9147.407117000001,2,0,1580905431.648283,1580903939.50652,1111,0.4627655,0,0,1410.409,1,0,1580905431.406553,9144.899299000001,0,2.713654,97.17159
1580905431.950964,41,0,1580904337.000819,41.20701635159924,29.07533761282497,172.748,-1,-1,5.74967098236084,48.00724964208526,-9999,9147.725626916666,0.96636962890625,0.0814666748046875,-0.17254638671875,9147.720560916667,2.321873172749075,1.402328570872813,-0.07932673064736578,0.003768869675695896,0.02248690277338028,0.01668641902506351,-0.01954787969589233,-0.002175956964492798,-0.007219791412353516,2,-0.603285801340088,0.2290717613210547,0.6900626578261431,0.3276981622060345,0.9827427864074707,0.07924356311559677,-0.1671447455883026,45.39952850341797,6.766887664794922,-7.824066162109375,2,9147.407117000001,2,0,1580905431.648283,1580903939.50652,1111,0.4627655,0,0,1410.409,1,0,1580905431.406553,9144.899299000001,0,2.713654,97.17159
1580905431.960473,42,0,1580904337.000819,41.20701635159924,29.07533761282497,172.748,-1,-1,5.74967098236084,48.00724964208526,-9999,9147.735666916667,0.96624755859375,0.0799560546875,-0.1694793701171875,9147.730631916667,2.321838831458099,1.402423342611547,-0.07908032906008926,0.00734256487339735,0.009659253060817719,0.02363061159849167,-0.01759934425354004,0.002372980117797852,-0.006501078605651855,2,-0.6032799743762789,0.229185164508566,0.690063493066892,0.3276277830281307,0.9827778339385986,0.07899793237447739,-0.1670548617839813,45.27712249755859,6.739641189575195,-7.966583251953125,2,9147.407117000001,2,0,1580905431.648283,1580903939.50652,1111,0.4627655,0,0,1410.409,1,0,1580905431.406553,9144.899299000001,0,2.713654,97.17159
1580905431.972255,43,0,1580904337.000819,41.20701635159924,29.07533761282497,172.748,-1,-1,5.74967098236084,48.00724964208526,-9999,9147.745706916667,0.95867919921875,0.08148193359375,-0.1707000732421875,9147.740671916667,2.321823620167907,1.402446283634035,-0.07870271941668314,0.007484870962798595,0.002455485984683037,0.03755005821585655,-0.01775461435317993,0.001239299774169922,-0.003451645374298096,2,-0.6032331183593379,0.2293276175318077,0.6901077690136116,0.3275210068688387,0.9828109741210938,0.07862149924039841,-0.1670372933149338,45.27712249755859,6.739641189575195,-7.966583251953125,2,9147.407117000001,2,0,1580905431.648283,1580903939.50652,1111,0.4627655,0,0,1410.409,1,0,1580905431.406553,9144.899299000001,0,2.713654,97.17159
1580905431.99544,44,0,1580904337.000819,41.20701635159924,29.07533761282497,172.748,-1,-1,5.74967098236084,48.00724964208526,-9999,9147.755747916668,0.950103759765625,0.081085205078125,-0.17681884765625,9147.750711916668,2.321783682335707,1.402545210155328,-0.07820667834314135,0.01227350067347288,0.009464392438530922,0.04896729439496994,-0.02537798881530762,0.003260254859924316,-0.004763484001159668,2,-0.6031929884678228,0.2295319980263804,0.6901418529466945,0.3273796817475374,0.9828656911849976,0.07812698185443878,-0.1669465601444244,45.35835266113281,6.625392913818359,-8.006805419921875,2,9147.407117000001,2,0,1580905431.648283,1580903939.50652,1111,0.4627655,0,0,1410.409,1,0,1580905431.406553,9144.899299000001,0,2.713654,97.17159
1580905431.996733,45,0,1580904337.000819,41.20701635159924,29.07533761282497,172.748,-1,-1,5.74967098236084,48.00724964208526,-9999,9147.765787916667,0.9517669677734375,0.074737548828125,-0.1803131103515625,9147.760752916667,2.321697001498934,1.402872376359666,-0.07770684204280473,0.01807986944913864,0.03349211439490318,0.04770649969577789,-0.0340467095375061,0.003362387418746948,-0.01119780540466309,2,-0.6032256613432712,0.229789155607429,0.6901000107713141,0.3272271762527112,0.9829585552215576,0.07762866467237473,-0.1666314899921417,45.35835266113281,6.625392913818359,-8.006805419921875,2,9147.407117000001,2,0,1580905431.648283,1580903939.50652,1111,0.4627655,0,0,1410.409,1,0,1580905431.406553,9144.899299000001,0,2.713654,97.17159
1580905432.00065,46,0,1580904337.000819,41.20701635159924,29.07533761282497,172.748,-1,-1,5.74967098236084,48.00724964208526,-9999,9147.775827916666,0.9599151611328125,0.071258544921875,-0.1772003173828125,9147.770792916666,2.321599889868236,1.403440516635757,-0.0772868882909447,0.01717386394739151,0.05957111716270447,0.03943711891770363,-0.03251004219055176,-0.002566069364547729,-0.01524567604064941,2,-0.6033514344357933,0.230060485229173,0.6899724935759275,0.3270737082808231,0.9830852746963501,0.07720997184514999,-0.1660784333944321,45.39602661132812,6.736362457275391,-7.898529052734375,2,9147.407117000001,2,0,1580905431.648283,1580903939.50652,1111,0.4627655,0,0,1410.409,1,0,1580905431.406553,9144.899299000001,0,2.713654,97.17159
1580905432.011288,47,0,1580904337.000819,41.20701635159924,29.07533761282497,172.748,-1,-1,5.74967098236084,48.00724964208526,-9999,9147.785868916668,0.9720611572265625,0.071441650390625,-0.169525146484375,9147.780832916667,2.321520501628299,1.404063969621715,-0.07697192641970638,0.01242660265415907,0.06354637444019318,0.02898393198847771,-0.02448928356170654,-0.005730628967285156,-0.01274245977401733,2,-0.6035130527734898,0.2302981397971164,0.6898161473715073,0.3269379945986724,0.9832125306129456,0.07689594477415085,-0.1654695272445679,45.39602661132812,6.736362457275391,-7.898529052734375,2,9147.407117000001,2,0,1580905431.648283,1580903939.50652,1111,0.4627655,0,0,1410.409,1,0,1580905431.406553,9144.899299000001,0,2.713654,97.17159
1580905432.020768,48,0,1580904337.000819,41.20701635159924,29.07533761282497,172.748,-1,-1,5.74967098236084,48.00724964208526,-9999,9147.795938916668,0.968017578125,0.071746826171875,-0.1685638427734375,9147.790873916667,2.321468598387796,1.404632383035291,-0.07669868574853186,0.009745598770678043,0.05733881145715714,0.02565045282244682,-0.01245802640914917,-0.005274742841720581,-0.005623400211334229,2,-0.6036646512440729,0.2305036561952964,0.689674990365176,0.3268111870589689,0.9833271503448486,0.07662350684404373,-0.1649141013622284,45.17195129394531,6.752450942993164,-7.771942138671875,2,9147.407117000001,2,0,1580905431.648283,1580903939.50652,1111,0.4627655,0,0,1410.409,1,0,1580905431.406553,9144.899299000001,0,2.713654,97.17159
1580905432.031227,49,0,1580904337.000819,41.20701635159924,29.07533761282497,172.748,-1,-1,5.74967098236084,48.00724964208526,-9999,9147.805979916668,0.9554595947265625,0.0755462646484375,-0.1728973388671875,9147.800913916668,2.321455356910291,1.405227181025578,-0.07636086942509296,0.007043374702334404,0.05971938371658325,0.0318559966981411,-0.01662540435791016,-0.004632353782653809,-0.00524371862411499,2,-0.603820701998028,0.2307246037934233,0.689541199152403,0.3266490531758292,0.9834504723548889,0.076286680996418,-0.1643334329128265,45.17195129394531,6.752450942993164,-7.771942138671875,2,9147.407117000001,2,0,1580905431.648283,1580903939.50652,1111,0.4627655,0,0,1410.409,1,0,1580905431.406553,9144.899299000001,0,2.713654,97.17159
1580905432.051889,50,0,1580904337.000819,41.20701635159924,29.07533761282497,172.748,-1,-1,5.74967098236084,48.00724964208526,-9999,9147.816019916667,0.9407806396484375,0.0814971923828125,-0.176849365234375,9147.810953916667,2.321509328202604,1.405996297633087,-0.07575646201557999,0.004542931914329529,0.07570047676563263,0.05973609536886215,-0.02935492992401123,-0.0002295076847076416,-0.01032698154449463,2,-0.6040070221721084,0.2310481547042266,0.6894036365273011,0.3263661537738406,0.9836218953132629,0.07568401843309402,-0.1635845303535461,45.15353393554688,6.702840805053711,-7.929473876953125,2,9147.407117000001,2,0,1580905431.648283,1580903939.50652,1111,0.4627655,0,0,1410.409,1,0,1580905431.406553,9144.899299000001,0,2.713654,97.17159
1580905432.053186,51,0,1580904337.000819,41.20701635159924,29.07533761282497,172.748,-1,-1,5.74967098236084,48.00724964208526,-9999,9147.826059916668,0.9353179931640625,0.0876617431640625,-0.1785430908203125,9147.820993916666,2.321592671000406,1.407078799939476,-0.07481043675970704,0.006943387910723686,0.1088340878486633,0.09623865783214569,-0.0442807674407959,0.006665885448455811,-0.01533329486846924,2,-0.6042565777753359,0.2315347668482858,0.6892246136839482,0.3259373671239846,0.9838686585426331,0.07474067807197571,-0.1625312864780426,45.15353393554688,6.702840805053711,-7.929473876953125,2,9147.407117000001,2,0,1580905431.648283,1580903939.50652,1111,0.4627655,0,0,1410.409,1,0,1580905431.406553,9144.899299000001,0,2.713654,97.17159
1580905432.060998,52,0,1580904337.000819,41.20701635159924,29.07533761282497,172.748,-1,-1,5.74967098236084,48.00724964208526,-9999,9147.836100916667,0.95196533203125,0.0803375244140625,-0.175201416015625,9147.831034916668,2.321613979323979,1.408397840994941,-0.073719357887034,0.01577576249837875,0.1324033290147781,0.1094255670905113,-0.05003714561462402,0.01391986012458801,-0.01831340789794922,2,-0.604559888549372,0.2321295111480098,0.6889842476494521,0.3254596978953428,0.9841620922088623,0.07365260273218155,-0.1612464636564255,45.22312164306641,6.431833267211914,-7.8533935546875,2,9147.407117000001,2,0,1580905431.648283,1580903939.50652,1111,0.4627655,0,0,1410.409,1,0,1580905431.406553,9144.899299000001,0,2.713654,97.17159
1580905432.071576,53,0,1580904337.000819,41.20701635159924,29.07533761282497,172.748,-1,-1,5.74967098236084,48.00724964208526,-9999,9147.846140916667,0.970550537109375,0.073272705078125,-0.1668548583984375,9147.841074916667,2.321576089545929,1.409810760915482,-0.07270997660406769,0.01875986903905869,0.1446757018566132,0.1012737825512886,-0.03368997573852539,0.007603496313095093,-0.01635229587554932,2,-0.6048999108019196,0.2327279409443646,0.688694034226411,0.3250146091133965,0.9844619035720825,0.07264592498540878,-0.159867599606514,45.22312164306641,6.431833267211914,-7.8533935546875,2,9147.407117000001,2,0,1580905431.648283,1580903939.50652,1111,0.4627655,0,0,1410.409,1,0,1580905431.406553,9144.899299000001,0,2.713654,97.17159
1580905432.081016,54,0,1580904337.000819,41.20701635159924,29.07533761282497,172.748,-1,-1,5.74967098236084,48.00724964208526,-9999,9147.856180916668,0.98724365234375,0.05865478515625,-0.1569671630859375,9147.851145916668,2.321492383316542,1.411060552659918,-0.07193521619233935,0.01868769899010658,0.126455157995224,0.0771053284406662,-0.01535946130752563,0.001312375068664551,-0.009229123592376709,2,-0.6052112810201581,0.2332301758776855,0.6884120192356982,0.3246718269971152,0.98471599817276,0.07187319546937943,-0.1586459875106812,45.41549682617188,6.381139755249023,-7.872344970703125,2,9147.407117000001,2,0,1580905431.648283,1580903939.50652,1111,0.4627655,0,0,1410.409,1,0,1580905431.406553,9144.899299000001,0,2.713654,97.17159
1580905432.113825,55,0,1580904337.000819,41.20701635159924,29.07533761282497,172.748,-1,-1,5.74967098236084,48.00724964208526,-9999,9147.866220916667,0.98382568359375,0.053009033203125,-0.1583404541015625,9147.861185916667,2.321420966119919,1.4121025025054,-0.07144974750473355,0.01283716037869453,0.106062188744545,0.04678305983543396,0.001134514808654785,-0.01282075047492981,-0.0003629326820373535,2,-0.6054930791482696,0.2335924675608618,0.6881539172136983,0.3244331992386272,0.9849151968955994,0.07138896733522415,-0.1576253771781921,45.41549682617188,6.381139755249023,-7.872344970703125,2,9147.407117000001,2,0,1580905431.648283,1580903939.50652,1111,0.4627655,0,0,1410.409,1,0,1580905431.406553,9144.899299000001,0,2.713654,97.17159
1580905432.115412,56,0,1580904337.000819,41.20701635159924,29.07533761282497,172.748,-1,-1,5.74967098236084,48.00724964208526,-9999,9147.876261916666,0.984405517578125,0.0571136474609375,-0.155120849609375,9147.871225916668,2.321402903781727,1.412952151171311,-0.07118295526468801,0.005981652066111565,0.08707943558692932,0.02570706978440285,-0.002436041831970215,-0.01820003986358643,-0.002571165561676025,2,-0.6057456441495216,0.2338299952859627,0.6879315820206097,0.3242622850758425,0.98506760597229,0.07112285494804382,-0.1567914932966232,45.32899475097656,6.413600921630859,-7.88848876953125,2,9147.407117000001,2,0,1580905431.648283,1580903939.50652,1111,0.4627655,0,0,1410.409,1,0,1580905431.406553,9144.899299000001,0,2.713654,97.17159
1580905432.116509,57,0,1580904337.000819,41.20701635159924,29.07533761282497,172.748,-1,-1,5.74967098236084,48.00724964208526,-9999,9147.886301916667,0.974090576171875,0.065032958984375,-0.1581573486328125,9147.881266916667,2.321436769064235,1.413594909703082,-0.07099960277481956,-0.0003054384142160416,0.06382787227630615,0.01800398528575897,-0.001969873905181885,-0.01391234993934631,1.657009124755859e-05,2,-0.6059448216994114,0.2339886762850672,0.6877683665162539,0.3241219103233161,0.9851810932159424,0.07093996554613113,-0.1561603397130966,45.32899475097656,6.413600921630859,-7.88848876953125,2,9147.407117000001,2,0,1580905431.648283,1580903939.50652,1111,0.4627655,0,0,1410.409,1,0,1580905431.406553,9144.899299000001,0,2.713654,97.17159
1580905432.121224,58,0,1580904337.000819,41.20701635159924,29.07533761282497,172.748,-1,-1,5.74967098236084,48.00724964208526,-9999,9147.896341916667,0.9612274169921875,0.0718231201171875,-0.1630401611328125,9147.891306916667,2.321478445160061,1.4142087377932,-0.07076898560978229,-0.0007818778976798058,0.06210347265005112,0.0243188738822937,-0.01239693164825439,-0.005762696266174316,-0.00362318754196167,2,-0.6061282829734651,0.2341568875631436,0.6876217351189446,0.3239682676182109,0.9852927923202515,0.07070992887020111,-0.1555581092834473,45.34477996826172,6.355817794799805,-7.851837158203125,2,9147.407117000001,2,0,1580905431.648283,1580903939.50652,1111,0.4627655,0,0,1410.409,1,0,1580905431.406553,9144.899299000001,0,2.713654,97.17159
1580905432.131001,59,0,1580904337.000819,41.20701635159924,29.07533761282497,172.748,-1,-1,5.74967098236084,48.00724964208526,-9999,9147.906382916668,0.9647064208984375,0.0701904296875,-0.1603546142578125,9147.901346916668,2.321487226013679,1.414847546172288,-0.0705365179588531,0.002509491518139839,0.06592737138271332,0.02388163469731808,-0.02537578344345093,0.001259565353393555,-0.009133875370025635,2,-0.6063161588727096,0.2343397240537473,0.6874624840821824,0.3238224589264742,0.9854081273078918,0.07047804445028305,-0.1549312174320221,45.34477996826172,6.355817794799805,-7.851837158203125,2,9147.407117000001,2,0,1580905431.648283,1580903939.50652,1111,0.4627655,0,0,1410.409,1,0,1580905431.406553,9144.899299000001,0,2.713654,97.17159
1580905432.141418,60,0,1580904337.000819,41.20701635159924,29.07533761282497,172.748,-1,-1,5.74967098236084,48.00724964208526,-9999,9147.916452916666,0.9716949462890625,0.0659942626953125,-0.1590728759765625,9147.911386916667,2.321471550778838,1.415459179518938,-0.07036558453634711,0.004461854696273804,0.06221145763993263,0.01788712479174137,-0.0220034122467041,-0.0002023875713348389,-0.007049798965454102,2,-0.6065004413567769,0.2345038130441783,0.6872987684232282,0.3237061912012398,0.9855147004127502,0.07030753046274185,-0.1543303579092026,45.45069122314453,6.308799743652344,-8.0028076171875,2,9147.407117000001,2,0,1580905431.648283,1580903939.50652,1111,0.4627655,0,0,1410.409,1,0,1580905431.406553,9144.899299000001,0,2.713654,97.17159
1580905432.175739,61,0,1580904337.000819,41.20701635159924,29.07533761282497,172.748,-1,-1,5.74967098236084,48.00724964208526,-9999,9147.926493916668,0.9749755859375,0.0662994384765625,-0.158172607421875,9147.921427916668,2.321477477764329,1.416067048869402,-0.07022553156389232,0.001757767051458359,0.06399798393249512,0.01625743880867958,-0.01511836051940918,-0.004258692264556885,-0.006366431713104248,2,-0.6066902733287103,0.234649787447022,0.6871352302882519,0.3235918833086625,0.9856180548667908,0.07016782462596893,-0.1537327766418457,45.45069122314453,6.308799743652344,-8.0028076171875,2,9147.407117000001,2,0,1580905431.648283,1580903939.50652,1111,0.4627655,0,0,1410.409,1,0,1580905431.406553,9144.899299000001,0,2.713654,97.17159
1580905432.176959,62,0,1580904337.000819,41.20701635159924,29.07533761282497,172.748,-1,-1,5.74967098236084,48.00724964208526,-9999,9147.936533916667,0.9788665771484375,0.0621795654296875,-0.1554412841796875,9147.931467916667,2.321498685989246,1.416597258835608,-0.07016587944609985,-0.0001698285341262817,0.05311550572514534,0.005512116476893425,-0.01192343235015869,-0.003893941640853882,-0.005989015102386475,2,-0.6068665279046935,0.2347501254128094,0.6869861624142061,0.3235048211546296,0.9857034087181091,0.0701083168387413,-0.1532107889652252,45.44996643066406,6.187374114990234,-7.79559326171875,2,9147.407117000001,2,0,1580905431.648283,1580903939.50652,1111,0.4627655,0,0,1410.409,1,0,1580905431.406553,9144.899299000001,0,2.713654,97.17159
1580905432.178014,63,0,1580904337.000819,41.20701635159924,29.07533761282497,172.748,-1,-1,5.74967098236084,48.00724964208526,-9999,9147.946573916668,0.97576904296875,0.0651092529296875,-0.155242919921875,9147.941507916667,2.321587694888652,1.41707977776138,-0.07013634002641979,-0.009753412567079067,0.04937463253736496,0.001618353649973869,-0.008108437061309814,-0.007984340190887451,-0.003733634948730469,2,-0.6070385470481733,0.2348115599013497,0.6868583012211756,0.3234089441337261,0.9857792258262634,0.07007884979248047,-0.1527354717254639,45.44996643066406,6.187374114990234,-7.79559326171875,2,9147.407117000001,2,0,1580905431.648283,1580903939.50652,1111,0.4627655,0,0,1410.409,1,0,1580905431.406553,9144.899299000001,0,2.713654,97.17159
1580905432.181398,64,0,1580904337.000819,41.20701635159924,29.07533761282497,172.748,-1,-1,5.74967098236084,48.00724964208526,-9999,9147.956613916667,0.975555419921875,0.07049560546875,-0.1517486572265625,9147.951548916668,2.321695915893068,1.417380781865939,-0.07005282063628061,-0.01013317983597517,0.02948587946593761,0.009701048023998737,-0.0112578272819519,-0.004971206188201904,-0.003831446170806885,2,-0.6071428613162672,0.234856824741088,0.6867962943646182,0.3233119891619929,0.9858309626579285,0.06999553740024567,-0.1524396389722824,45.44826507568359,6.404254913330078,-7.668487548828125,2,9147.407117000001,2,0,1580905431.648283,1580903939.50652,1111,0.4627655,0,0,1410.409,1,0,1580905431.406553,9144.899299000001,0,2.713654,97.17159
1580905432.192112,65,0,1580904337.000819,41.20701635159924,29.07533761282497,172.748,-1,-1,5.74967098236084,48.00724964208526,-9999,9147.966654916667,0.971954345703125,0.0679779052734375,-0.15313720703125,9147.961618916666,2.321770994831064,1.417511809295374,-0.06998085140777778,-0.00580950453877449,0.01155588403344154,0.008406611159443855,-0.01149630546569824,0.0004870295524597168,-0.0004654526710510254,2,-0.6071865138909998,0.234880623149414,0.6867789747393892,0.3232498447777298,0.9858561158180237,0.06992374360561371,-0.1523112654685974,45.44826507568359,6.404254913330078,-7.668487548828125,2,9147.407117000001,2,0,1580905431.648283,1580903939.50652,1111,0.4627655,0,0,1410.409,1,0,1580905431.406553,9144.899299000001,0,2.713654,97.17159
1580905432.201591,66,0,1580904337.000819,41.20701635159924,29.07533761282497,172.748,-1,-1,5.74967098236084,48.00724964208526,-9999,9147.976694916668,0.9707794189453125,0.0684967041015625,-0.1531219482421875,9147.971659916668,2.321789776031286,1.417561185036296,-0.06996134639735464,-0.001012085936963558,0.006672445684671402,0.001462417654693127,-0.015106201171875,-0.002011209726333618,-0.001902461051940918,2,-0.6072029331413684,0.2348897704542668,0.6867697707897863,0.323231867430229,0.9858649373054504,0.06990429013967514,-0.1522627919912338,45.43059539794922,6.426841735839844,-7.85693359375,2,9147.407117000001,2,0,1580905431.648283,1580903939.50652,1111,0.4627655,0,0,1410.409,1,0,1580905431.406553,9144.899299000001,0,2.713654,97.17159
1580905432.235753,67,0,1580904337.000819,41.20701635159924,29.07533761282497,172.748,-1,-1,5.74967098236084,48.00724964208526,-9999,9147.986734916667,0.972015380859375,0.0673065185546875,-0.15032958984375,9147.981699916667,2.321684145102449,1.417440843669893,-0.07002743834603244,0.009278801269829273,-0.009179827757179737,-0.008003692142665386,-0.01625829935073853,-0.001558452844619751,-0.001769483089447021,2,-0.6071585257432306,0.2348790624089388,0.6867797800754314,0.3233015624965691,0.9858419299125671,0.06997022032737732,-0.1523807048797607,45.43059539794922,6.426841735839844,-7.85693359375,2,9147.407117000001,2,0,1580905431.648283,1580903939.50652,1111,0.4627655,0,0,1410.409,1,0,1580905431.406553,9144.899299000001,0,2.713654,97.17159
1580905432.237111,68,0,1580904337.000819,41.20701635159924,29.07533761282497,172.748,-1,-1,5.74967098236084,48.00724964208526,-9999,9147.996775916667,0.9691925048828125,0.066986083984375,-0.1433258056640625,9147.991739916668,2.321399017014508,1.416998400190098,-0.07025174005629607,0.02430089190602303,-0.04085253551602364,-0.02668949589133263,-0.01493918895721436,-0.002972602844238281,0.001457273960113525,2,-0.6070046812176688,0.2348150045641309,0.6868361733684634,0.3235171483722125,0.985758900642395,0.07019396871328354,-0.1528144627809525,45.46095275878906,6.328464508056641,-7.769378662109375,2,9147.407117000001,2,0,1580905431.648283,1580903939.50652,1111,0.4627655,0,0,1410.409,1,0,1580905431.406553,9144.899299000001,0,2.713654,97.17159
1580905432.238203,69,0,1580904337.000819,41.20701635159924,29.07533761282497,172.748,-1,-1,5.74967098236084,48.00724964208526,-9999,9148.006815916668,0.9705352783203125,0.072296142578125,-0.140289306640625,9148.001779916667,2.320917545834559,1.416107567372065,-0.07056078728613754,0.04355517402291298,-0.08323632925748825,-0.03739344328641891,-0.01760387420654297,-0.003601700067520142,0.009336888790130615,2,-0.6066857353277649,0.2347079468242795,0.6869846920597744,0.3238775534769571,0.9856008887290955,0.07050225138664246,-0.1536891907453537,45.46095275878906,6.328464508056641,-7.769378662109375,2,9147.407117000001,2,0,1580905431.648283,1580903939.50652,1111,0.4627655,0,0,1410.409,1,0,1580905431.406553,9144.899299000001,0,2.713654,97.17159
1580905432.241835,70,0,1580904337.000819,41.20701635159924,29.07533761282497,172.748,-1,-1,5.74967098236084,48.00724964208526,-9999,9148.016855916667,0.981353759765625,0.0741729736328125,-0.14031982421875,9148.011820916667,2.320307970716831,1.414700968498878,-0.07086597734733976,0.05564885213971138,-0.1357282996177673,-0.03994715213775635,-0.0160222053527832,0.001403599977493286,0.01375806331634521,2,-0.6061739850285639,0.2345571945025955,0.687269121102237,0.324341295661529,0.9853624701499939,0.07080667465925217,-0.1550720483064651,45.38747406005859,6.28874397277832,-7.758819580078125,2,9147.407117000001,2,0,1580905431.648283,1580903939.50652,1111,0.4627655,0,0,1410.409,1,0,1580905431.406553,9144.899299000001,0,2.713654,97.17159
1580905432.251733,71,0,1580904337.000819,41.20701635159924,29.07533761282497,172.748,-1,-1,5.74967098236084,48.00724964208526,-9999,9148.026895916668,0.9788665771484375,0.073333740234375,-0.1453399658203125,9148.021860916668,2.319660083919298,1.41290124231221,-0.0710638696536335,0.06002475321292877,-0.17337866127491,-0.03097799606621265,-0.00490880012512207,0.003082782030105591,0.01550066471099854,2,-0.6055073235546812,0.2343915370645841,0.6876810846757069,0.3248328380064504,0.9850680232048035,0.07100407034158707,-0.156842976808548,45.38747406005859,6.28874397277832,-7.758819580078125,2,9147.407117000001,2,0,1580905431.648283,1580903939.50652,1111,0.4627655,0,0,1410.409,1,0,1580905431.406553,9144.899299000001,0,2.713654,97.17159
1580905432.261888,72,0,1580904337.000819,41.20701635159924,29.07533761282497,172.748,-1,-1,5.74967098236084,48.00724964208526,-9999,9148.036966916667,0.9618377685546875,0.0883941650390625,-0.134033203125,9148.031900916667,2.318894586608145,1.410512721262881,-0.07110868184664094,0.07169046998023987,-0.2253260165452957,-0.01795060932636261,-0.007014930248260498,0.00219881534576416,0.01283532381057739,2,-0.6046023674793566,0.2342190105803758,0.6882728403922977,0.325389015447018,0.9846873879432678,0.07104877382516861,-0.1591948717832565,45.46751403808594,6.300447463989258,-8.13238525390625,2,9147.407117000001,2,0,1580905431.648283,1580903939.50652,1111,0.4627655,0,0,1410.409,1,0,1580905431.406553,9144.899299000001,0,2.713654,97.17159
1580905432.296575,73,0,1580904337.000819,41.20701635159924,29.07533761282497,172.748,-1,-1,5.74967098236084,48.00724964208526,-9999,9148.047007916668,0.86932373046875,0.1038818359375,-0.171905517578125,9148.041941916666,2.317660706552562,1.407455940887778,-0.0711797495078474,0.1311539858579636,-0.3467473387718201,-0.02536116540431976,-0.02354699373245239,0.01718822121620178,0.02715396881103516,2,-0.6034154967539962,0.2340685886950101,0.68898492529998,0.3261924155117471,0.9841911792755127,0.07111965864896774,-0.1622032672166824,45.46751403808594,6.300447463989258,-8.13238525390625,2,9147.407117000001,2,0,1580905431.648283,1580903939.50652,1111,0.4627655,0,0,1410.409,1,0,1580905431.406553,9144.899299000001,0,2.713654,97.17159
1580905432.297874,74,0,1580904337.000819,41.20701635159924,29.07533761282497,172.748,-1,-1,5.74967098236084,48.00724964208526,-9999,9148.057047916667,0.7830047607421875,0.039276123046875,-0.3175506591796875,9148.051981916668,2.316115658177938,1.407700910243535,-0.07152137408053286,0.1598117351531982,0.06327401101589203,-0.05802376940846443,-0.1160768270492554,0.03233471512794495,-0.01096391677856445,2,-0.6033674548746705,0.2344538709916026,0.6886101965562202,0.3267951090430184,0.9842067360877991,0.07146041095256805,-0.1619581878185272,45.36222076416016,6.212150573730469,-8.45166015625,2,9147.407117000001,2,0,1580905431.648283,1580903939.50652,1111,0.4627655,0,0,1410.409,1,0,1580905431.406553,9144.899299000001,0,2.713654,97.17159
1580905432.29883,75,0,1580904337.000819,41.20701635159924,29.07533761282497,172.748,-1,-1,5.74967098236084,48.00724964208526,-9999,9148.067087916666,0.9929656982421875,0.0380401611328125,-0.184600830078125,9148.062021916667,2.31511216597718,1.409811519496304,-0.07188860530489487,0.08844377100467682,0.2340717613697052,-0.05416805669665337,-0.2027098536491394,-0.03263774514198303,-0.1586933732032776,2,-0.6040281452825111,0.2349719721143776,0.687756818350823,0.3269995417951088,0.9845203757286072,0.07182670384645462,-0.1598763465881348,45.36222076416016,6.212150573730469,-8.45166015625,2,9147.407117000001,2,0,1580905431.648283,1580903939.50652,1111,0.4627655,0,0,1410.409,1,0,1580905431.406553,9144.899299000001,0,2.713654,97.17159
1580905432.302016,76,0,1580904337.000819,41.20701635159924,29.07533761282497,172.748,-1,-1,5.74967098236084,48.00724964208526,-9999,9148.077127916667,1.036727905273438,0.0779266357421875,-0.1344451904296875,9148.072061916668,2.314631483103311,1.411164786916671,-0.07194047896288264,0.0441942885518074,0.1338516920804977,-0.01011830754578114,0.007039129734039307,-0.03392550349235535,-0.02707803249359131,2,-0.6044441695121306,0.2353201848208,0.6872620851768273,0.3270208754739659,0.9847323298454285,0.07187844067811966,-0.1585433185100555,45.31605529785156,6.252443313598633,-8.54400634765625,2,9147.407117000001,2,0,1580905431.648283,1580903939.50652,1111,0.4627655,0,0,1410.409,1,0,1580905431.406553,9144.899299000001,0,2.713654,97.17159
1580905432.31212,77,0,1580904337.000819,41.20701635159924,29.07533761282497,172.748,-1,-1,5.74967098236084,48.00724964208526,-9999,9148.087168916667,0.990478515625,0.0605316162109375,-0.1658935546875,9148.082132916667,2.314304446366072,1.412053265131064,-0.07194340940125955,0.03186008706688881,0.08516930043697357,-0.003162996843457222,0.05066072940826416,0.005958080291748047,0.0222012996673584,2,-0.6047113373608003,0.2355632674319367,0.6869395626507713,0.3270294398370746,0.9848725199699402,0.07188136130571365,-0.1576682925224304,45.31605529785156,6.252443313598633,-8.54400634765625,2,9147.407117000001,2,0,1580905431.648283,1580903939.50652,1111,0.4627655,0,0,1410.409,1,0,1580905431.406553,9144.899299000001,0,2.713654,97.17159
1580905432.322035,78,0,1580904337.000819,41.20701635159924,29.07533761282497,172.748,-1,-1,5.74967098236084,48.00724964208526,-9999,9148.097208916668,0.9672393798828125,0.05242919921875,-0.1782379150390625,9148.092173916668,2.314094988147255,1.413159327649874,-0.07213817595008053,0.01658259890973568,0.1110301911830902,-0.02253030240535736,0.004251241683959961,-0.01163148880004883,-0.01033997535705566,2,-0.6050941189154934,0.2357387791785107,0.6865429770286477,0.3270278288391014,0.9850324988365173,0.07207562774419785,-0.1565766632556915,45.37729644775391,6.417261123657227,-8.49188232421875,2,9147.407117000001,2,0,1580905431.648283,1580903939.50652,1111,0.4627655,0,0,1410.409,1,0,1580905431.406553,9144.899299000001,0,2.713654,97.17159
1580905432.355433,79,0,1580904337.000819,41.20701635159924,29.07533761282497,172.748,-1,-1,5.74967098236084,48.00724964208526,-9999,9148.107248916667,0.9797515869140625,0.06201171875,-0.165924072265625,9148.102213916667,2.313909328297989,1.414553776686396,-0.07252246405511169,0.01285884343087673,0.145737811923027,-0.04176859185099602,-0.01917803287506104,-0.02011761069297791,-0.02406412363052368,2,-0.605605318733071,0.235887466780648,0.6860354986163328,0.3270391195560491,0.985222339630127,0.0724589079618454,-0.1551986038684845,45.37729644775391,6.417261123657227,-8.49188232421875,2,9147.407117000001,2,0,1580905431.648283,1580903939.50652,1111,0.4627655,0,0,1410.409,1,0,1580905431.406553,9144.899299000001,0,2.713654,97.17159
1580905432.356927,80,0,1580904337.000819,41.20701635159924,29.07533761282497,172.748,-1,-1,5.74967098236084,48.00724964208526,-9999,9148.117289916667,1.006088256835938,0.06439208984375,-0.1427459716796875,9148.112253916668,2.313839893829453,1.415607488774379,-0.07296139508910376,-0.0009200866334140301,0.1060079783201218,-0.04486051946878433,-0.006797432899475098,-0.01097342371940613,-0.0127946138381958,2,-0.6060207444015365,0.2359261208673194,0.6856420940516568,0.3270667231498793,0.9853538274765015,0.07289668172597885,-0.1541554480791092,45.44102478027344,6.224145889282227,-8.413238525390625,2,9147.407117000001,2,0,1580905431.648283,1580903939.50652,1111,0.4627655,0,0,1410.409,1,0,1580905431.406553,9144.899299000001,0,2.713654,97.17159
1580905432.35825,81,0,1580904337.000819,41.20701635159924,29.07533761282497,172.748,-1,-1,5.74967098236084,48.00724964208526,-9999,9148.127329916668,0.9994354248046875,0.0734405517578125,-0.1432952880859375,9148.122293916667,2.313865777571334,1.416195048761408,-0.07334257955572485,-0.009649734012782574,0.05662809312343597,-0.03699544817209244,0.01947617530822754,-0.008973658084869385,0.009799480438232422,2,-0.6062792234220105,0.235880078803801,0.6854136310868608,0.3270998504346204,0.9854167699813843,0.07327684760093689,-0.1535721868276596,45.44102478027344,6.224145889282227,-8.413238525390625,2,9147.407117000001,2,0,1580905431.648283,1580903939.50652,1111,0.4627655,0,0,1410.409,1,0,1580905431.406553,9144.899299000001,0,2.713654,97.17159
1580905432.362259,82,0,1580904337.000819,41.20701635159924,29.07533761282497,172.748,-1,-1,5.74967098236084,48.00724964208526,-9999,9148.137369916667,0.9797821044921875,0.0756378173828125,-0.151031494140625,9148.132334916667,2.313883989627316,1.416439794335428,-0.07366716569674053,-0.007149292156100273,0.02381581813097,-0.02897294424474239,0.0128093957901001,-0.0002492666244506836,0.009005069732666016,2,-0.6064112401397006,0.2358002225947889,0.6852957921371465,0.3271594654275628,0.9854307174682617,0.07360055297613144,-0.1533273309469223,45.45851898193359,6.137731552124023,-8.597259521484375,2,9147.407117000001,2,0,1580905431.648283,1580903939.50652,1111,0.4627655,0,0,1410.409,1,0,1580905431.406553,9144.899299000001,0,2.713654,97.17159
1580905432.372306,83,0,1580904337.000819,41.20701635159924,29.07533761282497,172.748,-1,-1,5.74967098236084,48.00724964208526,-9999,9148.147409916668,0.953704833984375,0.077850341796875,-0.166717529296875,9148.142374916668,2.313787790666171,1.416635767506812,-0.07396595077848668,0.004393584094941616,0.03197350353002548,-0.03157078474760056,-0.006852149963378906,0.001649618148803711,0.001072049140930176,2,-0.6065093553184061,0.2357562074682198,0.6851777543328861,0.3272565700768726,0.9854389429092407,0.07389852404594421,-0.153130829334259,45.45851898193359,6.137731552124023,-8.597259521484375,2,9147.407117000001,2,0,1580905431.648283,1580903939.50652,1111,0.4627655,0,0,1410.409,1,0,1580905431.406553,9144.899299000001,0,2.713654,97.17159
1580905432.382314,84,0,1580904337.000819,41.20701635159924,29.07533761282497,172.748,-1,-1,5.74967098236084,48.00724964208526,-9999,9148.157480916667,0.9587860107421875,0.071563720703125,-0.167022705078125,9148.152414916667,2.31355274954334,1.417261970019424,-0.0744068870525396,0.0166422612965107,0.06719620525836945,-0.04788557812571526,-0.03299295902252197,0.003421902656555176,-0.01523673534393311,2,-0.6067585447126811,0.2357746947084642,0.6848860464371435,0.3273920482937557,0.9855024218559265,0.07433824986219406,-0.1525087207555771,45.44651031494141,6.236431121826172,-8.347869873046875,2,9147.407117000001,2,0,1580905431.648283,1580903939.50652,1111,0.4627655,0,0,1410.409,1,0,1580905431.406553,9144.899299000001,0,2.713654,97.17159
1580905432.418093,85,0,1580904337.000819,41.20701635159924,29.07533761282497,172.748,-1,-1,5.74967098236084,48.00724964208526,-9999,9148.167520916668,0.98358154296875,0.0572662353515625,-0.157318115234375,9148.162455916667,2.313219501894419,1.418057298779719,-0.0751894516350443,0.02204770408570766,0.08071236312389374,-0.08200900256633759,-0.02797484397888184,-0.003645986318588257,-0.01633554697036743,2,-0.6071022630430019,0.2357304784933058,0.6844774896241055,0.3276408782261134,0.9855655431747437,0.07511862367391586,-0.1517159640789032,45.44651031494141,6.236431121826172,-8.347869873046875,2,9147.407117000001,2,0,1580905431.648283,1580903939.50652,1111,0.4627655,0,0,1410.409,1,0,1580905431.406553,9144.899299000001,0,2.713654,97.17159
1580905432.419345,86,0,1580904337.000819,41.20701635159924,29.07533761282497,172.748,-1,-1,5.74967098236084,48.00724964208526,-9999,9148.177561916667,0.9911651611328125,0.0589141845703125,-0.1512451171875,9148.172495916668,2.312856502626521,1.418801422344027,-0.0762857493023395,0.01984367147088051,0.07912884652614594,-0.1164189130067825,-0.003209948539733887,-0.01903796195983887,-0.007377862930297852,2,-0.6074690272751576,0.2355767159184518,0.6840340382486777,0.3279975986703491,0.9855961799621582,0.07621178030967712,-0.1509699821472168,45.51123809814453,6.207048416137695,-8.27227783203125,2,9147.407117000001,2,0,1580905431.648283,1580903939.50652,1111,0.4627655,0,0,1410.409,1,0,1580905431.406553,9144.899299000001,0,2.713654,97.17159
1580905432.420432,87,0,1580904337.000819,41.20701635159924,29.07533761282497,172.748,-1,-1,5.74967098236084,48.00724964208526,-9999,9148.187601916667,0.9862213134765625,0.066864013671875,-0.1484527587890625,9148.182535916667,2.312564133661449,1.419361464802873,-0.07747782864521371,0.009946009144186974,0.06096120923757553,-0.1238224133849144,0.004379987716674805,-0.01858001947402954,-0.001870989799499512,2,-0.6077943746091072,0.2353378523079747,0.6836438180733392,0.3283798684192416,0.9855901598930359,0.0774003341794014,-0.1504041850566864,45.36994171142578,6.21368408203125,-8.40667724609375,2,9147.407117000001,2,0,1580905431.648283,1580903939.50652,1111,0.4627655,0,0,1410.409,1,0,1580905431.406553,9144.899299000001,0,2.713654,97.17159
1580905432.422544,88,0,1580904337.000819,41.20701635159924,29.07533761282497,172.748,-1,-1,5.74967098236084,48.00724964208526,-9999,9148.197641916668,0.9813385009765625,0.0762176513671875,-0.1457977294921875,9148.192575916668,2.312364320481032,1.419646861069205,-0.07864597780288429,0.0009908629581332207,0.03110397793352604,-0.1212924122810364,-0.0005165338516235352,-0.01179617643356323,0.000625908374786377,2,-0.6080331608386055,0.2350342500586151,0.6833551183049913,0.3287556261289798,0.9855428338050842,0.07856492698192596,-0.1501091569662094,45.36994171142578,6.21368408203125,-8.40667724609375,2,9147.407117000001,2,0,1580905431.648283,1580903939.50652,1111,0.4627655,0,0,1410.409,1,0,1580905431.406553,9144.899299000001,0,2.713654,97.17159
1580905432.432566,89,0,1580904337.000819,41.20701635159924,29.07533761282497,172.748,-1,-1,5.74967098236084,48.00724964208526,-9999,9148.207682916667,0.9879913330078125,0.0833587646484375,-0.140380859375,9148.202646916667,2.31221034236269,1.419531780272939,-0.07968384177827657,-0.0003039026632905006,-0.01010939106345177,-0.1027994975447655,-0.005300521850585938,-0.003478437662124634,0.003382325172424316,2,-0.6081219452486123,0.2346968050855155,0.6832144639139265,0.3291248159935624,0.9854444861412048,0.07959954440593719,-0.1502102166414261,45.54637908935547,6.331398010253906,-8.54876708984375,2,9147.407117000001,2,0,1580905431.648283,1580903939.50652,1111,0.4627655,0,0,1410.409,1,0,1580905431.406553,9144.899299000001,0,2.713654,97.17159
1580905432.442574,90,0,1580904337.000819,41.20701635159924,29.07533761282497,172.748,-1,-1,5.74967098236084,48.00724964208526,-9999,9148.217722916666,0.9752655029296875,0.0761871337890625,-0.15625,9148.212686916668,2.312049400772952,1.41918597602044,-0.08077066213281348,-0.0004269406199455261,-0.03795034438371658,-0.1101412996649742,0.00149071216583252,0.002578079700469971,0.009127318859100342,2,-0.6081379286826393,0.234306102481686,0.6831353947534582,0.3295374554114824,0.9853063821792603,0.08068286627531052,-0.1505378186702728,45.54637908935547,6.331398010253906,-8.54876708984375,2,9147.407117000001,2,0,1580905431.648283,1580903939.50652,1111,0.4627655,0,0,1410.409,1,0,1580905431.406553,9144.899299000001,0,2.713654,97.17159
1580905432.475004,91,0,1580904337.000819,41.20701635159924,29.07533761282497,172.748,-1,-1,5.74967098236084,48.00724964208526,-9999,9148.227762916667,0.976287841796875,0.0754241943359375,-0.16046142578125,9148.222727916667,2.311878494564521,1.418972502274806,-0.0819679413194969,-0.001037937123328447,-0.01741121523082256,-0.1220579892396927,-0.01110649108886719,-0.005788296461105347,-0.006545782089233398,2,-0.6082133722797163,0.23390119752956,0.6829982228180195,0.3299700466734279,0.9851780533790588,0.08187618851661682,-0.1507334411144257,45.42241668701172,6.538824081420898,-8.56878662109375,2,9147.407117000001,2,0,1580905431.648283,1580903939.50652,1111,0.4627655,0,0,1410.409,1,0,1580905431.406553,9144.899299000001,0,2.713654,97.17159
1580905432.476288,92,0,1580904337.000819,41.20701635159924,29.07533761282497,172.748,-1,-1,5.74967098236084,48.00724964208526,-9999,9148.237802916667,0.980987548828125,0.080322265625,-0.153350830078125,9148.232767916666,2.311732531706265,1.41869550895119,-0.08322080915811857,-0.006323512643575668,-0.02489389851689339,-0.1257198452949524,-0.009939789772033691,-0.007801294326782227,-0.01049941778182983,2,-0.6082777452395417,0.2334584578067909,0.6828760554216705,0.3304174504747167,0.9850341081619263,0.08312477916479111,-0.1509906649589539,45.42241668701172,6.538824081420898,-8.56878662109375,2,9147.407117000001,2,0,1580905431.648283,1580903939.50652,1111,0.4627655,0,0,1410.409,1,0,1580905431.406553,9144.899299000001,0,2.713654,97.17159
1580905432.477527,93,0,1580904337.000819,41.20701635159924,29.07533761282497,172.748,-1,-1,5.74967098236084,48.00724964208526,-9999,9148.247843916668,0.9909515380859375,0.0886688232421875,-0.1392364501953125,9148.242807916668,2.311525897971288,1.418120247245512,-0.08449929756398313,0.0004287045449018478,-0.04830235242843628,-0.1310342252254486,-0.005046844482421875,-0.004178762435913086,-0.002837777137756348,2,-0.6082366868684289,0.2329756020700052,0.6828305280216107,0.3309274932689791,0.9848412275314331,0.0843987762928009,-0.1515410095453262,45.34696197509766,6.581966400146484,-8.394256591796875,2,9147.407117000001,2,0,1580905431.648283,1580903939.50652,1111,0.4627655,0,0,1410.409,1,0,1580905431.406553,9145.840335999999,0,2.708374,97.17165
1580905432.482736,94,0,1580904337.000819,41.20701635159924,29.07533761282497,172.748,-1,-1,5.74967098236084,48.00724964208526,-9999,9148.257883916667,0.9917449951171875,0.1057891845703125,-0.12939453125,9148.252848916667,2.31120266469265,1.416743876780212,-0.08577512501610289,0.01156071852892637,-0.1399526447057724,-0.1296136975288391,0.005234003067016602,0.002895087003707886,0.01261675357818604,2,-0.6079080758491435,0.2323960228416698,0.6830093115997371,0.3315692741699661,0.9845244884490967,0.08566998690366745,-0.1528797149658203,45.34696197509766,6.581966400146484,-8.394256591796875,2,9147.407117000001,2,0,1580905431.648283,1580903939.50652,1111,0.4627655,0,0,1410.409,1,0,1580905431.406553,9145.840335999999,0,2.708374,97.17165
1580905432.492975,95,0,1580904337.000819,41.20701635159924,29.07533761282497,172.748,-1,-1,5.74967098236084,48.00724964208526,-9999,9148.267954916668,0.96221923828125,0.0956268310546875,-0.1551055908203125,9148.262888916668,2.310683409377025,1.415019727983094,-0.08714282463385611,0.03330782428383827,-0.1708980351686478,-0.1450381875038147,0.006409704685211182,0.01865106821060181,0.02413958311080933,2,-0.6074507611923063,0.2317849425492747,0.683247154386287,0.3323441217326014,0.9841427206993103,0.08703257143497467,-0.1545586287975311,45.56023406982422,6.757070541381836,-8.574371337890625,2,9147.407117000001,2,0,1580905431.648283,1580903939.50652,1111,0.4627655,0,0,1410.409,1,0,1580905431.406553,9145.840335999999,0,2.708374,97.17165
1580905432.503269,96,0,1580904337.000819,41.20701635159924,29.07533761282497,172.748,-1,-1,5.74967098236084,48.00724964208526,-9999,9148.277994916667,0.974822998046875,0.0806884765625,-0.1616668701171875,9148.272928916667,2.31010178410085,1.413336332647568,-0.08867721814732761,0.03340449929237366,-0.1605524569749832,-0.1623609960079193,-0.02272093296051025,0.006958454847335815,6.586313247680664e-05,2,-0.6070235055178849,0.2311395076548414,0.6834370219048103,0.3331828443080876,0.9837481379508972,0.0885610431432724,-0.1561939865350723,45.56023406982422,6.757070541381836,-8.574371337890625,2,9147.407117000001,2,0,1580905431.648283,1580903939.50652,1111,0.4627655,0,0,1410.409,1,0,1580905431.406553,9145.840335999999,0,2.708374,97.17165
1580905432.540997,97,0,1580904337.000819,41.20701635159924,29.07533761282497,172.748,-1,-1,5.74967098236084,48.00724964208526,-9999,9148.288034916668,1.004165649414062,0.07470703125,-0.155609130859375,9148.282968916667,2.309565505497021,1.411484077016371,-0.09050145447758259,0.02301507815718651,-0.1818150579929352,-0.1898491531610489,-0.009664595127105713,-0.009799033403396606,-0.004697322845458984,2,-0.606584409465468,0.2303483476490225,0.6836422582971509,0.3341082342975203,0.9832960367202759,0.09037796407938004,-0.1579899787902832,45.52997589111328,6.565036773681641,-8.773590087890625,2,9147.407117000001,2,0,1580905431.648283,1580903939.50652,1111,0.4627655,0,0,1410.409,1,0,1580905431.406553,9145.840335999999,0,2.708374,97.17165
1580905432.542294,98,0,1580904337.000819,41.20701635159924,29.07533761282497,172.748,-1,-1,5.74967098236084,48.00724964208526,-9999,9148.298075916668,1.002914428710938,0.0828094482421875,-0.154296875,9148.293009916668,2.309072015289284,1.409383911502213,-0.09262457091876897,0.01349587365984917,-0.2059270441532135,-0.2178381830453873,0.02020418643951416,-0.01789724826812744,0.003396332263946533,2,-0.6061073101701104,0.2293952406873256,0.6838846405398498,0.3351320317703079,0.9827703237533569,0.09249218553304672,-0.1600235104560852,45.52997589111328,6.565036773681641,-8.773590087890625,2,9147.407117000001,2,0,1580905431.648283,1580903939.50652,1111,0.4627655,0,0,1410.409,1,0,1580905431.406553,9145.840335999999,0,2.708374,97.17165
1580905432.543965,99,0,1580904337.000819,41.20701635159924,29.07533761282497,172.748,-1,-1,5.74967098236084,48.00724964208526,-9999,9148.308115916667,1.013992309570312,0.089569091796875,-0.145477294921875,9148.303049916667,2.308515984596408,1.40685881315168,-0.09507984969804253,0.01415672525763512,-0.2434668987989426,-0.25401571393013,0.01958787441253662,-0.01224231719970703,0.007155001163482666,2,-0.6055240150677452,0.2282699002100574,0.6841949991078593,0.336319366519951,0.9821361899375916,0.09493666142225266,-0.1624670326709747,45.17165374755859,7.042888641357422,-8.944183349609375,2,9147.407117000001,2,0,1580905431.648283,1580903939.50652,1111,0.4627655,0,0,1410.409,1,0,1580905431.406553,9145.840335999999,0,2.708374,97.17165
1580905432.545322,100,0,1580904337.000819,41.20701635159924,29.07533761282497,172.748,-1,-1,5.74967098236084,48.00724964208526,-9999,9148.318155916668,1.006698608398438,0.1041107177734375,-0.141937255859375,9148.313089916668,2.307857621446416,1.403646745029095,-0.09776094986373333,0.02144606411457062,-0.3152947425842285,-0.2788544893264771,0.03144818544387817,-0.008154511451721191,0.01908934116363525,2,-0.6047252827483995,0.2269765619825045,0.6846606228393126,0.3376815425877771,0.9813547730445862,0.09760530292987823,-0.1655779480934143,45.17165374755859,7.042888641357422,-8.944183349609375,2,9147.407117000001,2,0,1580905431.648283,1580903939.50652,1111,0.4627655,0,0,1410.409,1,0,1580905431.406553,9145.840335999999,0,2.708374,97.17165
1580905432.553037,101,0,1580904337.000819,41.20701635159924,29.07533761282497,172.748,-1,-1,5.74967098236084,48.00724964208526,-9999,9148.328196916667,0.9485015869140625,0.1024932861328125,-0.1714324951171875,9148.323160916667,2.307150152753023,1.400120626681096,-0.1004134908645199,0.02438192069530487,-0.3505669236183167,-0.273297905921936,0.02500402927398682,0.003744363784790039,0.02604812383651733,2,-0.6038089835894246,0.2256509731307543,0.6852142904292251,0.3390835406884727,0.9805061221122742,0.1002448350191116,-0.1689926981925964,45.30409240722656,7.337625503540039,-9.139251708984375,2,9147.407117000001,2,0,1580905431.648283,1580903939.50652,1111,0.4627655,0,0,1410.409,1,0,1580905431.406553,9145.840335999999,0,2.708374,97.17165
1580905432.563086,102,0,1580904337.000819,41.20701635159924,29.07533761282497,172.748,-1,-1,5.74967098236084,48.00724964208526,-9999,9148.338236916667,0.8829498291015625,0.0899658203125,-0.2181396484375,9148.333200916668,2.306466228367059,1.397390536567196,-0.102902391743194,0.02670952305197716,-0.2745616436004639,-0.2589394748210907,-0.0324782133102417,-0.0003520548343658447,-0.0008109211921691895,2,-0.6031447453157781,0.2245077354384291,0.6855534425413057,0.3403370326745292,0.9797925353050232,0.1027208864688873,-0.1716253906488419,45.30409240722656,7.337625503540039,-9.139251708984375,2,9147.407117000001,2,0,1580905431.648283,1580903939.50652,1111,0.4627655,0,0,1410.409,1,0,1580905431.406553,9145.840335999999,0,2.708374,97.17165
1580905432.598598,103,0,1580904337.000819,41.20701635159924,29.07533761282497,172.748,-1,-1,5.74967098236084,48.00724964208526,-9999,9148.348276916668,0.8664703369140625,0.08056640625,-0.248046875,9148.343241916667,2.306031371266114,1.396422474503913,-0.1052289092949814,0.001582346856594086,-0.09159116446971893,-0.2342447191476822,-0.0976250171661377,-0.01519632339477539,-0.04661077260971069,2,-0.6030895700443507,0.2236449105997535,0.6854258085017219,0.3412584319542868,0.9793877601623535,0.105034813284874,-0.1725318431854248,45.21811676025391,7.526092529296875,-9.225982666015625,2,9147.407117000001,2,0,1580905431.648283,1580903939.50652,1111,0.4627655,0,0,1410.409,1,0,1580905431.406553,9145.840335999999,0,2.708374,97.17165
1580905432.600174,104,0,1580904337.000819,41.20701635159924,29.07533761282497,172.748,-1,-1,5.74967098236084,48.00724964208526,-9999,9148.358316916667,0.9456329345703125,0.0770721435546875,-0.2183685302734375,9148.353281916667,2.305885839742618,1.39681211577441,-0.1076106042009887,-0.02828393876552582,0.04695818945765495,-0.2355781644582748,-0.113922119140625,-0.02696675062179565,-0.07694369554519653,2,-0.603539157326603,0.2229063965073973,0.6849289070552672,0.3419439312750546,0.9792057871818542,0.1074030324816704,-0.1721064448356628,45.21811676025391,7.526092529296875,-9.225982666015625,2,9147.407117000001,2,0,1580905431.648283,1580903939.50652,1111,0.4627655,0,0,1410.409,1,0,1580905431.406553,9145.840335999999,0,2.708374,97.17165
1580905432.601391,105,0,1580904337.000819,41.20701635159924,29.07533761282497,172.748,-1,-1,5.74967098236084,48.00724964208526,-9999,9148.368357916666,1.023605346679688,0.09808349609375,-0.1574554443359375,9148.363321916668,2.305879526331487,1.397306272046532,-0.1102258976084407,-0.04601084440946579,0.05809450894594193,-0.2578152716159821,-0.03456407785415649,-0.03306397795677185,-0.04779893159866333,2,-0.6040715448148947,0.2220604291887341,0.6843880644957574,0.3426364381504741,0.9790107011795044,0.1100028306245804,-0.1715734750032425,45.00678253173828,7.572380065917969,-9.280792236328125,2,9147.407117000001,2,0,1580905431.648283,1580903939.50652,1111,0.4627655,0,0,1410.409,1,0,1580905431.406553,9145.840335999999,0,2.708374,97.17165
1580905432.603133,106,0,1580904337.000819,41.20701635159924,29.07533761282497,172.748,-1,-1,5.74967098236084,48.00724964208526,-9999,9148.378397916667,1.0654296875,0.1203460693359375,-0.1229248046875,9148.373362916667,2.305791077110834,1.396757113023134,-0.1131706032131457,-0.04105363786220551,-0.05898337066173553,-0.2930787205696106,0.0438264012336731,-0.01498255133628845,0.01359546184539795,2,-0.6042824215317142,0.2209426024250193,0.6840976298565553,0.3435660137390998,0.978593111038208,0.1129291877150536,-0.1720542460680008,45.00678253173828,7.572380065917969,-9.280792236328125,2,9147.407117000001,2,0,1580905431.648283,1580903939.50652,1111,0.4627655,0,0,1410.409,1,0,1580905431.406553,9145.840335999999,0,2.708374,97.17165
1580905432.613386,107,0,1580904337.000819,41.20701635159924,29.07533761282497,172.748,-1,-1,5.74967098236084,48.00724964208526,-9999,9148.388468916668,1.084075927734375,0.1020660400390625,-0.1707000732421875,9148.383402916666,2.305685801422243,1.395126539803223,-0.1165960765501289,-0.0464639887213707,-0.1643128842115402,-0.340125560760498,0.08632004261016846,0.003872990608215332,0.04965472221374512,2,-0.6041870605194666,0.2194708801775699,0.6840572858703793,0.3447553019175753,0.977924644947052,0.1163320764899254,-0.173581063747406,45.07962036132812,7.970525741577148,-9.175537109375,2,9148.371836916667,4,1,1580905432.613003,1580903939.50652,1111,0.4627655,0,0,1410.409,1,0,1580905431.406553,9145.840335999999,0,2.708374,97.17165
1580905432.624004,108,0,1580904337.000819,41.20701635159924,29.07533761282497,172.748,-1,-1,5.74967098236084,48.00724964208526,-9999,9148.398508916667,1.004409790039062,0.11932373046875,-0.170745849609375,9148.393442916667,2.30560852841617,1.392850314764443,-0.12034847349938,-0.06014944240450859,-0.2348658740520477,-0.3761783540248871,0.1058014631271362,-0.0181376039981842,0.004029154777526855,2,-0.6039177896174184,0.2177596610338256,0.6841655456496706,0.3460946914654752,0.9770904183387756,0.1200581640005112,-0.1757280677556992,45.07962036132812,7.970525741577148,-9.175537109375,2,9148.371836916667,4,1,1580905432.613003,1580903939.50652,1111,0.4627655,0,0,1410.409,1,0,1580905431.406553,9145.840335999999,0,2.708374,97.17165
1580905432.658507,109,0,1580904337.000819,41.20701635159924,29.07533761282497,172.748,-1,-1,5.74967098236084,48.00724964208526,-9999,9148.408548916666,1.010650634765625,0.128997802734375,-0.1726837158203125,9148.403482916667,2.305325589541629,1.390408928115485,-0.1241365949507644,-0.03949407860636711,-0.2324507832527161,-0.3705835938453674,0.02702271938323975,-0.004644334316253662,0.00628817081451416,2,-0.6035732005929352,0.2160655571686393,0.6842803541888051,0.3475277316057152,0.9762040972709656,0.1238180175423622,-0.1780301332473755,44.86069488525391,8.014232635498047,-9.262664794921875,2,9148.371836916667,4,1,1580905432.613003,1580903939.50652,1111,0.4627655,0,0,1410.409,1,0,1580905431.406553,9145.840335999999,0,2.708374,97.17165
1580905432.659929,110,0,1580904337.000819,41.20701635159924,29.07533761282497,172.748,-1,-1,5.74967098236084,48.00724964208526,-9999,9148.418589916668,1.0592041015625,0.1450347900390625,-0.1430206298828125,9148.413523916668,2.304792357278765,1.387066713472917,-0.1282354210209707,-0.02093237638473511,-0.3355699777603149,-0.4175918698310852,0.03437256813049316,0.000958561897277832,0.007521569728851318,2,-0.6029349566044484,0.2141743605590601,0.6845731896355925,0.3492253170176487,0.9750964045524597,0.12788425385952,-0.1811975687742233,44.86069488525391,8.014232635498047,-9.262664794921875,2,9148.371836916667,4,1,1580905432.613003,1580903939.50652,1111,0.4627655,0,0,1410.409,1,0,1580905431.406553,9145.840335999999,0,2.708374,97.17165
1580905432.661131,111,0,1580904337.000819,41.20701635159924,29.07533761282497,172.748,-1,-1,5.74967098236084,48.00724964208526,-9999,9148.428629916667,0.9351348876953125,0.1423187255859375,-0.168426513671875,9148.423563916667,2.30407288221101,1.383589322538151,-0.1321981962765959,-0.0004099877551198006,-0.336065262556076,-0.3987525105476379,0.08406907320022583,0.01306164264678955,0.04048293828964233,2,-0.6022108998901897,0.2123588304163704,0.6848912125911464,0.3509558438252262,0.9739550352096558,0.1318134814500809,-0.1844915151596069,44.98741912841797,8.529582977294922,-9.535308837890625,2,9148.371836916667,4,1,1580905432.613003,1580903939.50652,1111,0.4627655,0,0,1410.409,1,0,1580905431.406553,9145.840335999999,0,2.708374,97.17165
1580905432.663482,112,0,1580904337.000819,41.20701635159924,29.07533761282497,172.748,-1,-1,5.74967098236084,48.00724964208526,-9999,9148.438669916668,0.9351043701171875,0.118377685546875,-0.20361328125,9148.433603916666,2.303342256748702,1.380900803144232,-0.1360404835973113,-0.002627602312713861,-0.2556295394897461,-0.3917025625705719,-0.03899490833282471,0.00653308629989624,0.01760059595108032,2,-0.6017387874997968,0.2107232038837868,0.6849841500129149,0.352566074153613,0.9729507565498352,0.1356212496757507,-0.1870123296976089,44.98741912841797,8.529582977294922,-9.535308837890625,2,9148.371836916667,4,1,1580905432.613003,1580903939.50652,1111,0.4627655,0,0,1410.409,1,0,1580905431.406553,9145.840335999999,0,2.708374,97.17165
1580905432.673593,113,0,1580904337.000819,41.20701635159924,29.07533761282497,172.748,-1,-1,5.74967098236084,48.00724964208526,-9999,9148.448709916667,0.95635986328125,0.1107177734375,-0.23345947265625,9148.443674916667,2.302675302412391,1.379560009540943,-0.1398313585887012,-0.007288912311196327,-0.1122223287820816,-0.3885325193405151,-0.0382610559463501,-0.02116736769676208,-0.01637935638427734,2,-0.6017273553806072,0.2093212525615369,0.6846876302317437,0.3539937665914916,0.9721873998641968,0.1393761187791824,-0.1882176101207733,44.82730102539062,9.032524108886719,-9.512939453125,2,9148.371836916667,4,1,1580905432.613003,1580903939.50652,1111,0.4627655,0,0,1410.409,1,0,1580905431.406553,9145.840335999999,0,2.708374,97.17165
1580905432.684025,114,0,1580904337.000819,41.20701635159924,29.07533761282497,172.748,-1,-1,5.74967098236084,48.00724964208526,-9999,9148.458733625001,1.020462036132812,0.118743896484375,-0.231597900390625,9148.453714916668,2.301928535954608,1.379070141023962,-0.1438706719390328,-0.009203724563121796,-0.03427000343799591,-0.4221543967723846,-0.01635181903839111,-0.0328308641910553,-0.04585778713226318,2,-0.6020318781886878,0.2080026751391964,0.6840795113318731,0.3554260274705277,0.9715344905853271,0.1433748602867126,-0.1885850131511688,44.82730102539062,9.032524108886719,-9.512939453125,2,9148.371836916667,4,1,1580905432.613003,1580903939.50652,1111,0.4627655,0,0,1410.409,1,0,1580905431.406553,9145.840335999999,0,2.708374,97.17165
1580905432.718636,115,0,1580904337.000819,41.20701635159924,29.07533761282497,172.748,-1,-1,5.74967098236084,48.00724964208526,-9999,9148.468773625,0.95880126953125,0.1674652099609375,-0.142333984375,9148.463738625,2.300931214356043,1.378573468684954,-0.1478401308858096,0.02284843474626541,-0.0362662710249424,-0.4041143953800201,0.04841113090515137,-0.02873679995536804,-0.04362332820892334,2,-0.6022975831365084,0.2067824069392702,0.6834360834619522,0.3569226393627216,0.9708744287490845,0.1473021656274796,-0.1889573186635971,44.81649780273438,9.223930358886719,-9.71563720703125,2,9148.371836916667,4,1,1580905432.613003,1580903939.50652,1111,0.4627655,0,0,1410.409,1,0,1580905431.406553,9145.840335999999,0,2.708374,97.17165
1580905432.719969,116,0,1580904337.000819,41.20701635159924,29.07533761282497,172.748,-1,-1,5.74967098236084,48.00724964208526,-9999,9148.478813625001,1.032989501953125,0.15478515625,-0.1747894287109375,9148.473778625001,2.299655865908113,1.377487555289007,-0.1519261287373149,0.04644803702831268,-0.08554326742887497,-0.4352672696113586,-0.0124441385269165,0.01593947410583496,0.04657864570617676,2,-0.6023485650000557,0.2054971147137315,0.6828983081538688,0.3586043393456551,0.970069944858551,0.1513423472642899,-0.1898942887783051,44.81649780273438,9.223930358886719,-9.71563720703125,2,9148.371836916667,4,1,1580905432.613003,1580903939.50652,1111,0.4627655,0,0,1410.409,1,0,1580905431.406553,9145.840335999999,0,2.708374,97.17165
1580905432.720955,117,0,1580904337.000819,41.20701635159924,29.07533761282497,172.748,-1,-1,5.74967098236084,48.00724964208526,-9999,9148.488854625,1.075027465820312,0.1318206787109375,-0.260406494140625,9148.483818625,2.298622741171978,1.375864532449002,-0.156749084302528,0.01130372378975153,-0.1628973782062531,-0.4779247939586639,0.06278210878372192,-0.001511991024017334,0.01555550098419189,2,-0.6023403122799658,0.2037736790035116,0.6824458841294752,0.3604581877793712,0.9690331220626831,0.1561079770326614,-0.1913248747587204,44.45472717285156,9.48390007019043,-9.555694580078125,2,9148.371836916667,4,1,1580905432.613003,1580903939.50652,1111,0.4627655,0,0,1410.409,1,0,1580905431.406553,9145.840335999999,0,2.708374,97.17165
1580905432.723771,118,0,1580904337.000819,41.20701635159924,29.07533761282497,172.748,-1,-1,5.74967098236084,48.00724964208526,-9999,9148.498894625001,1.090530395507812,0.0931396484375,-0.351470947265625,9148.493858625001,2.298171984182159,1.37473669941639,-0.1630665943959806,-0.07408946752548218,-0.122696690261364,-0.6307808756828308,0.1060247421264648,-0.03072094917297363,-0.06916362047195435,2,-0.602759592503869,0.2014200446031045,0.6817084225640808,0.3624698516646498,0.9678299427032471,0.1623448729515076,-0.1922216713428497,44.45472717285156,9.48390007019043,-9.555694580078125,2,9148.371836916667,4,1,1580905432.613003,1580903939.50652,1111,0.4627655,0,0,1410.409,1,0,1580905431.406553,9145.840335999999,0,2.708374,97.17165
1580905432.733814,119,0,1580904337.000819,41.20701635159924,29.07533761282497,172.748,-1,-1,5.74967098236084,48.00724964208526,-9999,9148.508965625,0.9452667236328125,0.1260528564453125,-0.2809295654296875,9148.503899625,2.298167863807445,1.375033638064173,-0.1700911600619083,-0.1322491616010666,0.031418077647686,-0.6886027455329895,0.1226145029067993,-0.07633769512176514,-0.1607425212860107,2,-0.6037983820232268,0.1989312442212545,0.6805030140037668,0.364375617736843,0.966744601726532,0.1692721992731094,-0.1917077451944351,44.50206756591797,9.986055374145508,-9.585601806640625,2,9148.371836916667,4,1,1580905432.613003,1580903939.50652,1111,0.4627655,0,0,1410.409,1,0,1580905431.406553,9145.840335999999,0,2.708374,97.17165
1580905432.743855,120,0,1580904337.000819,41.20701635159924,29.07533761282497,172.748,-1,-1,5.74967098236084,48.00724964208526,-9999,9148.519005625001,0.98248291015625,0.1199951171875,-0.3256072998046875,9148.513939625,2.298614281407213,1.376580966053596,-0.177663088754863,-0.1938368827104568,0.1512044072151184,-0.7354938387870789,-0.02165806293487549,-0.0508912205696106,-0.09195220470428467,2,-0.6053703640286299,0.1963347024838215,0.6789050482628303,0.3661520277076731,0.9657546877861023,0.1767299324274063,-0.1899588108062744,44.50206756591797,9.986055374145508,-9.585601806640625,2,9148.371836916667,4,1,1580905432.613003,1580903939.50652,1111,0.4627655,0,0,1410.409,1,0,1580905431.406553,9145.840335999999,0,2.708374,97.17165
1580905432.779009,121,0,1580904337.000819,41.20701635159924,29.07533761282497,172.748,-1,-1,5.74967098236084,48.00724964208526,-9999,9148.529045625,0.9420928955078125,0.174560546875,-0.21929931640625,9148.523979625001,2.299238178008428,1.378547484630278,-0.1853543706974403,-0.2077517062425613,0.1899554431438446,-0.7437891960144043,0.01655054092407227,-0.06452298164367676,-0.1387970447540283,2,-0.6071049296186143,0.1937177924132805,0.6771825081697328,0.3678601713407302,0.9647638201713562,0.1842948496341705,-0.1877940446138382,44.23973846435547,10.40095329284668,-9.500701904296875,2,9148.371836916667,4,1,1580905432.613003,1580903939.50652,1111,0.4627655,0,0,1410.409,1,0,1580905431.406553,9145.840335999999,0,2.708374,97.17165
1580905432.780496,122,0,1580904337.000819,41.20701635159924,29.07533761282497,172.748,-1,-1,5.74967098236084,48.00724964208526,-9999,9148.539085625001,0.90313720703125,0.2010955810546875,-0.1529083251953125,9148.534020625,2.299797739683026,1.380420186110544,-0.1926976676651795,-0.1965334117412567,0.1789832264184952,-0.7083507776260376,-0.02283340692520142,-0.01717883348464966,-0.03456002473831177,2,-0.6087433241256217,0.1912292895305222,0.6755216585891848,0.3695041583817024,0.963758647441864,0.1915073245763779,-0.1857258528470993,44.23973846435547,10.40095329284668,-9.500701904296875,2,9148.371836916667,4,1,1580905432.613003,1580903939.50652,1111,0.4627655,0,0,1410.409,1,0,1580905431.406553,9145.840335999999,0,2.708374,97.17165
1580905432.781557,123,0,1580904337.000819,41.20701635159924,29.07533761282497,172.748,-1,-1,5.74967098236084,48.00724964208526,-9999,9148.549126625001,0.9430999755859375,0.2141876220703125,-0.134185791015625,9148.544060625001,2.300068067488248,1.382040457267698,-0.1997195457314106,-0.1567850112915039,0.1588938683271408,-0.6833216547966003,-0.06074297428131104,0.002460777759552002,0.03001010417938232,2,-0.6102159780927693,0.1888990614512506,0.6739267908190831,0.3711822960546656,0.9627137780189514,0.1983944624662399,-0.1839072108268738,44.31636047363281,11.19070243835449,-9.33660888671875,2,9148.371836916667,4,1,1580905432.613003,1580903939.50652,1111,0.4627655,0,0,1410.409,1,0,1580905431.406553,9145.840335999999,0,2.708374,97.17165
1580905432.784041,124,0,1580904337.000819,41.20701635159924,29.07533761282497,172.748,-1,-1,5.74967098236084,48.00724964208526,-9999,9148.559166625,0.9709625244140625,0.2005462646484375,-0.16925048828125,9148.554131625,2.300188620704109,1.38334355921021,-0.2068065261821328,-0.1419671773910522,0.1190694868564606,-0.6891303062438965,-0.01961213350296021,0.008603304624557495,0.04720962047576904,2,-0.6115658437592723,0.1865321422178159,0.6723804872089231,0.3729579374444669,0.9615471363067627,0.2053355276584625,-0.1823859512805939,44.31636047363281,11.19070243835449,-9.33660888671875,2,9148.371836916667,4,1,1580905432.613003,1580903939.50652,1111,0.4627655,0,0,1410.409,1,0,1580905431.406553,9145.840335999999,0,2.708374,97.17165
1580905432.794144,125,0,1580904337.000819,41.20701635159924,29.07533761282497,172.748,-1,-1,5.74967098236084,48.00724964208526,-9999,9148.569206625001,0.9924774169921875,0.1932373046875,-0.2071685791015625,9148.564171625001,2.30015388161185,1.384706619327676,-0.2141740696945374,-0.130657821893692,0.1378279626369476,-0.722832202911377,0.00951695442199707,-0.01225173473358154,0.01054716110229492,2,-0.6129469177294588,0.1841220231283446,0.6707299938444278,0.3748552727807505,0.9602819681167603,0.2125404477119446,-0.1807903200387955,44.06044006347656,11.67555809020996,-9.225433349609375,2,9148.371836916667,4,1,1580905432.613003,1580903939.50652,1111,0.4627655,0,0,1410.409,1,0,1580905431.406553,9145.840335999999,0,2.708374,97.17165
1580905432.804059,126,0,1580904337.000819,41.20701635159924,29.07533761282497,172.748,-1,-1,5.74967098236084,48.00724964208526,-9999,9148.579247625001,1.031600952148438,0.1921539306640625,-0.22149658203125,9148.574211625,2.300103176039727,1.386073067595915,-0.2221605565073188,-0.1422652006149292,0.1372745484113693,-0.7891382575035095,0.03248655796051025,-0.02736729383468628,-0.02900278568267822,2,-0.6143941301055916,0.1814927529490363,0.6689604553204429,0.3769246158793604,0.9588289260864258,0.2203375995159149,-0.1791604608297348,44.06044006347656,11.67555809020996,-9.225433349609375,2,9148.371836916667,4,1,1580905432.613003,1580903939.50652,1111,0.4627655,0,0,1410.409,1,0,1580905431.406553,9145.840335999999,0,2.708374,97.17165
1580905432.833231,127,0,1580904337.000819,41.20701635159924,29.07533761282497,172.748,-1,-1,5.74967098236084,48.00724964208526,-9999,9148.589287625,1.008102416992188,0.2027740478515625,-0.220855712890625,9148.584252625,2.300074602299903,1.387715844987544,-0.2307938394692333,-0.1595823019742966,0.1740619242191315,-0.853323757648468,0.07322514057159424,-0.03687363862991333,-0.04526150226593018,2,-0.6160028745234729,0.1786739564477507,0.6669875932839997,0.3791354148982144,0.9572157859802246,0.2287503927946091,-0.1772321462631226,43.81879425048828,12.15131759643555,-9.217559814453125,2,9148.371836916667,4,1,1580905432.613003,1580903939.50652,1111,0.4627655,0,0,1410.409,1,0,1580905431.406553,9145.840335999999,0,2.708374,97.17165
1580905432.834821,128,0,1580904337.000819,41.20701635159924,29.07533761282497,172.748,-1,-1,5.74967098236084,48.00724964208526,-9999,9148.599327625001,1.05999755859375,0.2248687744140625,-0.18206787109375,9148.594292625001,2.299871438213895,1.389396770251178,-0.2400929564003837,-0.1517981439828873,0.187509298324585,-0.917287290096283,0.05156612396240234,-0.03530699014663696,-0.0466233491897583,2,-0.6176751772929915,0.1756746577498621,0.6648407195992814,0.3815794017295225,0.9553788900375366,0.2377929240465164,-0.1752315759658813,43.81879425048828,12.15131759643555,-9.217559814453125,2,9148.371836916667,4,1,1580905432.613003,1580903939.50652,1111,0.4627655,0,0,1410.409,1,0,1580905431.406553,9145.840335999999,0,2.708374,97.17165
1580905432.835896,129,0,1580904337.000819,41.20701635159924,29.07533761282497,172.748,-1,-1,5.74967098236084,48.00724964208526,-9999,9148.609367625,1.104782104492188,0.251434326171875,-0.115081787109375,9148.604332625,2.299375263124308,1.389861058726352,-0.2499843210463916,-0.1314953565597534,0.06436017155647278,-0.9875435829162598,0.1057432889938354,-0.02281972765922546,-0.00871199369430542,2,-0.6189738602705587,0.1723173680520914,0.6628940482518298,0.3843822119301696,0.9530996084213257,0.2473887652158737,-0.1743561625480652,43.7431640625,12.74555778503418,-8.965057373046875,2,9148.371836916667,4,1,1580905432.613003,1580903939.50652,1111,0.4627655,0,0,1410.409,1,0,1580905431.406553,9145.840335999999,0,2.708374,97.17165
1580905432.844538,130,0,1580904337.000819,41.20701635159924,29.07533761282497,172.748,-1,-1,5.74967098236084,48.00724964208526,-9999,9148.619408625,0.9965667724609375,0.27655029296875,-0.0700225830078125,9148.614372625001,2.298549235254728,1.388914655974214,-0.2600411828952882,-0.102042131125927,-0.07737645506858826,-1.005181789398193,0.1531914472579956,-0.005997657775878906,0.05871742963790894,2,-0.6197836524961419,0.1687264754499155,0.6612736339039863,0.3874489812616969,0.9504389762878418,0.2571203410625458,-0.1747992038726807,43.7431640625,12.74555778503418,-8.965057373046875,2,9148.371836916667,4,1,1580905432.613003,1580903939.50652,1111,0.4627655,0,0,1410.409,1,0,1580905431.406553,9145.840335999999,0,2.708374,97.17165
1580905432.854335,131,0,1580904337.000819,41.20701635159924,29.07533761282497,172.748,-1,-1,5.74967098236084,48.00724964208526,-9999,9148.629479625,0.891937255859375,0.26885986328125,-0.1335906982421875,9148.624413625001,2.297445882756486,1.387112227258596,-0.2698245704678449,-0.06997624039649963,-0.1557412296533585,-0.9820240139961243,0.04781466722488403,0.00966489315032959,0.1050230860710144,2,-0.6202451162427701,0.1651482059670213,0.6598950217294173,0.3905901908371989,0.9476038813591003,0.2665623724460602,-0.1760441362857819,43.57617950439453,13.17817878723145,-8.782257080078125,2,9148.371836916667,4,1,1580905432.613003,1580903939.50652,1111,0.4627655,0,0,1410.409,1,0,1580905431.406553,9145.840335999999,0,2.708374,97.17165
1580905432.864363,132,0,1580904337.000819,41.20701635159924,29.07533761282497,172.748,-1,-1,5.74967098236084,48.00724964208526,-9999,9148.639519625001,0.7476806640625,0.246856689453125,-0.193817138671875,9148.634453625,2.296435860945519,1.385427249012334,-0.2789401750282943,-0.0714750662446022,-0.149049237370491,-0.9157558083534241,-0.05408596992492676,-0.006810754537582397,0.04259747266769409,2,-0.6206674615142864,0.1617999969745715,0.6585998654186735,0.3934956202387461,0.9448782205581665,0.2753369510173798,-0.1771853268146515,43.57617950439453,13.17817878723145,-8.782257080078125,2,9148.371836916667,4,1,1580905432.613003,1580903939.50652,1111,0.4627655,0,0,1410.409,1,0,1580905431.406553,9145.840335999999,0,2.708374,97.17165
1580905432.899799,133,0,1580904337.000819,41.20701635159924,29.07533761282497,172.748,-1,-1,5.74967098236084,48.00724964208526,-9999,9148.649559625001,0.6561431884765625,0.2366485595703125,-0.2535400390625,9148.644493625001,2.295767799083,1.384815563433315,-0.2869960135003222,-0.08572132885456085,-0.04162683710455894,-0.8040292263031006,-0.1960206031799316,-0.03655865788459778,-0.01746654510498047,2,-0.6213410156085722,0.1589391603821993,0.6572147606472695,0.3959071586291455,0.9425593018531799,0.2830723822116852,-0.1773473769426346,43.38076782226562,13.83390426635742,-9.088287353515625,2,9148.371836916667,4,1,1580905432.613003,1580903939.50652,1111,0.4627655,0,0,1410.409,1,0,1580905431.406553,9145.840335999999,0,2.708374,97.17165
1580905432.901134,134,0,1580904337.000819,41.20701635159924,29.07533761282497,172.748,-1,-1,5.74967098236084,48.00724964208526,-9999,9148.659599625,0.704803466796875,0.259185791015625,-0.244964599609375,9148.654533625,2.295539663476653,1.385188255102961,-0.2939289928465438,-0.1075123772025108,0.04622791707515717,-0.6793195009231567,-0.2856703400611877,-0.05341744422912598,-0.07790803909301758,2,-0.6222368883701491,0.1565453018673343,0.6558026263304992,0.3977910913787857,0.940673828125,0.2897149324417114,-0.1766296476125717,43.38076782226562,13.83390426635742,-9.088287353515625,2,9148.371836916667,4,1,1580905432.613003,1580903939.50652,1111,0.4627655,0,0,1410.409,1,0,1580905431.406553,9145.840335999999,0,2.708374,97.17165
1580905432.902125,135,0,1580904337.000819,41.20701635159924,29.07533761282497,172.748,-1,-1,5.74967098236084,48.00724964208526,-9999,9148.669640625001,0.79498291015625,0.2951507568359375,-0.162139892578125,9148.664574625,2.295455721119806,1.385827991545485,-0.2999499401744279,-0.1006894335150719,0.07171684503555298,-0.5893036127090454,-0.2353891730308533,-0.03664460778236389,-0.07025951147079468,2,-0.6231211579525198,0.1544930868992715,0.6544935870858337,0.3993620223054001,0.9390549659729004,0.2954723834991455,-0.1757038235664368,43.23880004882812,14.42500114440918,-9.034881591796875,2,9148.371836916667,4,1,1580905432.613003,1580903939.50652,1111,0.4627655,0,0,1410.409,1,0,1580905431.406553,9145.840335999999,0,2.708374,97.17165
1580905432.904573,136,0,1580904337.000819,41.20701635159924,29.07533761282497,172.748,-1,-1,5.74967098236084,48.00724964208526,-9999,9148.679680625,0.9044189453125,0.323333740234375,-0.10479736328125,9148.674645625,2.29517814344239,1.385793070473735,-0.3054055392967084,-0.07732978463172913,0.01011313498020172,-0.5358188152313232,-0.1436031460762024,-0.005893498659133911,0.0122988224029541,2,-0.6237008273924267,0.1525730195681245,0.6534532241284146,0.4008962422912555,0.9374505281448364,0.3006799817085266,-0.1754375100135803,43.00595855712891,14.57559585571289,-8.958984375,2,9148.371836916667,4,1,1580905432.613003,1580903939.50652,1111,0.4627655,0,0,1410.409,1,0,1580905431.406553,9145.840335999999,0,2.708374,97.17165
1580905432.914644,137,0,1580904337.000819,41.20701635159924,29.07533761282497,172.748,-1,-1,5.74967098236084,48.00724964208526,-9999,9148.689720625001,1.01708984375,0.3461761474609375,-0.06231689453125,9148.684685625001,2.294395362350726,1.384190326004628,-0.3106349133690369,-0.02286743000149727,-0.1353545933961868,-0.5228527784347534,-0.03232479095458984,0.01730009913444519,0.07085061073303223,2,-0.6237016732502092,0.1505769307519478,0.6528365125296588,0.402650403591927,0.9356101751327515,0.3056632280349731,-0.1766456216573715,43.00595855712891,14.57559585571289,-8.958984375,2,9148.371836916667,4,1,1580905432.613003,1580903939.50652,1111,0.4627655,0,0,1410.409,1,0,1580905431.406553,9145.840335999999,0,2.708374,97.17165
1580905432.924662,138,0,1580904337.000819,41.20701635159924,29.07533761282497,172.748,-1,-1,5.74967098236084,48.00724964208526,-9999,9148.699761625001,1.09576416015625,0.3449249267578125,-0.092620849609375,9148.694725625001,2.293037554588374,1.38077380129629,-0.3160876514122268,0.02782051265239716,-0.3012098670005798,-0.5549452304840088,0.08260846138000488,0.03494912385940552,0.1162127256393433,2,-0.623091467618982,0.1483077999837463,0.6526224058804005,0.4047787808696818,0.9333506226539612,0.3108504116535187,-0.1795236319303513,42.711669921875,14.94974136352539,-9.134490966796875,2,9148.371836916667,4,1,1580905432.613003,1580903939.50652,1111,0.4627655,0,0,1410.409,1,0,1580905431.406553,9145.840335999999,0,2.708374,97.17165
1580905432.959919,139,0,1580904337.000819,41.20701635159924,29.07533761282497,172.748,-1,-1,5.74967098236084,48.00724964208526,-9999,9148.709801625,1.122360229492188,0.3282623291015625,-0.15576171875,9148.704765625,2.291304022038695,1.376076793854644,-0.322208407575354,0.04617342352867126,-0.4222830235958099,-0.6278908252716064,0.164023756980896,0.02787908911705017,0.0899239182472229,2,-0.6221104930044246,0.1456417863602463,0.6525989463540418,0.4072857224447723,0.9306129217147827,0.3166621029376984,-0.1835340112447739,42.711669921875,14.94974136352539,-9.134490966796875,2,9148.371836916667,4,1,1580905432.613003,1580903939.50652,1111,0.4627655,0,0,1410.409,1,0,1580905431.406553,9145.840335999999,0,2.708374,97.17165
1580905432.961386,140,0,1580904337.000819,41.20701635159924,29.07533761282497,172.748,-1,-1,5.74967098236084,48.00724964208526,-9999,9148.719841625001,1.108123779296875,0.2977447509765625,-0.2417449951171875,9148.714806625001,2.289458591315262,1.371163678621854,-0.3293846750383694,0.03142110630869865,-0.4324365854263306,-0.734249472618103,0.1937878131866455,0.004409611225128174,0.03090256452560425,2,-0.6211689390427404,0.1425654326885828,0.6524121748245852,0.410100746821779,0.9274487495422363,0.3234608471393585,-0.1876484900712967,42.44924163818359,15.44505882263184,-9.54779052734375,2,9148.371836916667,4,1,1580905432.613003,1580903939.50652,1111,0.4627655,0,0,1410.409,1,0,1580905431.406553,9145.840335999999,0,2.708374,97.17165
1580905432.962463,141,0,1580904337.000819,41.20701635159924,29.07533761282497,172.748,-1,-1,5.74967098236084,48.00724964208526,-9999,9148.729881625,1.16021728515625,0.2925567626953125,-0.2586669921875,9148.724846625,2.287618960768001,1.366409494237305,-0.337924920711222,-0.002199046313762665,-0.4118254482746124,-0.8696317076683044,0.1831972002983093,-0.03418704867362976,-0.05123662948608398,2,-0.6204308575828309,0.1390021294218025,0.651907635669545,0.4132315291027239,0.9238073229789734,0.3315300941467285,-0.1914879232645035,42.44924163818359,15.44505882263184,-9.54779052734375,2,9148.371836916667,4,1,1580905432.613003,1580903939.50652,1111,0.4627655,0,0,1410.409,1,0,1580905431.406553,9145.840335999999,0,2.708374,97.17165
1580905432.964794,142,0,1580904337.000819,41.20701635159924,29.07533761282497,172.748,-1,-1,5.74967098236084,48.00724964208526,-9999,9148.739922625,1.1893310546875,0.3115386962890625,-0.2214508056640625,9148.734886625001,2.28569490478856,1.361472700412293,-0.3479249038439422,-0.02963626384735107,-0.4253878593444824,-1.012567281723022,0.2395414710044861,-0.04880401492118835,-0.06429415941238403,2,-0.6197871215684924,0.1348708703368747,0.6511490820737622,0.4167478241685494,0.9195619225502014,0.3409477770328522,-0.1953475475311279,41.90845489501953,15.89931297302246,-9.74188232421875,2,9148.371836916667,4,1,1580905432.613003,1580903939.50652,1111,0.4627655,0,0,1410.409,1,0,1580905431.406553,9145.840335999999,0,2.708374,97.17165
1580905432.975041,143,0,1580904337.000819,41.20701635159924,29.07533761282497,172.748,-1,-1,5.74967098236084,48.00724964208526,-9999,9148.749992625,1.176773071289062,0.332733154296875,-0.1769866943359375,9148.744927625001,2.283443440044199,1.355901050363518,-0.3592702785347745,-0.03310743719339371,-0.475879043340683,-1.150724649429321,0.2736022472381592,-0.0404784083366394,-0.02279019355773926,2,-0.6190602523120841,0.1301895063571737,0.6502393957441648,0.4207182463166897,0.9146209359169006,0.3515911996364594,-0.1996301859617233,41.90845489501953,15.89931297302246,-9.74188232421875,2,9148.371836916667,4,1,1580905432.613003,1580903939.50652,1111,0.4627655,0,0,1410.409,1,0,1580905431.406553,9145.840335999999,0,2.708374,97.17165
1580905432.984747,144,0,1580904337.000819,41.20701635159924,29.07533761282497,172.748,-1,-1,5.74967098236084,48.00724964208526,-9999,9148.760033625,1.151702880859375,0.3403167724609375,-0.183746337890625,9148.754967625,2.280784845802208,1.349516567527767,-0.3717433585820866,-0.02786606922745705,-0.5414921045303345,-1.268375992774963,0.2666937112808228,-0.03094714879989624,0.02653664350509644,2,-0.6181641429501764,0.1250183991406027,0.6492490193545691,0.4251107206498826,0.9089782238006592,0.3632402718067169,-0.2044869810342789,41.44357299804688,16.91678428649902,-10.28497314453125,2,9148.371836916667,4,1,1580905432.613003,1580903939.50652,1111,0.4627655,0,0,1410.409,1,0,1580905431.406553,9145.840335999999,0,2.708374,97.17165
1580905433.020895,145,0,1580904337.000819,41.20701635159924,29.07533761282497,172.748,-1,-1,5.74967098236084,48.00724964208526,-9999,9148.770073625001,1.135101318359375,0.3519439697265625,-0.1945343017578125,9148.765007625001,2.277747868744886,1.342435159204444,-0.3852826908262252,-0.02698815241456032,-0.5972012877464294,-1.377651929855347,0.2479751110076904,-0.03595969080924988,0.02508223056793213,2,-0.6171333605657224,0.1193876269429283,0.64815005239915,0.4298773542106105,0.9026341438293457,0.3758211135864258,-0.2097860127687454,41.44357299804688,16.91678428649902,-10.28497314453125,2,9148.371836916667,4,1,1580905432.613003,1580903939.50652,1111,0.4627655,0,0,1410.409,1,0,1580905431.406553,9145.840335999999,0,2.708374,97.17165
1580905433.022261,146,0,1580904337.000819,41.20701635159924,29.07533761282497,172.748,-1,-1,5.74967098236084,48.00724964208526,-9999,9148.780113625,1.121002197265625,0.3432769775390625,-0.218719482421875,9148.775047625,2.274322395833567,1.335025591329677,-0.3999580855545284,-0.0288236029446125,-0.6076464653015137,-1.495959401130676,0.2384209632873535,-0.03790751099586487,0.01967161893844604,2,-0.6160960888854583,0.113345700409748,0.6468020807218184,0.4350004939223276,0.8955953121185303,0.3893797397613525,-0.2151567190885544,40.67304229736328,17.66133880615234,-10.55010986328125,2,9148.371836916667,4,1,1580905432.613003,1580903939.50652,1111,0.4627655,0,0,1410.409,1,0,1580905431.406553,9145.840335999999,0,2.708374,97.17165
1580905433.02325,147,0,1580904337.000819,41.20701635159924,29.07533761282497,172.748,-1,-1,5.74967098236084,48.00724964208526,-9999,9148.790154625001,1.125396728515625,0.3528289794921875,-0.2332305908203125,9148.785088625,2.27054264980229,1.327440447301236,-0.4158598195029587,-0.04066630825400352,-0.6071164608001709,-1.620647549629211,0.2321111559867859,-0.06118899583816528,0.0007597804069519043,2,-0.6151144364336337,0.1068754993951034,0.6451362572727327,0.4404669305121676,0.8878154754638672,0.4039766192436218,-0.2204237133264542,40.67304229736328,17.66133880615234,-10.55010986328125,2,9148.371836916667,4,1,1580905432.613003,1580903939.50652,1111,0.4627655,0,0,1410.409,1,0,1580905431.406553,9145.840335999999,0,2.708374,97.17165
1580905433.026834,148,0,1580904337.000819,41.20701635159924,29.07533761282497,172.748,-1,-1,5.74967098236084,48.00724964208526,-9999,9148.800194625001,1.154403686523438,0.38006591796875,-0.222503662109375,9148.795158625,2.266261317320312,1.319754986917701,-0.4332244652710373,-0.04734738171100616,-0.5896780490875244,-1.763141274452209,0.2451645731925964,-0.06747919321060181,-0.008705317974090576,2,-0.6142306318164323,0.09994449638516549,0.6430358764356499,0.4463594975223871,0.8791670203208923,0.4197995662689209,-0.2254636585712433,40.08616638183594,18.51775169372559,-11.0308837890625,2,9148.371836916667,4,1,1580905432.613003,1580903939.50652,1111,0.4627655,0,0,1410.409,1,0,1580905431.406553,9145.840335999999,0,2.708374,97.17165
1580905433.035236,149,0,1580904337.000819,41.20701635159924,29.07533761282497,172.748,-1,-1,5.74967098236084,48.00724964208526,-9999,9148.810234625,1.283233642578125,0.3812255859375,-0.235626220703125,9148.805199625,2.261222973763797,1.31199834801166,-0.4524550395136296,-0.04270827770233154,-0.5498266220092773,-1.960933089256287,0.2839244604110718,-0.05763864517211914,0.006730914115905762,2,-0.6134849974080742,0.09247967216082183,0.6403338671850489,0.4528314374924147,0.8694258332252502,0.4371748566627502,-0.2301673293113708,40.08616638183594,18.51775169372559,-11.0308837890625,2,9148.371836916667,4,1,1580905432.613003,1580903939.50652,1111,0.4627655,0,0,1410.409,1,0,1580905431.406553,9145.840335999999,0,2.708374,97.17165
1580905433.045251,150,0,1580904337.000819,41.20701635159924,29.07533761282497,172.748,-1,-1,5.74967098236084,48.00724964208526,-9999,9148.820274625001,1.474044799804688,0.3687744140625,-0.2652587890625,9148.815239625001,2.255294092722935,1.303476076973064,-0.4744293527621176,-0.05814449489116669,-0.5869007110595703,-2.24444317817688,0.4242355823516846,-0.07615882158279419,-0.001579344272613525,2,-0.6127424854383445,0.08402272806578652,0.6370023124552806,0.4601249773449395,0.8579586744308472,0.4568308889865875,-0.2349736541509628,39.02834320068359,19.63369750976562,-11.4886474609375,2,9148.371836916667,4,1,1580905432.613003,1580903939.50652,1111,0.4627655,0,0,1410.409,1,0,1580905431.406553,9145.840335999999,0,2.708374,97.17165
1580905433.069562,151,0,1580904337.000819,41.20701635159924,29.07533761282497,172.748,-1,-1,5.74967098236084,48.00724964208526,-9999,9148.830315625,1.654998779296875,0.3326416015625,-0.3203277587890625,9148.825279625,2.248355831213624,1.294168928650894,-0.5002433701168123,-0.1024842485785484,-0.6049958467483521,-2.632994890213013,0.6289156079292297,-0.1114458441734314,-0.02653276920318604,2,-0.6121070153761072,0.07417137152383449,0.6327431626602341,0.4684654347704491,0.8441064953804016,0.4796391129493713,-0.2396472245454788,39.02834320068359,19.63369750976562,-11.4886474609375,2,9148.371836916667,4,1,1580905432.613003,1580903939.50652,1111,0.4627655,0,0,1410.409,1,0,1580905431.406553,9145.840335999999,0,2.708374,97.17165
1580905433.070605,152,0,1580904337.000819,41.20701635159924,29.07533761282497,172.748,-1,-1,5.74967098236084,48.00724964208526,-9999,9148.840355625001,1.8870849609375,0.2884063720703125,-0.413421630859375,9148.835320625001,2.240202575352959,1.283925824086576,-0.5311192353267868,-0.1712017804384232,-0.610674262046814,-3.145368576049805,0.8269923329353333,-0.1744707822799683,-0.07727104425430298,2,-0.6116468564511254,0.06246398796516607,0.6272217662323136,0.4780996158693298,0.8270044326782227,0.5064986944198608,-0.2439727485179901,37.79042816162109,21.14956283569336,-11.861083984375,2,9148.371836916667,4,1,1580905432.613003,1580903939.50652,1111,0.4627655,0,0,1410.409,1,0,1580905431.406553,9145.840335999999,0,2.708374,97.17165
1580905433.076213,153,0,1580904337.000819,41.20701635159924,29.07533761282497,172.748,-1,-1,5.74967098236084,48.00724964208526,-9999,9148.850395625001,2.1337890625,0.2703857421875,-0.53289794921875,9148.845360625,2.230945376733171,1.27193070005407,-0.5680182924187511,-0.30672687292099,-0.7200028300285339,-3.746229410171509,1.080508232116699,-0.250207781791687,-0.1661315560340881,2,-0.6112034098069929,0.04827077460463072,0.6204025218817126,0.4890820303618283,0.8056010007858276,0.5379626154899597,-0.2482006549835205,37.79042816162109,21.14956283569336,-11.861083984375,2,9148.371836916667,4,1,1580905432.613003,1580903939.50652,1111,0.4627655,0,0,1410.409,1,0,1580905431.406553,9145.840335999999,0,2.708374,97.17165
1580905433.085694,154,0,1580904337.000819,41.20701635159924,29.07533761282497,172.748,-1,-1,5.74967098236084,48.00724964208526,-9999,9148.860436625,2.4283447265625,0.2324981689453125,-0.6618804931640625,9148.855400625,2.220472295830643,1.258459353731306,-0.61141404876865,-0.4609545171260834,-0.7569584846496582,-4.372472763061523,1.353624820709229,-0.3043355345726013,-0.2821894288063049,2,-0.610902787354384,0.03146811566125747,0.6119369196254286,0.5013391045666713,0.7792203426361084,0.5740259289741516,-0.2516150772571564,35.5751953125,23.36165618896484,-12.53494262695312,2,9148.371836916667,4,1,1580905432.613003,1580903939.50652,1111,0.4627655,0,0,1410.409,1,0,1580905431.406553,9145.840335999999,0,2.708374,97.17165
1580905433.095632,155,0,1580904337.000819,41.20701635159924,29.07533761282497,172.748,-1,-1,5.74967098236084,48.00724964208526,-9999,9148.870506625,2.6832275390625,0.0866241455078125,-0.73492431640625,9148.865440625001,2.208795868532938,1.242598881187207,-0.6625732280215471,-0.7206888794898987,-0.8505805730819702,-5.126789093017578,1.681110143661499,-0.3833948373794556,-0.408649742603302,2,-0.6105778536477366,0.01128941162427652,0.6016474304636499,0.5148664803635368,0.7463302612304688,0.6151476502418518,-0.254134476184845,35.5751953125,23.36165618896484,-12.53494262695312,2,9148.371836916667,4,1,1580905432.613003,1580903939.50652,1111,0.4627655,0,0,1410.409,1,0,1580905431.406553,9145.840335999999,0,2.708374,97.17165
1580905433.105687,156,0,1580904337.000819,41.20701635159924,29.07533761282497,172.748,-1,-1,5.74967098236084,48.00724964208526,-9999,9148.880547625,2.941452026367188,0.1715545654296875,-0.7087860107421875,9148.875481625,2.194786926110776,1.220427032543405,-0.7216879482376636,-0.9365958571434021,-1.325767517089844,-5.919341564178467,1.977289199829102,-0.5748289823532104,-0.4781527519226074,2,-0.6090921372781296,-0.01308869094000025,0.5901806504356055,0.5296434787304894,0.7050840854644775,0.660652756690979,-0.2576709091663361,32.84664154052734,26.04537582397461,-12.88656616210938,2,9148.371836916667,4,1,1580905432.613003,1580903939.50652,1111,0.4627655,0,0,1410.409,1,0,1580905431.406553,9145.840335999999,0,2.708374,97.17165
1580905433.138861,157,0,1580904337.000819,41.20701635159924,29.07533761282497,172.748,-1,-1,5.74967098236084,48.00724964208526,-9999,9148.890587625001,2.827484130859375,0.4431610107421875,-0.2809295654296875,9148.885521625001,2.17708923694908,1.194416059817467,-0.7877635847405804,-1.207828998565674,-1.412355422973633,-6.607907295227051,2.284604549407959,-0.5380815267562866,-0.450397253036499,2,-0.6072318820045877,-0.04032778025623189,0.5764164462775592,0.5453322157114053,0.656052827835083,0.7087774276733398,-0.2592862248420715,32.84664154052734,26.04537582397461,-12.88656616210938,2,9148.371836916667,4,1,1580905432.613003,1580903939.50652,1111,0.4627655,0,0,1410.409,1,0,1580905431.406553,9145.840335999999,0,2.708374,97.17165
1580905433.14045,158,0,1580904337.000819,41.20701635159924,29.07533761282497,172.748,-1,-1,5.74967098236084,48.00724964208526,-9999,9148.900627625,2.832626342773438,0.522491455078125,0.03448486328125,9148.895561625,2.148518912343902,1.162541746869555,-0.8591559973799554,-0.9310072064399719,-1.014036893844604,-7.315913200378418,2.227354049682617,-0.3150481581687927,-0.02255028486251831,2,-0.6047353665983908,-0.06824055376996886,0.5591274637528668,0.5630407416294164,0.5994038581848145,0.7572916150093079,-0.2592767179012299,28.74113464355469,28.90800094604492,-13.02285766601562,2,9148.371836916667,4,1,1580905432.613003,1580903939.50652,1111,0.4627655,0,0,1410.409,1,0,1580905431.406553,9145.840335999999,0,2.708374,97.17165
1580905433.142231,159,0,1580904337.000819,41.20701635159924,29.07533761282497,172.748,-1,-1,5.74967098236084,48.00724964208526,-9999,9148.910668625,3.11859130859375,0.354034423828125,0.210540771484375,9148.905602625,2.104592734872779,1.115335965945135,-0.9337167398994035,-0.6219419836997986,-1.24719500541687,-7.904948711395264,2.297768354415894,-0.2823188304901123,0.2952507734298706,2,-0.5997197688801847,-0.09749864671079703,0.5400628046518208,0.5823766727398305,0.5342108011245728,0.8038364052772522,-0.2616604268550873,28.74113464355469,28.90800094604492,-13.02285766601562,2,9148.371836916667,4,1,1580905432.613003,1580903939.50652,1111,0.4627655,0,0,1410.409,1,0,1580905431.406553,9145.840335999999,0,2.708374,97.17165
1580905433.145739,160,0,1580904337.000819,41.20701635159924,29.07533761282497,172.748,-1,-1,5.74967098236084,48.00724964208526,-9999,9148.920708625001,3.199935913085938,0.3928070068359375,0.4984893798828125,9148.915672625,2.039243128224244,1.044908153567207,-1.007972861365886,-0.1995252072811127,-1.686049580574036,-8.215244293212891,2.656553506851196,-0.4927423596382141,0.4774989485740662,2,-0.5914159536777256,-0.1276890511386258,0.5202713460785517,0.6026942937011064,0.4614786207675934,0.845751941204071,-0.2678453624248505,23.54386138916016,31.40071868896484,-13.65170288085938,2,9148.371836916667,4,1,1580905432.613003,1580903939.50652,1111,0.4627655,0,0,1410.409,1,0,1580905431.406553,9145.840335999999,0,2.708374,97.17165
