loggingTime,loggingSample,identifierForVendor,locationTimestamp_since1970,locationLatitude,locationLongitude,locationAltitude,locationSpeed,locationCourse,locationVerticalAccuracy,locationHorizontalAccuracy,locationFloor,accelerometerTimestamp_sinceReboot,accelerometerAccelerationX,accelerometerAccelerationY,accelerometerAccelerationZ,motionTimestamp_sinceReboot,motionYaw,motionRoll,motionPitch,motionRotationRateX,motionRotationRateY,motionRotationRateZ,motionUserAccelerationX,motionUserAccelerationY,motionUserAccelerationZ,motionAttitudeReferenceFrame,motionQuaternionX,motionQuaternionY,motionQuaternionZ,motionQuaternionW,motionGravityX,motionGravityY,motionGravityZ,motionMagneticFieldX,motionMagneticFieldY,motionMagneticFieldZ,motionMagneticFieldCalibrationAccuracy,activityTimestamp_sinceReboot,activity,activityActivityConfidence,activityActivityStartDate,pedometerStartDate,pedometerNumberofSteps,pedometerAverageActivePace,pedometerCurrentPace,pedometerCurrentCadence,pedometerDistance,pedometerFloorAscended,pedometerFloorDescended,pedometerEndDate,altimeterTimestamp_sinceReboot,altimeterReset,altimeterRelativeAltitude,altimeterPressure
1580908741.775194,1,0,1580907286.99823,41.20781296037784,29.0754925099451,275.2123,0.1345286,-1,23.46983528137207,200,-9999,12457.566523,0.8220672607421875,0.00567626953125,-0.5213775634765625,12457.556483,-1.385848422054976,1.027858348279683,-0.00533034936397324,-0.00923723541200161,-0.02118044719099998,0.01281768269836903,-0.01771128177642822,0.002691090106964111,0.0009980201721191406,2,0.312243930973684,0.3797111190910492,-0.5572767372309405,0.6691531547933968,0.856182336807251,0.005330324172973633,-0.5166463851928711,10.70620727539062,-1.679067611694336,-31.75408935546875,2,12453.682184625,4,1,1580908737.923351,1580903939.50652,2930,0.4892533,0,0,3512.849,14,15,1580908730.201193,12454.359974,0,17.13809,97.00418
1580908741.77803,2,0,1580907286.99823,41.20781296037784,29.0754925099451,275.2123,0.1345286,-1,23.46983528137207,200,-9999,12457.576575625,0.819732666015625,0.0055084228515625,-0.5253448486328125,12457.566523,-1.385771326074149,1.027699027328999,-0.005284626922963927,-0.003545829094946384,-0.01281029172241688,0.01032040640711784,-0.03691589832305908,0.0006007552146911621,-0.005288958549499512,2,0.3122002697055183,0.3796571467961254,-0.5572671912701506,0.6692120121326599,0.8561002016067505,0.005284602288156748,-0.5167828798294067,10.54916381835938,-1.559938430786133,-31.70050048828125,2,12453.682184625,4,1,1580908737.923351,1580903939.50652,2930,0.4892533,0,0,3512.849,14,15,1580908730.201193,12454.359974,0,17.13809,97.00418
1580908741.799373,3,0,1580907286.99823,41.20781296037784,29.0754925099451,275.2123,0.1345286,-1,23.46983528137207,200,-9999,12457.586616625,0.804656982421875,0.00238037109375,-0.5218658447265625,12457.576575625,-1.385767546190927,1.027673323777718,-0.005287557042282914,0.001169297844171524,-0.0039166659116745,0.000689350999891758,-0.03819936513900757,0.000414729118347168,-0.01072931289672852,2,0.3121913753913679,0.3796499563635101,-0.5572705005420687,0.6692175744753994,0.8560869097709656,0.005287532228976488,-0.5168049335479736,10.54916381835938,-1.559938430786133,-31.70050048828125,2,12453.682184625,4,1,1580908737.923351,1580903939.50652,2930,0.4892533,0,0,3512.849,14,15,1580908730.201193,12454.359974,0,17.13809,97.00418
1580908741.800454,4,0,1580907286.99823,41.20781296037784,29.0754925099451,275.2123,0.1345286,-1,23.46983528137207,200,-9999,12457.596656625,0.8082275390625,0.0055389404296875,-0.5271148681640625,12457.586616625,-1.385720267709408,1.027938863849892,-0.005369746460850046,-0.009759598411619663,0.02838985435664654,-0.004743583500385284,-0.05428230762481689,-0.00279584527015686,-0.006838083267211914,2,0.3122288705652311,0.3797689914347687,-0.557228694732492,0.6691671999808293,0.8562237024307251,0.005369720514863729,-0.5165773034095764,10.75641632080078,-1.761407852172852,-31.78216552734375,2,12453.682184625,4,1,1580908737.923351,1580903939.50652,2930,0.4892533,0,0,3512.849,14,15,1580908730.201193,12454.359974,0,17.13809,97.00418
1580908741.808336,5,0,1580907286.99823,41.20781296037784,29.0754925099451,275.2123,0.1345286,-1,23.46983528137207,200,-9999,12457.606696625,0.816925048828125,0.007415771484375,-0.523193359375,12457.596656625,-1.385734316359172,1.028432510427587,-0.005462383402650377,-0.003085184376686811,0.05125868320465088,-0.008779603987932205,-0.05205041170120239,-0.0006457865238189697,-0.0122978687286377,2,0.3123379330881623,0.3799576773287394,-0.5571737911832005,0.6690550820419723,0.8564782738685608,0.005462356377393007,-0.5161543488502502,10.75641632080078,-1.761407852172852,-31.78216552734375,2,12453.682184625,4,1,1580908737.923351,1580903939.50652,2930,0.4892533,0,0,3512.849,14,15,1580908730.201193,12454.359974,0,17.13809,97.00418
1580908741.818247,6,0,1580907286.99823,41.20781296037784,29.0754925099451,275.2123,0.1345286,-1,23.46983528137207,200,-9999,12457.616736625,0.8258819580078125,0.00421142578125,-0.5194549560546875,12457.606696625,-1.385771830482425,1.029085671160376,-0.005580731362019671,-0.002847797702997923,0.0659695491194725,-0.0110459728166461,-0.04436188936233521,0.002043098211288452,-0.01015901565551758,2,0.3124873549107535,0.3802031307972693,-0.5571066112143779,0.6689017116687747,0.8568145632743835,0.00558070233091712,-0.515594482421875,10.53594207763672,-1.635553359985352,-31.74786376953125,2,12453.682184625,4,1,1580908737.923351,1580903939.50652,2930,0.4892533,0,0,3512.849,14,15,1580908730.201193,12454.359974,0,17.13809,97.00418
1580908741.828422,7,0,1580907286.99823,41.20781296037784,29.0754925099451,275.2123,0.1345286,-1,23.46983528137207,200,-9999,12457.626807625,0.835357666015625,0.0080108642578125,-0.5180206298828125,12457.616736625,-1.385779677029338,1.029831787421684,-0.005709797907550195,-0.007443614769726992,0.0738314688205719,-0.01020228397101164,-0.03534775972366333,-0.001534998416900635,-0.006208300590515137,2,0.312653367946941,0.3804872282111397,-0.5570169767890272,0.6687372776331589,0.8571984767913818,0.005709766875952482,-0.514954686164856,10.53594207763672,-1.635553359985352,-31.74786376953125,2,12453.682184625,4,1,1580908737.923351,1580903939.50652,2930,0.4892533,0,0,3512.849,14,15,1580908730.201193,12454.359974,0,17.13809,97.00418
1580908741.838855,8,0,1580907286.99823,41.20781296037784,29.0754925099451,275.2123,0.1345286,-1,23.46983528137207,200,-9999,12457.636847625,0.8453369140625,0.009979248046875,-0.5140380859375,12457.626807625,-1.38582152083071,1.030620836826344,-0.00582929102537036,-0.001703151036053896,0.07972577214241028,-0.01214155368506908,-0.0264165997505188,0.001702010631561279,-0.005834996700286865,2,0.3128410186195167,0.3807776281805548,-0.5569301279364134,0.6685565246368758,0.857603907585144,0.005829257890582085,-0.5142778158187866,10.61970520019531,-1.697637557983398,-31.744873046875,2,12453.682184625,4,1,1580908737.923351,1580903939.50652,2930,0.4892533,0,0,3512.849,14,15,1580908730.201193,12454.359974,0,17.13809,97.00418
1580908741.857609,9,0,1580907286.99823,41.20781296037784,29.0754925099451,275.2123,0.1345286,-1,23.46983528137207,200,-9999,12457.646888625,0.853973388671875,0.011444091796875,-0.5139312744140625,12457.636847625,-1.385853924689339,1.03134331363738,-0.00594058625746813,-0.002647774294018745,0.07301141321659088,-0.01118840835988522,-0.01694685220718384,0.004184305667877197,-0.002337455749511719,2,0.3130110451842018,0.3810449048086627,-0.5568489363454863,0.6683923059687584,0.8579747080802917,0.005940551403909922,-0.5136577486991882,10.61970520019531,-1.697637557983398,-31.744873046875,2,12453.682184625,4,1,1580908737.923351,1580903939.50652,2930,0.4892533,0,0,3512.849,14,15,1580908730.201193,12454.359974,0,17.13809,97.00418
1580908741.858807,10,0,1580907286.99823,41.20781296037784,29.0754925099451,275.2123,0.1345286,-1,23.46983528137207,200,-9999,12457.656928625,0.8548583984375,0.0116729736328125,-0.5121917724609375,12457.646888625,-1.385868531176963,1.031947394544768,-0.006011082541226878,-0.001595974899828434,0.06351277977228165,-0.00564030185341835,-0.007965326309204102,0.005135893821716309,-0.002797126770019531,2,0.3131584134587064,0.3812640206393233,-0.5567725620143796,0.6682618553760662,0.8582844138145447,0.006011046469211578,-0.5131391286849976,10.77537536621094,-1.655309677124023,-31.864990234375,2,12453.682184625,4,1,1580908737.923351,1580903939.50652,2930,0.4892533,0,0,3512.849,14,15,1580908730.201193,12454.359974,0,17.13809,97.00418
1580908741.868526,11,0,1580907286.99823,41.20781296037784,29.0754925099451,275.2123,0.1345286,-1,23.46983528137207,200,-9999,12457.666968625,0.8537445068359375,0.0098419189453125,-0.5121612548828125,12457.656928625,-1.385871582749076,1.032384526932986,-0.006074236345481114,-0.003478563856333494,0.04583472013473511,-0.006339115090668201,-0.006938815116882324,0.005850702524185181,-0.001556515693664551,2,0.313259497474657,0.381427104584472,-0.556717067568089,0.6681677055165429,0.8585083484649658,0.006074198987334967,-0.5127636790275574,10.77537536621094,-1.655309677124023,-31.864990234375,2,12453.682184625,4,1,1580908737.923351,1580903939.50652,2930,0.4892533,0,0,3512.849,14,15,1580908730.201193,12454.359974,0,17.13809,97.00418
1580908741.87863,12,0,1580907286.99823,41.20781296037784,29.0754925099451,275.2123,0.1345286,-1,23.46983528137207,200,-9999,12457.677009625,0.8511810302734375,0.0095977783203125,-0.5136260986328125,12457.666968625,-1.385878392468826,1.03268319511694,-0.006119826439298814,-0.002157073002308607,0.0323885902762413,-0.005277014337480068,-0.00819087028503418,0.003561913967132568,-0.001386880874633789,2,0.3133287007866705,0.3815384410459659,-0.5566811619246024,0.6681014794853701,0.8586611747741699,0.006119788158684969,-0.5125070810317993,10.83992767333984,-1.643068313598633,-31.78460693359375,2,12453.682184625,4,1,1580908737.923351,1580903939.50652,2930,0.4892533,0,0,3512.849,14,15,1580908730.201193,12454.359974,0,17.13809,97.00418
1580908741.888551,13,0,1580907286.99823,41.20781296037784,29.0754925099451,275.2123,0.1345286,-1,23.46983528137207,200,-9999,12457.687049625,0.84564208984375,0.0060882568359375,-0.513671875,12457.677009625,-1.385874705038077,1.032892495502716,-0.006147864021489066,-0.0009069852530956268,0.0232467595487833,-0.002458058297634125,-0.01057201623916626,0.003610044717788696,-0.003001689910888672,2,0.3133768261875913,0.3816167116441903,-0.5566524496883302,0.6680582201265954,0.8587683439254761,0.006147825159132481,-0.5123273134231567,10.83992767333984,-1.643068313598633,-31.78460693359375,2,12453.682184625,4,1,1580908737.923351,1580903939.50652,2930,0.4892533,0,0,3512.849,14,15,1580908730.201193,12454.359974,0,17.13809,97.00418
1580908741.898798,14,0,1580907286.99823,41.20781296037784,29.0754925099451,275.2123,0.1345286,-1,23.46983528137207,200,-9999,12457.697089625,0.8391265869140625,0.0055084228515625,-0.5147552490234375,12457.687049625,-1.385839391228976,1.033098645689924,-0.006186302800845075,-0.005169541575014591,0.02411690540611744,-0.00127270445227623,-0.01571321487426758,0.0002908110618591309,-0.003301560878753662,2,0.3134145883689871,0.381701756127512,-0.5566156194450893,0.6680225985925349,0.858873724937439,0.006186263170093298,-0.5121501088142395,10.89253997802734,-1.358530044555664,-31.65423583984375,2,12453.682184625,4,1,1580908737.923351,1580903939.50652,2930,0.4892533,0,0,3512.849,14,15,1580908730.201193,12454.359974,0,17.13809,97.00418
1580908741.922376,15,0,1580907286.99823,41.20781296037784,29.0754925099451,275.2123,0.1345286,-1,23.46983528137207,200,-9999,12457.707129625,0.8406829833984375,0.01080322265625,-0.515655517578125,12457.697089625,-1.385831361337805,1.033310055262341,-0.006259291201553863,-0.005588456988334656,0.02268732152879238,-0.005156392231583595,-0.02284055948257446,-0.001109957695007324,-0.004521608352661133,2,0.313447423797123,0.381793855403578,-0.5565936173503403,0.6679729421921523,0.8589816093444824,0.006259250454604626,-0.5119683146476746,10.89253997802734,-1.358530044555664,-31.65423583984375,2,12453.682184625,4,1,1580908737.923351,1580903939.50652,2930,0.4892533,0,0,3512.849,14,15,1580908730.201193,12454.359974,0,17.13809,97.00418
1580908741.923855,16,0,1580907286.99823,41.20781296037784,29.0754925099451,275.2123,0.1345286,-1,23.46983528137207,200,-9999,12457.717200625,0.8438262939453125,0.01019287109375,-0.5149078369140625,12457.707129625,-1.385903036869682,1.033527352974124,-0.00633993028660206,0.002506149932742119,0.02314573340117931,-0.01093059964478016,-0.02182257175445557,0.004164934158325195,-0.005624830722808838,2,0.3134946018328319,0.3818775303189438,-0.5565987410015422,0.6678986096117367,0.8590923547744751,0.006339887622743845,-0.5117813944816589,10.83303833007812,-1.746564865112305,-31.61846923828125,2,12453.682184625,4,1,1580908737.923351,1580903939.50652,2930,0.4892533,0,0,3512.849,14,15,1580908730.201193,12455.304292,0,17.18564,97.00362
1580908741.92892,17,0,1580907286.99823,41.20781296037784,29.0754925099451,275.2123,0.1345286,-1,23.46983528137207,200,-9999,12457.727241625,0.8469696044921875,0.0124969482421875,-0.5128631591796875,12457.717200625,-1.386015166039703,1.033694534480351,-0.006399416115072301,0.005766923539340496,0.01719276793301105,-0.01082833390682936,-0.01911568641662598,0.003845840692520142,-0.005311369895935059,2,0.3135426075154938,0.3819322652487814,-0.556621233759226,0.6678260544435243,0.8591775894165039,0.006399372592568398,-0.5116375684738159,10.77381134033203,-1.903024673461914,-31.73895263671875,2,12453.682184625,4,1,1580908737.923351,1580903939.50652,2930,0.4892533,0,0,3512.849,14,15,1580908730.201193,12455.304292,0,17.18564,97.00362
1580908741.938916,18,0,1580907286.99823,41.20781296037784,29.0754925099451,275.2123,0.1345286,-1,23.46983528137207,200,-9999,12457.737281625,0.8398895263671875,0.0079345703125,-0.5135345458984375,12457.727241625,-1.386167942632427,1.03377883971976,-0.006456010800004967,0.01000771950930357,0.008195757865905762,-0.01270389370620251,-0.01525247097015381,0.006032049655914307,-0.003187060356140137,2,0.3135763007825941,0.3819521430393734,-0.5566697325156682,0.6677584173319199,0.8592203855514526,0.006455965805798769,-0.5115649104118347,10.77381134033203,-1.903024673461914,-31.73895263671875,2,12453.682184625,4,1,1580908737.923351,1580903939.50652,2930,0.4892533,0,0,3512.849,14,15,1580908730.201193,12455.304292,0,17.18564,97.00362
1580908741.948951,19,0,1580907286.99823,41.20781296037784,29.0754925099451,275.2123,0.1345286,-1,23.46983528137207,200,-9999,12457.747321625,0.8350372314453125,0.004150390625,-0.5136260986328125,12457.737281625,-1.386288804604258,1.033859978934628,-0.006485841925187347,0.008980804122984409,0.009017342701554298,-0.007638029288500547,-0.02180939912796021,0.002080619335174561,-0.003898024559020996,2,0.3136119833953988,0.3819685471961671,-0.5567030034979503,0.6677045212759019,0.859261691570282,0.00648579653352499,-0.5114951133728027,10.81694030761719,-1.842885971069336,-31.7474365234375,2,12453.682184625,4,1,1580908737.923351,1580903939.50652,2930,0.4892533,0,0,3512.849,14,15,1580908730.201193,12455.304292,0,17.18564,97.00362
1580908741.958915,20,0,1580907286.99823,41.20781296037784,29.0754925099451,275.2123,0.1345286,-1,23.46983528137207,200,-9999,12457.757361625,0.8318634033203125,0.009002685546875,-0.5145263671875,12457.747321625,-1.386327009530174,1.033991507194796,-0.006497246573954267,0.002493486739695072,0.01447305828332901,-0.002417959272861481,-0.02712589502334595,-0.002462685108184814,-0.003889381885528564,2,0.3136520524702633,0.3820096303892366,-0.5566972960232104,0.6676670093899316,0.8593289256095886,0.006497201044112444,-0.5113820433616638,10.81694030761719,-1.842885971069336,-31.7474365234375,2,12453.682184625,4,1,1580908737.923351,1580903939.50652,2930,0.4892533,0,0,3512.849,14,15,1580908730.201193,12455.304292,0,17.18564,97.00362
1580908741.983413,21,0,1580907286.99823,41.20781296037784,29.0754925099451,275.2123,0.1345286,-1,23.46983528137207,200,-9999,12457.767402625,0.8380584716796875,0.011016845703125,-0.516448974609375,12457.757361625,-1.386333732418107,1.034176217236789,-0.006497618864610313,-0.0009145596995949745,0.01968566328287125,-0.0005785133689641953,-0.03091341257095337,0.001916199922561646,-0.004979491233825684,2,0.3137046259349072,0.3820703395335212,-0.5566706405347619,0.6676297916908589,0.8594233989715576,0.006497573107481003,-0.511223316192627,10.86493682861328,-1.844854354858398,-31.6240234375,2,12453.682184625,4,1,1580908737.923351,1580903939.50652,2930,0.4892533,0,0,3512.849,14,15,1580908730.201193,12455.304292,0,17.18564,97.00362
1580908741.98517,22,0,1580907286.99823,41.20781296037784,29.0754925099451,275.2123,0.1345286,-1,23.46983528137207,200,-9999,12457.777442625,0.850189208984375,0.00738525390625,-0.5113067626953125,12457.767402625,-1.386361482070662,1.034392203317286,-0.006464953573194297,0.005223032087087631,0.02350295521318913,0.0005423529073596001,-0.02550065517425537,0.00454297661781311,-0.007515549659729004,2,0.3137809821919537,0.3821290314754811,-0.5566398387376588,0.6675859917473609,0.859533965587616,0.006464908365160227,-0.5110378265380859,10.86493682861328,-1.844854354858398,-31.6240234375,2,12453.682184625,4,1,1580908737.923351,1580903939.50652,2930,0.4892533,0,0,3512.849,14,15,1580908730.201193,12455.304292,0,17.18564,97.00362
1580908741.989103,23,0,1580907286.99823,41.20781296037784,29.0754925099451,275.2123,0.1345286,-1,23.46983528137207,200,-9999,12457.787482625,0.85546875,0.0086212158203125,-0.5114898681640625,12457.777442625,-1.38632430692101,1.034562498962884,-0.006431682908663718,-0.001938208471983671,0.01836518757045269,0.004508598707616329,-0.01386940479278564,0.001402556896209717,-0.002718508243560791,2,0.3138324081749259,0.3821824894314019,-0.5565944138843322,0.6675691036412922,0.8596211671829224,0.006431638728827238,-0.5108915567398071,10.79152679443359,-1.808004379272461,-31.73150634765625,2,12453.682184625,4,1,1580908737.923351,1580903939.50652,2930,0.4892533,0,0,3512.849,14,15,1580908730.201193,12455.304292,0,17.18564,97.00362
1580908741.999088,24,0,1580907286.99823,41.20781296037784,29.0754925099451,275.2123,0.1345286,-1,23.46983528137207,200,-9999,12457.797523625,0.85009765625,0.0079803466796875,-0.5112762451171875,12457.787482625,-1.386307476065507,1.034673881122057,-0.006407248683279554,0.0005443291738629341,0.01252027414739132,0.003231012262403965,-0.007380664348602295,0.001854360103607178,-0.002143204212188721,2,0.3138683804676715,0.3822155354776038,-0.5565666879440596,0.6675563557160401,0.8596782088279724,0.006407205015420914,-0.5107958316802979,10.79152679443359,-1.808004379272461,-31.73150634765625,2,12453.682184625,4,1,1580908737.923351,1580903939.50652,2930,0.4892533,0,0,3512.849,14,15,1580908730.201193,12455.304292,0,17.18564,97.00362
1580908742.009167,25,0,1580907286.99823,41.20781296037784,29.0754925099451,275.2123,0.1345286,-1,23.46983528137207,200,-9999,12457.807593625,0.8466796875,0.0057220458984375,-0.512359619140625,12457.797523625,-1.386327003857503,1.034735607886248,-0.006438900546389696,0.0003280807286500931,0.0067414790391922,-0.003800532314926386,-0.01229500770568848,0.001837819814682007,-0.002394914627075195,2,0.3138786729167017,0.3822418474245416,-0.5565695176812514,0.6675341484164237,0.8597095608711243,0.006438856013119221,-0.510742723941803,10.81395721435547,-1.672391891479492,-31.58563232421875,2,12453.682184625,4,1,1580908737.923351,1580903939.50652,2930,0.4892533,0,0,3512.849,14,15,1580908730.201193,12455.304292,0,17.18564,97.00362
1580908742.019232,26,0,1580907286.99823,41.20781296037784,29.0754925099451,275.2123,0.1345286,-1,23.46983528137207,200,-9999,12457.817634625,0.8481597900390625,0.0099945068359375,-0.5132904052734375,12457.807593625,-1.386287627440239,1.034794148612768,-0.006485980581877016,-0.006674227304756641,0.006343768909573555,-0.002302282489836216,-0.01627671718597412,-0.0006050467491149902,-0.003361165523529053,2,0.3138717092190566,0.3822806024970433,-0.5565560915014784,0.6675263309030126,0.8597391843795776,0.006485935300588608,-0.5106921792030334,10.81395721435547,-1.672391891479492,-31.58563232421875,2,12453.682184625,4,1,1580908737.923351,1580903939.50652,2930,0.4892533,0,0,3512.849,14,15,1580908730.201193,12455.304292,0,17.18564,97.00362
1580908742.052487,27,0,1580907286.99823,41.20781296037784,29.0754925099451,275.2123,0.1345286,-1,23.46983528137207,200,-9999,12457.827674625,0.849151611328125,0.012939453125,-0.51141357421875,12457.817634625,-1.386162211104149,1.034844468765991,-0.006433991634155913,-0.007495013996958733,0.006156813353300095,0.01081059034913778,-0.01477682590484619,0.002865076065063477,-0.004625082015991211,2,0.3138791512653656,0.3823026762699784,-0.5564964875204732,0.6675598619639056,0.8597651124000549,0.006433947011828423,-0.5106490850448608,10.85610198974609,-1.823915481567383,-31.61041259765625,2,12453.682184625,4,1,1580908737.923351,1580903939.50652,2930,0.4892533,0,0,3512.849,14,15,1580908730.201193,12455.304292,0,17.18564,97.00362
1580908742.054432,28,0,1580907286.99823,41.20781296037784,29.0754925099451,275.2123,0.1345286,-1,23.46983528137207,200,-9999,12457.837714625,0.8562774658203125,0.0093536376953125,-0.5093231201171875,12457.827674625,-1.385915548255325,1.03486127706731,-0.006251736313354899,-0.01167973317205906,0.004045488312840462,0.02830212935805321,-0.01414567232131958,0.00683218240737915,-0.002670586109161377,2,0.313897649591471,0.3822965227032423,-0.5563770106889834,0.6676544057480996,0.8597747683525085,0.006251695565879345,-0.5106352567672729,10.85610198974609,-1.823915481567383,-31.61041259765625,2,12453.682184625,4,1,1580908737.923351,1580903939.50652,2930,0.4892533,0,0,3512.849,14,15,1580908730.201193,12455.304292,0,17.18564,97.00362
1580908742.055926,29,0,1580907286.99823,41.20781296037784,29.0754925099451,275.2123,0.1345286,-1,23.46983528137207,200,-9999,12457.847754625,0.8614044189453125,0.0142669677734375,-0.5059967041015625,12457.837714625,-1.385530844033197,1.0347623102121,-0.005933821664323294,-0.01699726656079292,-0.00568490382283926,0.04609204456210136,-0.007825255393981934,0.003641784191131592,-0.0009362697601318359,2,0.3139030808845887,0.3822357936888227,-0.5562038631257182,0.6678307554759915,0.8597258329391479,0.005933786742389202,-0.5107213258743286,10.76849365234375,-1.673254013061523,-31.8084716796875,2,12453.682184625,4,1,1580908737.923351,1580903939.50652,2930,0.4892533,0,0,3512.849,14,15,1580908730.201193,12455.304292,0,17.18564,97.00362
1580908742.059603,30,0,1580907286.99823,41.20781296037784,29.0754925099451,275.2123,0.1345286,-1,23.46983528137207,200,-9999,12457.857795625,0.8644866943359375,0.0148162841796875,-0.508544921875,12457.847754625,-1.384904353453628,1.034510562220886,-0.005317412627536953,-0.0210295133292675,-0.02320772595703602,0.08427132666110992,-0.000985264778137207,0.008090436458587646,0.003219485282897949,2,0.3139198021308681,0.3820793221034424,-0.5559173114598792,0.6681509554342548,0.8596002459526062,0.005317387636750937,-0.5109394788742065,10.76849365234375,-1.673254013061523,-31.8084716796875,2,12453.682184625,4,1,1580908737.923351,1580903939.50652,2930,0.4892533,0,0,3512.849,14,15,1580908730.201193,12455.304292,0,17.18564,97.00362
1580908742.069766,31,0,1580907286.99823,41.20781296037784,29.0754925099451,275.2123,0.1345286,-1,23.46983528137207,200,-9999,12457.867835625,0.8646087646484375,0.0214996337890625,-0.505340576171875,12457.857795625,-1.383881286467586,1.034130980690969,-0.004231196692380907,-0.03258363902568817,-0.0362047515809536,0.1488705575466156,0.0008225440979003906,0.0107828676700592,0.001047372817993164,2,0.3139827697931657,0.3818122629169358,-0.5554289904489459,0.6686800292821572,0.8594107627868652,0.004231184255331755,-0.5112684369087219,11.01630401611328,-1.800233840942383,-31.60736083984375,2,12453.682184625,4,1,1580908737.923351,1580903939.50652,2930,0.4892533,0,0,3512.849,14,15,1580908730.201193,12455.304292,0,17.18564,97.00362
1580908742.07956,32,0,1580907286.99823,41.20781296037784,29.0754925099451,275.2123,0.1345286,-1,23.46983528137207,200,-9999,12457.877875625,0.830810546875,0.012176513671875,-0.5111083984375,12457.867835625,-1.382718957412928,1.033520710770747,-0.002945446835849916,-0.03422603011131287,-0.06225065886974335,0.1721398830413818,0.003802299499511719,0.01771917939186096,0.004246294498443604,2,0.3140224398786545,0.3814345844453041,-0.5548919332117009,0.6693223985821646,0.8591024875640869,0.00294544268399477,-0.5117951035499573,11.01630401611328,-1.800233840942383,-31.60736083984375,2,12453.682184625,4,1,1580908737.923351,1580903939.50652,2930,0.4892533,0,0,3512.849,14,15,1580908730.201193,12455.304292,0,17.18564,97.00362
1580908742.124896,33,0,1580907286.99823,41.20781296037784,29.0754925099451,275.2123,0.1345286,-1,23.46983528137207,200,-9999,12457.887916625,0.7832183837890625,-0.01715087890625,-0.5279083251953125,12457.877875625,-1.381744099763042,1.032983210655595,-0.001809096084084534,-0.02411800436675549,-0.05707293748855591,0.1494199335575104,-0.02663975954055786,0.01304617524147034,0.0010947585105896,2,0.3140684188219449,0.3810930708725967,-0.5544340723843273,0.6698745339689191,0.8588295578956604,0.001809095148928463,-0.5122581720352173,10.83662414550781,-2.03135871887207,-31.56671142578125,2,12453.682184625,4,1,1580908737.923351,1580903939.50652,2930,0.4892533,0,0,3512.849,14,15,1580908730.201193,12455.304292,0,17.18564,97.00362
1580908742.126944,34,0,1580907286.99823,41.20781296037784,29.0754925099451,275.2123,0.1345286,-1,23.46983528137207,200,-9999,12457.897986625,0.75616455078125,-0.022857666015625,-0.530670166015625,12457.887916625,-1.380983664277227,1.033058501122546,-0.001121338934444906,-0.02930823899805546,0.00476459413766861,0.1018691882491112,-0.07454603910446167,-0.01603341102600098,-0.0167306661605835,2,0.3141749056850317,0.381047342425011,-0.5540367450655668,0.6701794323904343,0.8588690757751465,0.001121338689699769,-0.5121940970420837,10.83662414550781,-2.03135871887207,-31.56671142578125,2,12453.682184625,4,1,1580908737.923351,1580903939.50652,2930,0.4892533,0,0,3512.849,14,15,1580908730.201193,12455.304292,0,17.18564,97.00362
1580908742.128764,35,0,1580907286.99823,41.20781296037784,29.0754925099451,275.2123,0.1345286,-1,23.46983528137207,200,-9999,12457.908027625,0.75823974609375,-0.003814697265625,-0.53057861328125,12457.897986625,-1.380531208894437,1.03391824197417,-0.0009582770351440221,-0.02771167457103729,0.08485357463359833,0.04006440937519073,-0.1051087975502014,-0.02482661604881287,-0.02111893892288208,2,0.3143814676644733,0.3813613942677955,-0.5537189895031485,0.6701664350332953,0.859309196472168,0.0009582769125699997,-0.5114555358886719,10.91279602050781,-1.977701187133789,-31.5697021484375,2,12453.682184625,4,1,1580908737.923351,1580903939.50652,2930,0.4892533,0,0,3512.849,14,15,1580908730.201193,12455.304292,0,17.18564,97.00362
1580908742.130548,36,0,1580907286.99823,41.20781296037784,29.0754925099451,275.2123,0.1345286,-1,23.46983528137207,200,-9999,12457.918067625,0.7545928955078125,-0.0010528564453125,-0.5288238525390625,12457.908027625,-1.380460025026333,1.035482688297245,-0.001179179369580987,-0.01563530415296555,0.1549551635980606,-0.01558234356343746,-0.1052389740943909,-0.006371557712554932,-0.02245354652404785,2,0.3147268266842685,0.3819578008606258,-0.5534911987576854,0.6698529443647778,0.8601081967353821,0.001179179060272872,-0.5101104974746704,10.91279602050781,-1.977701187133789,-31.5697021484375,2,12453.682184625,4,1,1580908737.923351,1580903939.50652,2930,0.4892533,0,0,3512.849,14,15,1580908730.201193,12455.304292,0,17.18564,97.00362
1580908742.13198,37,0,1580907286.99823,41.20781296037784,29.0754925099451,275.2123,0.1345286,-1,23.46983528137207,200,-9999,12457.928107625,0.75555419921875,-0.0054779052734375,-0.5252532958984375,12457.918067625,-1.380609883838954,1.037810039337679,-0.001643950091187785,-0.01029433403164148,0.2315245121717453,-0.04735758155584335,-0.1096014976501465,-0.002138376235961914,-0.02284711599349976,2,0.3152437302907153,0.3828418361173828,-0.5532635110953634,0.6692930691264577,0.8612924814224243,0.001643949304707348,-0.50810706615448,10.93795776367188,-1.849489212036133,-31.54547119140625,2,12453.682184625,4,1,1580908737.923351,1580903939.50652,2930,0.4892533,0,0,3512.849,14,15,1580908730.201193,12455.304292,0,17.18564,97.00362
1580908742.139934,38,0,1580907286.99823,41.20781296037784,29.0754925099451,275.2123,0.1345286,-1,23.46983528137207,200,-9999,12457.938148625,0.76641845703125,-0.0006866455078125,-0.519500732421875,12457.928107625,-1.380836560419878,1.040930753245028,-0.002289898378217152,-0.01329577434808016,0.312135636806488,-0.06621602922677994,-0.1107910871505737,-0.007898420095443726,-0.02220648527145386,2,0.3159340387566512,0.3840282006719987,-0.5529703713700915,0.6685296379741346,0.8628727793693542,0.002289896365255117,-0.5054160356521606,10.93795776367188,-1.849489212036133,-31.54547119140625,2,12453.682184625,4,1,1580908737.923351,1580903939.50652,2930,0.4892533,0,0,3512.849,14,15,1580908730.201193,12455.304292,0,17.18564,97.00362
1580908742.170498,39,0,1580907286.99823,41.20781296037784,29.0754925099451,275.2123,0.1345286,-1,23.46983528137207,200,-9999,12457.948188625,0.7819061279296875,0.0045166015625,-0.51495361328125,12457.938148625,-1.38116733829904,1.044720406335052,-0.003078143469594475,-0.01145899202674627,0.3780265152454376,-0.08392045646905899,-0.1033518314361572,-0.004478186368942261,-0.01957297325134277,2,0.3167815107467505,0.3854591940633848,-0.5526324668154929,0.6675837723896373,0.8647801280021667,0.003078138688579202,-0.5021413564682007,11.11801147460938,-1.920515060424805,-31.49359130859375,2,12453.682184625,4,1,1580908737.923351,1580903939.50652,2930,0.4892533,0,0,3512.849,14,15,1580908730.201193,12455.304292,0,17.18564,97.00362
1580908742.171863,40,0,1580907286.99823,41.20781296037784,29.0754925099451,275.2123,0.1345286,-1,23.46983528137207,200,-9999,12457.958228625,0.7978515625,0.0041656494140625,-0.50732421875,12457.948188625,-1.381668210356439,1.0490882031793,-0.003978703987820098,-0.0001081302762031555,0.4352819919586182,-0.1022084280848503,-0.08971887826919556,0.000156790018081665,-0.01885408163070679,2,0.317783886927583,0.387084593001574,-0.5522796589659122,0.6664579576900289,0.8669623732566833,0.003978693392127752,-0.4983578324317932,11.11801147460938,-1.920515060424805,-31.49359130859375,2,12453.682184625,4,1,1580908737.923351,1580903939.50652,2930,0.4892533,0,0,3512.849,14,15,1580908730.201193,12455.304292,0,17.18564,97.00362
1580908742.173417,41,0,1580907286.99823,41.20781296037784,29.0754925099451,275.2123,0.1345286,-1,23.46983528137207,200,-9999,12457.968268625,0.8270263671875,0.0052947998046875,-0.4984283447265625,12457.958228625,-1.382210720580968,1.053934436550535,-0.004958310824131433,-0.001661285758018494,0.4861909747123718,-0.1119430735707283,-0.07709914445877075,-0.0005213022232055664,-0.0159381628036499,2,0.3189000602749276,0.3888811981711434,-0.5518777169568885,0.6652106693785593,0.86936354637146,0.004958290606737137,-0.4941483438014984,11.41968536376953,-1.786554336547852,-31.39166259765625,2,12453.682184625,4,1,1580908737.923351,1580903939.50652,2930,0.4892533,0,0,3512.849,14,15,1580908730.201193,12455.304292,0,17.18564,97.00362
1580908742.179888,42,0,1580907286.99823,41.20781296037784,29.0754925099451,275.2123,0.1345286,-1,23.46983528137207,200,-9999,12457.978309625,0.850067138671875,0.0093231201171875,-0.4877471923828125,12457.968268625,-1.382694166397455,1.05902416087938,-0.00588348434870661,-0.004140785895287991,0.5123356580734253,-0.105211928486824,-0.05133336782455444,-0.001007378101348877,-0.01161462068557739,2,0.3200898966733086,0.3907494283471813,-0.5514042360291458,0.6639358724612093,0.8718629479408264,0.005883450619876385,-0.4897146821022034,11.41968536376953,-1.786554336547852,-31.39166259765625,2,12453.682184625,4,1,1580908737.923351,1580903939.50652,2930,0.4892533,0,0,3512.849,14,15,1580908730.201193,12455.304292,0,17.18564,97.00362
1580908742.190178,43,0,1580907286.99823,41.20781296037784,29.0754925099451,275.2123,0.1345286,-1,23.46983528137207,200,-9999,12457.988379625,0.857666015625,0.012542724609375,-0.479034423828125,12457.978309625,-1.383016375452405,1.06417403967748,-0.006655338855775312,-0.009283882565796375,0.5186656713485718,-0.08365842700004578,-0.02883994579315186,0.002261430025100708,-0.005693435668945312,2,0.3213153569164999,0.3926175238839872,-0.5508351305154189,0.6627130498601672,0.8743690848350525,0.00665528979152441,-0.4852158427238464,11.61069488525391,-1.66975212097168,-31.53564453125,2,12453.682184625,4,1,1580908737.923351,1580903939.50652,2930,0.4892533,0,0,3512.849,14,15,1580908730.201193,12455.304292,0,17.18564,97.00362
1580908742.20043,44,0,1580907286.99823,41.20781296037784,29.0754925099451,275.2123,0.1345286,-1,23.46983528137207,200,-9999,12457.998420625,0.844970703125,0.0195770263671875,-0.4787139892578125,12457.988379625,-1.383167953836747,1.069294414380158,-0.007288369269402952,-0.01992043107748032,0.5131726264953613,-0.05943366885185242,-0.02274298667907715,0.004647314548492432,-0.0007352828979492188,2,0.3225442563661974,0.3944617110289382,-0.550184476408937,0.6615605559944013,0.8768383264541626,0.007288304623216391,-0.4807303249835968,11.61069488525391,-1.66975212097168,-31.53564453125,2,12453.682184625,4,1,1580908737.923351,1580903939.50652,2930,0.4892533,0,0,3512.849,14,15,1580908730.201193,12455.304292,0,17.18564,97.00362
1580908742.225371,45,0,1580907286.99823,41.20781296037784,29.0754925099451,275.2123,0.1345286,-1,23.46983528137207,200,-9999,12458.008460625,0.8052978515625,0.0119171142578125,-0.484405517578125,12457.998420625,-1.383470377963656,1.074451531630296,-0.00795053640139053,-0.003890597261488438,0.5156376361846924,-0.07197529077529907,-0.0349045991897583,0.01124584674835205,-0.004214942455291748,2,0.3238023316168355,0.3962982113417076,-0.5495806074831027,0.6603491220871434,0.8793013095855713,0.007950453087687492,-0.4761995673179626,11.90610504150391,-1.575845718383789,-31.1314697265625,2,12453.682184625,4,1,1580908737.923351,1580903939.50652,2930,0.4892533,0,0,3512.849,14,15,1580908730.201193,12455.304292,0,17.18564,97.00362
1580908742.226691,46,0,1580907286.99823,41.20781296037784,29.0754925099451,275.2123,0.1345286,-1,23.46983528137207,200,-9999,12458.018500625,0.762420654296875,-0.002197265625,-0.4891815185546875,12458.008460625,-1.383974005064916,1.080125930937901,-0.008825610866529148,0.003593756817281246,0.5669007301330566,-0.1009124591946602,-0.07516330480575562,0.004477649927139282,-0.01457476615905762,2,0.3251709826018997,0.3983269348604686,-0.5489979180659981,0.6589392081871218,0.8819828629493713,0.008825495839118958,-0.4711989760398865,11.90610504150391,-1.575845718383789,-31.1314697265625,2,12453.682184625,4,1,1580908737.923351,1580903939.50652,2930,0.4892533,0,0,3512.849,14,15,1580908730.201193,12455.304292,0,17.18564,97.00362
1580908742.230117,47,0,1580907286.99823,41.20781296037784,29.0754925099451,275.2123,0.1345286,-1,23.46983528137207,200,-9999,12458.028541625,0.7484893798828125,-0.0009918212890625,-0.484283447265625,12458.018500625,-1.384595592643633,1.086814361312483,-0.009967939539252433,0.002130882814526558,0.6703463792800903,-0.1306056380271912,-0.1228834986686707,-0.01107320189476013,-0.0259588360786438,2,0.3267523587830139,0.4007376812959018,-0.5483376323629297,0.6572428885429107,0.8851051926612854,0.009967774152755737,-0.4652844071388245,12.43463897705078,-1.822694778442383,-31.0889892578125,2,12453.682184625,4,1,1580908737.923351,1580903939.50652,2930,0.4892533,0,0,3512.849,14,15,1580908730.201193,12455.304292,0,17.18564,97.00362
1580908742.240195,48,0,1580907286.99823,41.20781296037784,29.0754925099451,275.2123,0.1345286,-1,23.46983528137207,200,-9999,12458.038581625,0.758514404296875,0.0109710693359375,-0.4741363525390625,12458.028541625,-1.385276960840159,1.094638342237826,-0.01134229109633161,-0.002566739916801453,0.7833055257797241,-0.1523681432008743,-0.1432970762252808,-0.0131697952747345,-0.02905499935150146,2,0.3285795392064167,0.4035669014035347,-0.5475517329228214,0.6552530105233023,0.8887054324150085,0.01134204771369696,-0.4583384990692139,12.43463897705078,-1.822694778442383,-31.0889892578125,2,12453.682184625,4,1,1580908737.923351,1580903939.50652,2930,0.4892533,0,0,3512.849,14,15,1580908730.201193,12455.304292,0,17.18564,97.00362
1580908742.250244,49,0,1580907286.99823,41.20781296037784,29.0754925099451,275.2123,0.1345286,-1,23.46983528137207,200,-9999,12458.048621625,0.7926483154296875,0.0147857666015625,-0.4639739990234375,12458.038581625,-1.386040904660084,1.103565880431722,-0.01296600068757128,-0.007654975168406963,0.8915084600448608,-0.1803033649921417,-0.1398895382881165,-0.003080695867538452,-0.02694463729858398,2,0.3306421458147529,0.4068009842631984,-0.5466538443484447,0.6529612330742345,0.8927441239356995,0.01296563725918531,-0.4503774642944336,12.66510772705078,-1.826208114624023,-31.00714111328125,2,12453.682184625,4,1,1580908737.923351,1580903939.50652,2930,0.4892533,0,0,3512.849,14,15,1580908730.201193,12455.304292,0,17.18564,97.00362
1580908742.26031,50,0,1580907286.99823,41.20781296037784,29.0754925099451,275.2123,0.1345286,-1,23.46983528137207,200,-9999,12458.058661625,0.8257293701171875,0.00665283203125,-0.4403839111328125,12458.048621625,-1.386875015851373,1.113337643894135,-0.01474125180020312,-0.003367479424923658,0.976172924041748,-0.1957425624132156,-0.1115273833274841,0.0006307661533355713,-0.02566266059875488,2,0.3328984309142378,0.4103265428203283,-0.5456606093841339,0.6504346441321647,0.8970803022384644,0.01474071759730577,-0.4416215121746063,12.66510772705078,-1.826208114624023,-31.00714111328125,2,12453.682184625,4,1,1580908737.923351,1580903939.50652,2930,0.4892533,0,0,3512.849,14,15,1580908730.201193,12455.304292,0,17.18564,97.00362
1580908742.283477,51,0,1580907286.99823,41.20781296037784,29.0754925099451,275.2123,0.1345286,-1,23.46983528137207,200,-9999,12458.068702625,0.8535614013671875,0.014556884765625,-0.42303466796875,12458.058661625,-1.387701246009632,1.123627296931983,-0.016732695324027,-0.01291464548557997,1.027720808982849,-0.2139434069395065,-0.0822598934173584,-0.009806007146835327,-0.01293092966079712,2,0.3352216885138479,0.4140644250763689,-0.5446120308452088,0.6477460069566132,0.9015486836433411,0.01673191413283348,-0.4323541522026062,12.99846649169922,-1.607904434204102,-30.45501708984375,2,12453.682184625,4,1,1580908737.923351,1580903939.50652,2930,0.4892533,0,0,3512.849,14,15,1580908730.201193,12455.304292,0,17.18564,97.00362
1580908742.284793,52,0,1580907286.99823,41.20781296037784,29.0754925099451,275.2123,0.1345286,-1,23.46983528137207,200,-9999,12458.078773625,0.8750762939453125,0.0206146240234375,-0.4172821044921875,12458.068702625,-1.388562819863433,1.134185955895124,-0.01897389195302496,-0.01877279579639435,1.052839636802673,-0.2394331842660904,-0.05846536159515381,-0.00550919771194458,-0.003148198127746582,2,0.3375422326229229,0.4179332193924457,-0.5435699398508491,0.6449253963831234,0.9060271382331848,0.01897275261580944,-0.4227941334247589,12.99846649169922,-1.607904434204102,-30.45501708984375,2,12453.682184625,4,1,1580908737.923351,1580903939.50652,2930,0.4892533,0,0,3512.849,14,15,1580908730.201193,12455.304292,0,17.18564,97.00362
1580908742.290584,53,0,1580907286.99823,41.20781296037784,29.0754925099451,275.2123,0.1345286,-1,23.46983528137207,200,-9999,12458.088813625,0.892974853515625,0.0252532958984375,-0.4038543701171875,12458.078773625,-1.389437373844132,1.14497899615476,-0.02134647998393569,-0.01950623095035553,1.074804306030273,-0.250392884016037,-0.04067099094390869,-0.001054257154464722,-0.007422924041748047,2,0.3398847141935685,0.4218919014302291,-0.5425087175667754,0.6420047617827052,0.9104940891265869,0.0213448591530323,-0.4129711985588074,13.50286102294922,-1.423883438110352,-30.43072509765625,2,12453.682184625,4,1,1580908737.923351,1580903939.50652,2930,0.4892533,0,0,3512.849,14,15,1580908730.201193,12455.304292,0,17.18564,97.00362
1580908742.300279,54,0,1580907286.99823,41.20781296037784,29.0754925099451,275.2123,0.1345286,-1,23.46983528137207,200,-9999,12458.098853625,0.9109039306640625,0.039520263671875,-0.3912506103515625,12458.088813625,-1.390279781018869,1.155770323103226,-0.02373178818387515,-0.02145956456661224,1.08205258846283,-0.2505895793437958,-0.02746337652206421,0.0005499124526977539,-0.004467785358428955,2,0.3422142639872595,0.425839513396936,-0.5414293975301507,0.6390652695744788,0.9148482084274292,0.02372956089675426,-0.4031002223491669,13.50286102294922,-1.423883438110352,-30.43072509765625,2,12453.682184625,4,1,1580908737.923351,1580903939.50652,2930,0.4892533,0,0,3512.849,14,15,1580908730.201193,12455.304292,0,17.18564,97.00362
1580908742.31027,55,0,1580907286.99823,41.20781296037784,29.0754925099451,275.2123,0.1345286,-1,23.46983528137207,200,-9999,12458.108893625,0.9129486083984375,0.0373382568359375,-0.377044677734375,12458.098853625,-1.391177838629239,1.166444441356151,-0.02605809284899211,-0.009361623786389828,1.071119785308838,-0.2498526871204376,-0.01309114694595337,0.01231476664543152,-0.001436829566955566,2,0.3445413726131493,0.4297051573982714,-0.5403651163342469,0.6361212986887957,0.9190455079078674,0.02605514414608479,-0.3932894468307495,14.04201507568359,-1.481672286987305,-30.05218505859375,2,12458.100501625,2,0,1580908742.341668,1580903939.50652,2930,0.4892533,0,0,3512.849,14,15,1580908730.201193,12455.304292,0,17.18564,97.00362
1580908742.320508,56,0,1580907286.99823,41.20781296037784,29.0754925099451,275.2123,0.1345286,-1,23.46983528137207,200,-9999,12458.118934625,0.89019775390625,0.02935791015625,-0.3698272705078125,12458.108893625,-1.391987060712309,1.176954545507106,-0.02828671449008984,-0.01206870656460524,1.055469870567322,-0.235360249876976,-0.01261627674102783,0.01004812121391296,0.002723455429077148,2,0.3468348513732432,0.4334892173362146,-0.5392700544322842,0.633230143237921,0.9230721592903137,0.02828294225037098,-0.3835853636264801,14.04201507568359,-1.481672286987305,-30.05218505859375,2,12458.100501625,2,0,1580908742.341668,1580903939.50652,2930,0.4892533,0,0,3512.849,14,15,1580908730.201193,12455.304292,0,17.18564,97.00362
1580908742.347418,57,0,1580907286.99823,41.20781296037784,29.0754925099451,275.2123,0.1345286,-1,23.46983528137207,200,-9999,12458.128974625,0.8548736572265625,0.0182342529296875,-0.3744964599609375,12458.118934625,-1.392620142602559,1.187535592832071,-0.03052552968897974,-0.02617627009749413,1.058090209960938,-0.2307993173599243,-0.03735947608947754,-0.0006667375564575195,0.001846015453338623,2,0.3491035700247683,0.4373105141853564,-0.5380989816696946,0.6303457386978093,0.9270181655883789,0.03052078932523727,-0.3737724125385284,14.85965728759766,-1.500001907348633,-29.90826416015625,2,12458.100501625,2,0,1580908742.341668,1580903939.50652,2930,0.4892533,0,0,3512.849,14,15,1580908730.201193,12455.304292,0,17.18564,97.00362
1580908742.348718,58,0,1580907286.99823,41.20781296037784,29.0754925099451,275.2123,0.1345286,-1,23.46983528137207,200,-9999,12458.139014625,0.827392578125,0.0156097412109375,-0.3681793212890625,12458.128974625,-1.393057148337121,1.198743091828349,-0.03281771328138544,-0.04427404701709747,1.121867418289185,-0.2288836240768433,-0.07590746879577637,-0.01323547959327698,-0.01325559616088867,2,0.3514773591943166,0.4413581786105776,-0.5367577142395636,0.6273419608425473,0.9310813546180725,0.03281182423233986,-0.3633332550525665,14.85965728759766,-1.500001907348633,-29.90826416015625,2,12458.100501625,2,0,1580908742.341668,1580903939.50652,2930,0.4892533,0,0,3512.849,14,15,1580908730.201193,12455.304292,0,17.18564,97.00362
1580908742.35072,59,0,1580907286.99823,41.20781296037784,29.0754925099451,275.2123,0.1345286,-1,23.46983528137207,200,-9999,12458.149055625,0.861114501953125,0.0425567626953125,-0.357574462890625,12458.139014625,-1.393346227821235,1.210796773196867,-0.03517352969583076,-0.05912330001592636,1.207121849060059,-0.2288798987865448,-0.1105707287788391,-0.02107667922973633,-0.01958537101745605,2,0.3540201848709393,0.4456924211636761,-0.5352234554713282,0.6241505666265494,0.9353181719779968,0.03516627848148346,-0.3520559370517731,15.38941955566406,-1.414915084838867,-29.64715576171875,2,12458.100501625,2,0,1580908742.341668,1580903939.50652,2930,0.4892533,0,0,3512.849,14,15,1580908730.201193,12455.304292,0,17.18564,97.00362
1580908742.36065,60,0,1580907286.99823,41.20781296037784,29.0754925099451,275.2123,0.1345286,-1,23.46983528137207,200,-9999,12458.159095625,0.92755126953125,0.0595855712890625,-0.3325653076171875,12458.149055625,-1.393737125999752,1.22353567173039,-0.03761290486647308,-0.04931784421205521,1.277570962905884,-0.2448671460151672,-0.08837717771530151,0.002111226320266724,-0.02110546827316284,2,0.3567362130928139,0.450219938271038,-0.5336045368018766,0.6207314398989067,0.9396434426307678,0.03760403767228127,-0.3400825560092926,15.85641479492188,-1.171899795532227,-29.05438232421875,2,12458.100501625,2,0,1580908742.341668,1580903939.50652,2930,0.4892533,0,0,3512.849,14,15,1580908730.201193,12455.304292,0,17.18564,97.00362
1580908742.370691,61,0,1580907286.99823,41.20781296037784,29.0754925099451,275.2123,0.1345286,-1,23.46983528137207,200,-9999,12458.169166625,0.9698333740234375,0.052734375,-0.30584716796875,12458.159095625,-1.39426888753803,1.236496583365774,-0.03997486111457905,-0.0286375992000103,1.299220561981201,-0.2406433820724487,-0.02561861276626587,0.01858678460121155,-0.01040846109390259,2,0.3595612294680313,0.454744869342986,-0.5319584974395821,0.6172058373587292,0.9438856840133667,0.0399642139673233,-0.3278456628322601,15.85641479492188,-1.171899795532227,-29.05438232421875,2,12458.100501625,2,0,1580908742.341668,1580903939.50652,2930,0.4892533,0,0,3512.849,14,15,1580908730.201193,12455.304292,0,17.18564,97.00362
1580908742.380895,62,0,1580907286.99823,41.20781296037784,29.0754925099451,275.2123,0.1345286,-1,23.46983528137207,200,-9999,12458.179206625,1.005752563476562,0.0400390625,-0.2845001220703125,12458.169166625,-1.394761462075387,1.249269420315199,-0.04222097805200756,-0.02500143274664879,1.274666309356689,-0.2261987775564194,0.01502108573913574,0.01206168532371521,0.00511401891708374,2,0.3623572778535888,0.4591624998483096,-0.5302939488451974,0.6137226742165598,0.9479086399078369,0.04220843687653542,-0.3157339990139008,16.61491394042969,-0.6854381561279297,-28.86956787109375,2,12458.100501625,2,0,1580908742.341668,1580903939.50652,2930,0.4892533,0,0,3512.849,14,15,1580908730.201193,12455.304292,0,17.18564,97.00362
1580908742.40815,63,0,1580907286.99823,41.20781296037784,29.0754925099451,275.2123,0.1345286,-1,23.46983528137207,200,-9999,12458.189246625,1.040206909179688,0.0506439208984375,-0.2733612060546875,12458.179206625,-1.395091148789925,1.261229389793237,-0.0443522297625066,-0.03638910874724388,1.194382071495056,-0.2128419578075409,0.0465126633644104,-0.004037290811538696,0.01535135507583618,2,0.3649300228672885,0.4633063416196533,-0.5286877803252827,0.6104610262786065,0.9515290260314941,0.0443376898765564,-0.3043466210365295,16.61491394042969,-0.6854381561279297,-28.86956787109375,2,12458.100501625,2,0,1580908742.341668,1580903939.50652,2930,0.4892533,0,0,3512.849,14,15,1580908730.201193,12455.304292,0,17.18564,97.00362
1580908742.409547,64,0,1580907286.99823,41.20781296037784,29.0754925099451,275.2123,0.1345286,-1,23.46983528137207,200,-9999,12458.199286625,1.031951904296875,0.075897216796875,-0.2636871337890625,12458.189246625,-1.395361227160327,1.272104444871587,-0.04632601844676573,-0.03460216894745827,1.083600401878357,-0.1945099979639053,0.08030492067337036,0.002070695161819458,0.01703596115112305,2,0.3672455979933701,0.4670689264236674,-0.5272153264529871,0.6074713288583989,0.9546969532966614,0.0463094487786293,-0.2939545810222626,17.16869354248047,-0.5149745941162109,-28.62420654296875,2,12458.100501625,2,0,1580908742.341668,1580903939.50652,2930,0.4892533,0,0,3512.849,14,15,1580908730.201193,12455.304292,0,17.18564,97.00362
1580908742.410872,65,0,1580907286.99823,41.20781296037784,29.0754925099451,275.2123,0.1345286,-1,23.46983528137207,200,-9999,12458.209327625,1.015884399414062,0.079071044921875,-0.2635345458984375,12458.199286625,-1.395803391018778,1.281963910280956,-0.04826277498351997,-0.01500450074672699,0.9822314381599426,-0.1985380351543427,0.07255613803863525,0.02551952004432678,0.01726734638214111,2,0.3693407511521973,0.4704642723252061,-0.5259640434558349,0.6046591660485154,0.9574609994888306,0.04824404045939445,-0.2845015525817871,17.16869354248047,-0.5149745941162109,-28.62420654296875,2,12458.100501625,2,0,1580908742.341668,1580903939.50652,2930,0.4892533,0,0,3512.849,14,15,1580908730.201193,12455.304292,0,17.18564,97.00362
1580908742.420917,66,0,1580907286.99823,41.20781296037784,29.0754925099451,275.2123,0.1345286,-1,23.46983528137207,200,-9999,12458.219367625,0.99462890625,0.0562896728515625,-0.267913818359375,12458.209327625,-1.396467456435597,1.291103261290996,-0.05020067956622477,0.009813863784074783,0.9125562906265259,-0.2056010067462921,0.05367523431777954,0.02990913391113281,0.009864985942840576,2,0.3712955679292007,0.4735854152222751,-0.5249049746816155,0.601939697576631,0.9599295258522034,0.05017959699034691,-0.2757129073143005,17.62881469726562,-0.5275096893310547,-28.227783203125,2,12458.100501625,2,0,1580908742.341668,1580903939.50652,2930,0.4892533,0,0,3512.849,14,15,1580908730.201193,12455.304292,0,17.18564,97.00362
1580908742.431318,67,0,1580907286.99823,41.20781296037784,29.0754925099451,275.2123,0.1345286,-1,23.46983528137207,200,-9999,12458.229407625,0.9568328857421875,0.0317230224609375,-0.2626495361328125,12458.219367625,-1.397134464850025,1.299860205154272,-0.05208988051601852,0.01635645143687725,0.8741298317909241,-0.1991127580404282,0.03195762634277344,0.006653040647506714,-0.003339529037475586,2,0.3731640511477539,0.4765640913777269,-0.5238994502792469,0.59930344616418,0.9622138738632202,0.05206632614135742,-0.2672705054283142,17.62881469726562,-0.5275096893310547,-28.227783203125,2,12458.100501625,2,0,1580908742.341668,1580903939.50652,2930,0.4892533,0,0,3512.849,14,15,1580908730.201193,12455.304292,0,17.18564,97.00362
1580908742.441312,68,0,1580907286.99823,41.20781296037784,29.0754925099451,275.2123,0.1345286,-1,23.46983528137207,200,-9999,12458.239448625,0.9400177001953125,0.034393310546875,-0.256134033203125,12458.229407625,-1.397467678284892,1.308557213945711,-0.05395895834564474,-0.01947370544075966,0.8667773604393005,-0.1892065852880478,-0.007840573787689209,-0.02065682411193848,-0.007044613361358643,2,0.3749412325191263,0.4795683892873985,-0.5227939697596722,0.5967577146110399,0.9644063115119934,0.05393277853727341,-0.2588664591312408,18.13961029052734,-0.4410037994384766,-28.15045166015625,2,12458.100501625,2,0,1580908742.341668,1580903939.50652,2930,0.4892533,0,0,3512.849,14,15,1580908730.201193,12455.304292,0,17.18564,97.00362
1580908742.472126,69,0,1580907286.99823,41.20781296037784,29.0754925099451,275.2123,0.1345286,-1,23.46983528137207,200,-9999,12458.249488625,0.92706298828125,0.0755615234375,-0.24237060546875,12458.239448625,-1.397553884576374,1.317280241851547,-0.05568824746771016,-0.03743486106395721,0.8688620924949646,-0.1700091809034348,-0.02941775321960449,-0.02376323938369751,-0.009616971015930176,2,0.376705947193081,0.4825789258228658,-0.5215722888878083,0.5942833189232311,0.9665359854698181,0.055659469217062,-0.2504204213619232,18.13961029052734,-0.4410037994384766,-28.15045166015625,2,12458.100501625,2,0,1580908742.341668,1580903939.50652,2930,0.4892533,0,0,3512.849,14,15,1580908730.201193,12455.304292,0,17.18564,97.00362
1580908742.473546,70,0,1580907286.99823,41.20781296037784,29.0754925099451,275.2123,0.1345286,-1,23.46983528137207,200,-9999,12458.259559625,0.908843994140625,0.104156494140625,-0.2448577880859375,12458.249488625,-1.397675053941631,1.326086877451351,-0.05712322268764698,-0.02393625676631927,0.8761441707611084,-0.1419873088598251,-0.04308122396469116,0.01352545619010925,-0.004304885864257812,2,0.3785876288919421,0.4855221728604142,-0.5202720420323376,0.5918247570796276,0.9686251878738403,0.05709215998649597,-0.2418792545795441,18.50627899169922,-0.2758045196533203,-28.04925537109375,2,12458.100501625,2,0,1580908742.341668,1580903939.50652,2930,0.4892533,0,0,3512.849,14,15,1580908730.201193,12455.304292,0,17.18564,97.00362
1580908742.47491,71,0,1580907286.99823,41.20781296037784,29.0754925099451,275.2123,0.1345286,-1,23.46983528137207,200,-9999,12458.269599625,0.90289306640625,0.089599609375,-0.2392425537109375,12458.259559625,-1.398020861931409,1.335304694455483,-0.05815330816252132,0.008242985233664513,0.9170732498168945,-0.1047619059681892,-0.06436961889266968,0.04497924447059631,-0.01385527849197388,2,0.3807504628618654,0.4884319232939586,-0.5188601060257403,0.5892772121001039,0.9707560539245605,0.05812053754925728,-0.232926681637764,18.50627899169922,-0.2758045196533203,-28.04925537109375,2,12458.100501625,2,0,1580908742.341668,1580903939.50652,2930,0.4892533,0,0,3512.849,14,15,1580908730.201193,12455.304292,0,17.18564,97.00362
1580908742.481211,72,0,1580907286.99823,41.20781296037784,29.0754925099451,275.2123,0.1345286,-1,23.46983528137207,200,-9999,12458.279639625,0.894775390625,0.0496368408203125,-0.2263031005859375,12458.269599625,-1.398548776658674,1.345009929787853,-0.05900311417214097,0.03537094220519066,0.9698963761329651,-0.09165522456169128,-0.07348692417144775,0.03459092974662781,-0.02032828330993652,2,0.3831342300257027,0.4913924251740761,-0.5173574738523614,0.5865858065060533,0.9729223847389221,0.05896888673305511,-0.2234832942485809,18.96105194091797,-0.2647838592529297,-27.521240234375,2,12458.100501625,2,0,1580908742.341668,1580903939.50652,2930,0.4892533,0,0,3512.849,14,15,1580908730.201193,12455.304292,0,17.18564,97.00362
1580908742.491348,73,0,1580907286.99823,41.20781296037784,29.0754925099451,275.2123,0.1345286,-1,23.46983528137207,200,-9999,12458.289680625,0.91180419921875,0.0448150634765625,-0.2308197021484375,12458.279639625,-1.399014375798277,1.355349524154324,-0.05996189702986209,0.02499207109212875,1.031287670135498,-0.1019307672977448,-0.0821678638458252,-0.008117735385894775,-0.01622825860977173,2,0.3856274307145108,0.4945620529161239,-0.5157285272080044,0.5837156675577995,0.9751253724098206,0.05992597341537476,-0.2133997231721878,18.96105194091797,-0.2647838592529297,-27.521240234375,2,12458.100501625,2,0,1580908742.341668,1580903939.50652,2930,0.4892533,0,0,3512.849,14,15,1580908730.201193,12455.304292,0,17.18564,97.00362
1580908742.501279,74,0,1580907286.99823,41.20781296037784,29.0754925099451,275.2123,0.1345286,-1,23.46983528137207,200,-9999,12458.299720625,1.223068237304688,0.0549468994140625,-0.217315673828125,12458.289680625,-1.399527260611211,1.365905631699026,-0.06113029749370742,0.006721633486449718,1.085474729537964,-0.134162113070488,-0.08305370807647705,-0.01752814650535583,-0.02756321430206299,2,0.3881180128687945,0.4978196055339866,-0.5141080555058923,0.5807175811708958,0.9772543907165527,0.06109223142266273,-0.2030801028013229,19.42424011230469,-0.2588901519775391,-27.3909912109375,2,12458.100501625,2,0,1580908742.341668,1580903939.50652,2930,0.4892533,0,0,3512.849,14,15,1580908730.201193,12455.304292,0,17.18564,97.00362
1580908742.527114,75,0,1580907286.99823,41.20781296037784,29.0754925099451,275.2123,0.1345286,-1,23.46983528137207,200,-9999,12458.309760625,1.086288452148438,0.105255126953125,-0.121673583984375,12458.299720625,-1.400256851555039,1.374428165233617,-0.06137562718521936,0.07868371158838272,0.8695374727249146,0.002053252421319485,0.2200232744216919,-0.01064801216125488,-0.03652828931808472,2,0.3904136529229949,0.5002065210469994,-0.5127181855810261,0.5783517754617842,0.9789350032806396,0.06133710220456123,-0.1947412341833115,19.42424011230469,-0.2588901519775391,-27.3909912109375,2,12458.100501625,2,0,1580908742.341668,1580903939.50652,2930,0.4892533,0,0,3512.849,14,15,1580908730.201193,12455.304292,0,17.18564,97.00362
1580908742.52844,76,0,1580907286.99823,41.20781296037784,29.0754925099451,275.2123,0.1345286,-1,23.46983528137207,200,-9999,12458.319800625,1.075119018554688,0.0565948486328125,-0.165740966796875,12458.309760625,-1.400753010485455,1.380728837915892,-0.06164499435237698,0.03824034705758095,0.6248071193695068,-0.04018925502896309,0.126328706741333,0.04335761070251465,0.06321543455123901,2,0.3920704230074193,0.5019936453742779,-0.5116922657533194,0.5765884726325885,0.9801263213157654,0.06160596013069153,-0.1885663270950317,19.99272155761719,-0.2780513763427734,-27.26806640625,2,12458.100501625,2,0,1580908742.341668,1580903939.50652,2930,0.4892533,0,0,3512.849,14,15,1580908730.201193,12455.304292,0,17.18564,97.00362
1580908742.531754,77,0,1580907286.99823,41.20781296037784,29.0754925099451,275.2123,0.1345286,-1,23.46983528137207,200,-9999,12458.329841625,1.111557006835938,0.064605712890625,-0.1164093017578125,12458.319800625,-1.401404315129602,1.385502596961843,-0.0617536005937596,0.06905844807624817,0.4917652010917664,-0.02795016393065453,0.0766911506652832,-0.001367926597595215,0.01539427042007446,2,0.393421948450338,0.5032664652121041,-0.5109679954210619,0.575198914451937,0.9810087084770203,0.06171435862779617,-0.1838840693235397,19.99272155761719,-0.2780513763427734,-27.26806640625,2,12458.100501625,2,0,1580908742.341668,1580903939.50652,2930,0.4892533,0,0,3512.849,14,15,1580908730.201193,12455.304292,0,17.18564,97.00362
1580908742.54184,78,0,1580907286.99823,41.20781296037784,29.0754925099451,275.2123,0.1345286,-1,23.46983528137207,200,-9999,12458.339881625,1.041793823242188,0.070343017578125,-0.1312408447265625,12458.329841625,-1.401949040577592,1.388183097995081,-0.06192178612284959,0.04434738680720329,0.2642896473407745,-0.02653522044420242,0.1340867877006531,0.0002641677856445312,0.05804044008255005,2,0.3941932494642111,0.5039699581001317,-0.5106365092383475,0.5743486201669,0.9814878106117249,0.06188222393393517,-0.1812519282102585,20.05628204345703,-0.1090679168701172,-27.2701416015625,2,12458.100501625,2,0,1580908742.341668,1580903939.50652,2930,0.4892533,0,0,3512.849,14,15,1580908730.201193,12455.304292,0,17.18564,97.00362
1580908742.551473,79,0,1580907286.99823,41.20781296037784,29.0754925099451,275.2123,0.1345286,-1,23.46983528137207,200,-9999,12458.349952625,1.028915405273438,0.0751190185546875,-0.136810302734375,12458.339881625,-1.402719700238581,1.389239415352131,-0.06227502409815037,0.07089404761791229,0.1139850914478302,-0.04819577187299728,0.05792808532714844,0.008027911186218262,0.0486796498298645,2,0.394551298917184,0.5042060310211581,-0.5107330195073976,0.5738094881101781,0.9816571474075317,0.062234777957201,-0.1802110970020294,20.05628204345703,-0.1090679168701172,-27.2701416015625,2,12458.100501625,2,0,1580908742.341668,1580903939.50652,2930,0.4892533,0,0,3512.849,14,15,1580908730.201193,12455.304292,0,17.18564,97.00362
1580908742.561473,80,0,1580907286.99823,41.20781296037784,29.0754925099451,275.2123,0.1345286,-1,23.46983528137207,200,-9999,12458.359992625,0.95526123046875,0.097442626953125,-0.177825927734375,12458.349952625,-1.403809385163943,1.388818799414506,-0.06275778082227716,0.09070265293121338,-0.03372109308838844,-0.05988594889640808,0.04822254180908203,0.009680569171905518,0.04023844003677368,2,0.3945737872535607,0.5039863724940017,-0.5112427522292192,0.5735329888457424,0.9815515875816345,0.06271659582853317,-0.1806185245513916,20.22458648681641,-0.2843723297119141,-27.2471923828125,2,12458.100501625,2,0,1580908742.341668,1580903939.50652,2930,0.4892533,0,0,3512.849,14,15,1580908730.201193,12455.304292,0,17.18564,97.00362
1580908742.587446,81,0,1580907286.99823,41.20781296037784,29.0754925099451,275.2123,0.1345286,-1,23.46983528137207,200,-9999,12458.370032625,0.771453857421875,0.0379638671875,-0.315673828125,12458.359992625,-1.405479137366222,1.388811597381469,-0.06394654795715257,0.1292601674795151,-0.02780647948384285,-0.1352526098489761,-0.01697885990142822,0.03595554828643799,0.01084351539611816,2,0.3946364203129081,0.5039405775903333,-0.5120035823910482,0.5728510639487921,0.9814763069152832,0.06390297412872314,-0.1806119829416275,20.22458648681641,-0.2843723297119141,-27.2471923828125,2,12458.100501625,2,0,1580908742.341668,1580903939.50652,2930,0.4892533,0,0,3512.849,14,15,1580908730.201193,12455.304292,0,17.18564,97.00362
1580908742.588848,82,0,1580907286.99823,41.20781296037784,29.0754925099451,275.2123,0.1345286,-1,23.46983528137207,200,-9999,12458.380073625,0.9230804443359375,0.051361083984375,-0.244384765625,12458.370032625,-1.407813372139741,1.393196126738467,-0.06571222478697625,0.1978690773248672,0.4661015868186951,-0.248529776930809,-0.2024199962615967,-0.02364382147789001,-0.132993757724762,2,0.3958194368675907,0.5051570075219566,-0.5122215331772304,0.5707648597425914,0.9821462035179138,0.06566493958234787,-0.1762867420911789,20.33501434326172,-0.5214862823486328,-27.63128662109375,2,12458.100501625,2,0,1580908742.341668,1580903939.50652,2930,0.4892533,0,0,3512.849,14,15,1580908730.201193,12455.304292,0,17.18564,97.00362
1580908742.591853,83,0,1580907286.99823,41.20781296037784,29.0754925099451,275.2123,0.1345286,-1,23.46983528137207,200,-9999,12458.390113625,1.131072998046875,0.078399658203125,-0.0817108154296875,12458.380073625,-1.40969642289946,1.398787602601391,-0.066595827004509,0.165796622633934,0.597525417804718,-0.1189275607466698,-0.09339666366577148,-0.01895934343338013,-0.09728944301605225,2,0.3974633869489061,0.5065882634768795,-0.5118580372260655,0.5686761986593569,0.9830590486526489,0.06654661148786545,-0.1707823723554611,20.33501434326172,-0.5214862823486328,-27.63128662109375,2,12458.100501625,2,0,1580908742.341668,1580903939.50652,2930,0.4892533,0,0,3512.849,14,15,1580908730.201193,12455.304292,0,17.18564,97.00362
1580908742.601712,84,0,1580907286.99823,41.20781296037784,29.0754925099451,275.2123,0.1345286,-1,23.46983528137207,200,-9999,12458.400153625,1.045867919921875,0.0596466064453125,-0.137969970703125,12458.390113625,-1.410931837335445,1.401372315629067,-0.06732844645958654,0.1100203022360802,0.2456431686878204,-0.08942015469074249,0.1368638873100281,0.0103209912776947,0.07811450958251953,2,0.3982196602666249,0.5072521949931462,-0.5118683538358128,0.5675449345663934,0.9834489226341248,0.06727758795022964,-0.1682326197624207,20.53211212158203,-0.3463001251220703,-27.51251220703125,2,12458.100501625,2,0,1580908742.341668,1580903939.50652,2930,0.4892533,0,0,3512.849,14,15,1580908730.201193,12455.304292,0,17.18564,97.00362
1580908742.611833,85,0,1580907286.99823,41.20781296037784,29.0754925099451,275.2123,0.1345286,-1,23.46983528137207,200,-9999,12458.410193625,0.9620513916015625,0.0507659912109375,-0.191802978515625,12458.400153625,-1.411982688696559,1.402952951497623,-0.06828637855249989,0.08816320449113846,0.1563210189342499,-0.110933430492878,0.07222443819046021,-0.00627860426902771,0.03487104177474976,2,0.3986057644822271,0.5077203030967896,-0.5120784034498536,0.5666650158872262,0.9836494922637939,0.06823331862688065,-0.1666670739650726,20.53211212158203,-0.3463001251220703,-27.51251220703125,2,12458.100501625,2,0,1580908742.341668,1580903939.50652,2930,0.4892533,0,0,3512.849,14,15,1580908730.201193,12455.304292,0,17.18564,97.00362
1580908742.621595,86,0,1580907286.99823,41.20781296037784,29.0754925099451,275.2123,0.1345286,-1,23.46983528137207,200,-9999,12458.420234625,0.9642181396484375,0.0623016357421875,-0.184173583984375,12458.410193625,-1.413036460872585,1.405197240103295,-0.06960018752587015,0.08000757545232773,0.2302695661783218,-0.1485703885555267,-0.02148836851119995,-0.01980116963386536,-0.02877652645111084,2,0.3990573008152419,0.5084596239260637,-0.5122404763393162,0.5655368171084709,0.9839318990707397,0.06954400986433029,-0.164444163441658,20.6793212890625,-0.3850574493408203,-27.812744140625,2,12458.100501625,2,0,1580908742.341668,1580903939.50652,2930,0.4892533,0,0,3512.849,14,15,1580908730.201193,12455.304292,0,17.18564,97.00362
1580908742.648349,87,0,1580907286.99823,41.20781296037784,29.0754925099451,275.2123,0.1345286,-1,23.46983528137207,200,-9999,12458.430274625,1.030181884765625,0.057861328125,-0.1402587890625,12458.420234625,-1.414087908740738,1.407933883159785,-0.07111343352140721,0.08046324551105499,0.2916303873062134,-0.1669816225767136,-0.02775132656097412,-0.009658634662628174,-0.0284150242805481,2,0.3995761187136272,0.5093840585995102,-0.512349736363799,0.5642380070643828,0.9842731356620789,0.07105351239442825,-0.1617336124181747,20.6793212890625,-0.3850574493408203,-27.812744140625,2,12458.420783625,4,1,1580908742.66195,1580903939.50652,2930,0.4892533,0,0,3512.849,14,15,1580908730.201193,12455.304292,0,17.18564,97.00362
1580908742.649558,88,0,1580907286.99823,41.20781296037784,29.0754925099451,275.2123,0.1345286,-1,23.46983528137207,200,-9999,12458.440345625,1.0352783203125,0.0590972900390625,-0.134368896484375,12458.430274625,-1.414857727633058,1.409884138781791,-0.07265438954035876,0.0502907894551754,0.1968625783920288,-0.1639247238636017,0.03580993413925171,-0.01428362727165222,0.01219689846038818,2,0.3998143615813289,0.5101475009592977,-0.5125423339262648,0.5632037491439954,0.9844775199890137,0.07259048521518707,-0.1597960144281387,20.73641967773438,-0.3779697418212891,-27.9559326171875,2,12458.420783625,4,1,1580908742.66195,1580903939.50652,2930,0.4892533,0,0,3512.849,14,15,1580908730.201193,12455.304292,0,17.18564,97.00362
1580908742.652028,89,0,1580907286.99823,41.20781296037784,29.0754925099451,275.2123,0.1345286,-1,23.46983528137207,200,-9999,12458.450385625,0.98956298828125,0.0608367919921875,-0.1634521484375,12458.440345625,-1.415323182635801,1.411227484454817,-0.07419852465632171,0.01836374774575233,0.1310326904058456,-0.1555120646953583,0.05105787515640259,-0.01611930131912231,0.02353119850158691,2,0.3998191095109228,0.5108003493720618,-0.5127708317486361,0.562400055763407,0.9845794439315796,0.07413046061992645,-0.1584553718566895,20.73641967773438,-0.3779697418212891,-27.9559326171875,2,12458.420783625,4,1,1580908742.66195,1580903939.50652,2930,0.4892533,0,0,3512.849,14,15,1580908730.201193,12455.304292,0,17.18564,97.00362
1580908742.661975,90,0,1580907286.99823,41.20781296037784,29.0754925099451,275.2123,0.1345286,-1,23.46983528137207,200,-9999,12458.460425625,0.99383544921875,0.059234619140625,-0.155792236328125,12458.450385625,-1.415720297900269,1.412563181890647,-0.07596921592741149,0.009881983511149883,0.1499006748199463,-0.1815700531005859,0.00388944149017334,-0.01497715711593628,-0.00815969705581665,2,0.3997376018963582,0.5115176055631383,-0.5130350777543125,0.5615643659025963,0.98465895652771,0.07589616626501083,-0.1571191847324371,20.85277557373047,-0.3518009185791016,-27.7393798828125,2,12458.420783625,4,1,1580908742.66195,1580903939.50652,2930,0.4892533,0,0,3512.849,14,15,1580908730.201193,12455.304292,0,17.18564,97.00362
1580908742.671983,91,0,1580907286.99823,41.20781296037784,29.0754925099451,275.2123,0.1345286,-1,23.46983528137207,200,-9999,12458.470466625,1.01312255859375,0.065582275390625,-0.139556884765625,12458.460425625,-1.416052989964535,1.413776449237498,-0.07808275468889342,-0.00217494647949934,0.1340026557445526,-0.2132584750652313,0.003524303436279297,-0.01959478855133057,-0.004806995391845703,2,0.3995067423299955,0.5122937390313204,-0.5133867133971168,0.5606991267174091,0.9846882224082947,0.07800343632698059,-0.1558989733457565,20.85277557373047,-0.3518009185791016,-27.7393798828125,2,12458.420783625,4,1,1580908742.66195,1580903939.50652,2930,0.4892533,0,0,3512.849,14,15,1580908730.201193,12455.304292,0,17.18564,97.00362
1580908742.682134,92,0,1580907286.99823,41.20781296037784,29.0754925099451,275.2123,0.1345286,-1,23.46983528137207,200,-9999,12458.480506625,1.016006469726562,0.0825958251953125,-0.1265106201171875,12458.470466625,-1.416433534374009,1.414505050535061,-0.08066207237523516,0.0002855006605386734,0.07508166879415512,-0.2675440907478333,0.02262586355209351,-0.01576694846153259,0.01067650318145752,2,0.3990255596460462,0.5130338781145888,-0.5139584575081018,0.5598407911604332,0.9845997095108032,0.080574631690979,-0.1551496833562851,20.905517578125,-0.3151340484619141,-27.48248291015625,2,12458.420783625,4,1,1580908742.66195,1580903939.50652,2930,0.4892533,0,0,3512.849,14,15,1580908730.201193,12455.304292,0,17.18564,97.00362
1580908742.711092,93,0,1580907286.99823,41.20781296037784,29.0754925099451,275.2123,0.1345286,-1,23.46983528137207,200,-9999,12458.490546625,0.9740753173828125,0.09783935546875,-0.1455841064453125,12458.480506625,-1.41675041850612,1.414395556270853,-0.08314718812908363,-0.006156686693429947,-0.01333021465688944,-0.2544637024402618,0.02989405393600464,-0.003528207540512085,0.02578282356262207,2,0.3983404653009009,0.5135289297355731,-0.5146564073557867,0.5592332833255877,0.9843819141387939,0.0830514132976532,-0.1552258282899857,20.905517578125,-0.3151340484619141,-27.48248291015625,2,12458.420783625,4,1,1580908742.66195,1580903939.50652,2930,0.4892533,0,0,3512.849,14,15,1580908730.201193,12455.304292,0,17.18564,97.00362
1580908742.712544,94,0,1580907286.99823,41.20781296037784,29.0754925099451,275.2123,0.1345286,-1,23.46983528137207,200,-9999,12458.500586625,0.924896240234375,0.08331298828125,-0.1829071044921875,12458.490546625,-1.416853251099987,1.414029972838084,-0.085296284624296,-0.02658590115606785,-0.04308830201625824,-0.2117912322282791,-0.008505105972290039,0.0130448043346405,0.01006335020065308,2,0.3976338144716624,0.5139149933074925,-0.5152651629329659,0.5588207986020316,0.9841464757919312,0.08519289642572403,-0.1555574536323547,21.03638458251953,0.1186485290527344,-27.51605224609375,2,12458.420783625,4,1,1580908742.66195,1580903939.50652,2930,0.4892533,0,0,3512.849,14,15,1580908730.201193,12455.304292,0,17.18564,97.00362
1580908742.71365,95,0,1580907286.99823,41.20781296037784,29.0754925099451,275.2123,0.1345286,-1,23.46983528137207,200,-9999,12458.510627625,0.9470977783203125,0.0836181640625,-0.1782073974609375,12458.500586625,-1.416940596301896,1.414432664496905,-0.08752645277375976,-0.02458906173706055,0.05044244229793549,-0.2232798337936401,-0.06005859375,-0.003864318132400513,-0.02799272537231445,2,0.397096581223328,0.5145373904937592,-0.5157352954273514,0.5581959988067442,0.984018862247467,0.08741474151611328,-0.1551311612129211,21.03638458251953,0.1186485290527344,-27.51605224609375,2,12458.420783625,4,1,1580908742.66195,1580903939.50652,2930,0.4892533,0,0,3512.849,14,15,1580908730.201193,12455.304292,0,17.18564,97.00362
1580908742.722191,96,0,1580907286.99823,41.20781296037784,29.0754925099451,275.2123,0.1345286,-1,23.46983528137207,200,-9999,12458.520667625,0.9885406494140625,0.0824432373046875,-0.1542205810546875,12458.510627625,-1.41695532394029,1.415341066895525,-0.08990010287463243,-0.03630560636520386,0.09227488189935684,-0.2338803708553314,-0.04573947191238403,-0.006237506866455078,-0.02982300519943237,2,0.3966281516929867,0.5153482120440742,-0.5161182570152028,0.5574266275478275,0.9839516878128052,0.08977905660867691,-0.1542046666145325,21.07295989990234,0.03571319580078125,-27.54290771484375,2,12458.420783625,4,1,1580908742.66195,1580903939.50652,2930,0.4892533,0,0,3512.849,14,15,1580908730.201193,12455.304292,0,17.18564,97.00362
1580908742.732328,97,0,1580907286.99823,41.20781296037784,29.0754925099451,275.2123,0.1345286,-1,23.46983528137207,200,-9999,12458.530738625,0.9938812255859375,0.101959228515625,-0.1421051025390625,12458.520667625,-1.416917527467243,1.416144561213776,-0.09244169134153281,-0.04562134295701981,0.07955162972211838,-0.2556224167346954,-0.0009563565254211426,-0.01117363572120667,-0.00578075647354126,2,0.3960689924684905,0.5161784373191803,-0.5165466504628692,0.5566585696389575,0.9838465452194214,0.09231008589267731,-0.15337835252285,21.07295989990234,0.03571319580078125,-27.54290771484375,2,12458.420783625,4,1,1580908742.66195,1580903939.50652,2930,0.4892533,0,0,3512.849,14,15,1580908730.201193,12455.304292,0,17.18564,97.00362
1580908742.742392,98,0,1580907286.99823,41.20781296037784,29.0754925099451,275.2123,0.1345286,-1,23.46983528137207,200,-9999,12458.540778625,0.97772216796875,0.106414794921875,-0.14251708984375,12458.530738625,-1.416968836553882,1.416550582246914,-0.09499046790919272,-0.03508260846138,0.04226593673229218,-0.2545707523822784,0.00704580545425415,0.005642682313919067,0.007056832313537598,2,0.395427693338151,0.5168808651170032,-0.5170798276274845,0.5559672035673888,0.9836729764938354,0.09484767913818359,-0.1529422253370285,21.12400054931641,0.3155498504638672,-27.442138671875,2,12458.420783625,4,1,1580908742.66195,1580903939.50652,2930,0.4892533,0,0,3512.849,14,15,1580908730.201193,12455.304292,0,17.18564,97.00362
1580908742.76811,99,0,1580907286.99823,41.20781296037784,29.0754925099451,275.2123,0.1345286,-1,23.46983528137207,200,-9999,12458.550818625,0.9788360595703125,0.1064605712890625,-0.1499786376953125,12458.540778625,-1.417114530380352,1.416645103370325,-0.09746566997680203,-0.02399746887385845,0.009722640737891197,-0.2447873651981354,-0.007747471332550049,0.008067786693572998,0.007643938064575195,2,0.3947517436884997,0.5174598506097524,-0.5176828517280192,0.5553474549971431,0.9834524393081665,0.09731142967939377,-0.152812734246254,21.12400054931641,0.3155498504638672,-27.442138671875,2,12458.420783625,4,1,1580908742.66195,1580903939.50652,2930,0.4892533,0,0,3512.849,14,15,1580908730.201193,12455.304292,0,17.18564,97.00362
1580908742.769382,100,0,1580907286.99823,41.20781296037784,29.0754925099451,275.2123,0.1345286,-1,23.46983528137207,200,-9999,12458.560859625,1.003890991210938,0.0970916748046875,-0.146514892578125,12458.550818625,-1.417305281961294,1.416641803041987,-0.1000101858832047,-0.02010932564735413,0.002127006649971008,-0.2530249059200287,-0.00952756404876709,0.007021546363830566,4.041194915771484e-05,2,0.3940409003397186,0.5180183646651179,-0.5183331077174973,0.5547248846610177,0.9832042455673218,0.09984355419874191,-0.1527774780988693,20.93092346191406,0.3827266693115234,-27.25390625,2,12458.420783625,4,1,1580908742.66195,1580903939.50652,2930,0.4892533,0,0,3512.849,14,15,1580908730.201193,12455.304292,0,17.18564,97.00362
1580908742.772619,101,0,1580907286.99823,41.20781296037784,29.0754925099451,275.2123,0.1345286,-1,23.46983528137207,200,-9999,12458.57088075,1.027008056640625,0.10064697265625,-0.1381072998046875,12458.560859625,-1.41746656188281,1.416417790322815,-0.1028379490586737,-0.02812144532799721,-0.02403588779270649,-0.2824824154376984,0.01427406072616577,-0.005415230989456177,0.002460360527038574,2,0.3931800295914843,0.5185871283739979,-0.5190838696068869,0.5541019531664985,0.9828870892524719,0.1026567816734314,-0.152953714132309,20.93092346191406,0.3827266693115234,-27.25390625,2,12458.420783625,4,1,1580908742.66195,1580903939.50652,2930,0.4892533,0,0,3512.849,14,15,1580908730.201193,12455.304292,0,17.18564,97.00362
1580908742.782328,102,0,1580907286.99823,41.20781296037784,29.0754925099451,275.2123,0.1345286,-1,23.46983528137207,200,-9999,12458.58092075,1.030075073242188,0.12274169921875,-0.1173553466796875,12458.57088075,-1.417614305088731,1.415602508078271,-0.1059866310632274,-0.03451450914144516,-0.07440167665481567,-0.3159816563129425,0.03913897275924683,-0.006086587905883789,0.01102596521377563,2,0.3920651393722017,0.519069171298055,-0.520020376606543,0.5535620658203745,0.9824377298355103,0.1057883128523827,-0.1537042409181595,20.95083618164062,0.5650463104248047,-27.3955078125,2,12458.420783625,4,1,1580908742.66195,1580903939.50652,2930,0.4892533,0,0,3512.849,14,15,1580908730.201193,12455.304292,0,17.18564,97.00362
1580908742.792642,103,0,1580907286.99823,41.20781296037784,29.0754925099451,275.2123,0.1345286,-1,23.46983528137207,200,-9999,12458.59096175,1.012619018554688,0.14654541015625,-0.11212158203125,12458.58092075,-1.417789657990569,1.413648966914064,-0.1090086291562541,-0.03175600618124008,-0.1927693337202072,-0.2964945137500763,0.04635542631149292,0.009681254625320435,0.03327172994613647,2,0.3906972071335149,0.5192007981483674,-0.5211552810132098,0.5533384931744175,0.9818153977394104,0.1087928712368011,-0.1555724442005157,20.9945068359375,0.6242923736572266,-27.22802734375,2,12458.420783625,4,1,1580908742.66195,1580903939.50652,2930,0.4892533,0,0,3512.849,14,15,1580908730.201193,12455.304292,0,17.18564,97.00362
1580908742.805378,104,0,1580907286.99823,41.20781296037784,29.0754925099451,275.2123,0.1345286,-1,23.46983528137207,200,-9999,12458.60100175,1.02471923828125,0.1309356689453125,-0.120697021484375,12458.59096175,-1.418088064295709,1.410669470234268,-0.1119364688074048,-0.01585211232304573,-0.2849936187267303,-0.2954574525356293,0.02846825122833252,0.0337073802947998,0.04331189393997192,2,0.3891189684153227,0.5190025427991036,-0.5224985291926854,0.5533696718627674,0.9810287356376648,0.1117028594017029,-0.1584455817937851,20.9945068359375,0.6242923736572266,-27.22802734375,2,12458.420783625,4,1,1580908742.66195,1580903939.50652,2930,0.4892533,0,0,3512.849,14,15,1580908730.201193,12455.304292,0,17.18564,97.00362
1580908742.829878,105,0,1580907286.99823,41.20781296037784,29.0754925099451,275.2123,0.1345286,-1,23.46983528137207,200,-9999,12458.61104175,1.00921630859375,0.1276702880859375,-0.127105712890625,12458.60100175,-1.418424937794923,1.406702382612824,-0.1148521467834318,-0.01481134910136461,-0.3928340673446655,-0.2927705943584442,0.03993159532546997,0.01821106672286987,0.03951841592788696,2,0.3872918005186575,0.5185209039488328,-0.5240360829305166,0.5536491035257701,0.9800670146942139,0.11459980905056,-0.1622822731733322,20.74530792236328,0.9245471954345703,-27.3531494140625,2,12458.420783625,4,1,1580908742.66195,1580903939.50652,2930,0.4892533,0,0,3512.849,14,15,1580908730.201193,12455.304292,0,17.18564,97.00362
1580908742.831193,106,0,1580907286.99823,41.20781296037784,29.0754925099451,275.2123,0.1345286,-1,23.46983528137207,200,-9999,12458.62111275,0.9815216064453125,0.1095123291015625,-0.1819610595703125,12458.61104175,-1.418805284626524,1.40222591474872,-0.1178408395138697,-0.00708517013117671,-0.4519996345043182,-0.3025946021080017,0.02981406450271606,0.00960095226764679,0.03784996271133423,2,0.3853148755599513,0.5179069651041845,-0.5256940263035381,0.5540311649295545,0.9789886474609375,0.1175682991743088,-0.1666096448898315,20.74530792236328,0.9245471954345703,-27.3531494140625,2,12458.420783625,4,1,1580908742.66195,1580903939.50652,2930,0.4892533,0,0,3512.849,14,15,1580908730.201193,12455.304292,0,17.18564,97.00362
1580908742.8327,107,0,1580907286.99823,41.20781296037784,29.0754925099451,275.2123,0.1345286,-1,23.46983528137207,200,-9999,12458.63115275,1.019577026367188,0.1052398681640625,-0.214141845703125,12458.62111275,-1.419086337111745,1.398079855308794,-0.1209264506834599,-0.02697658725082874,-0.4012653529644012,-0.302757054567337,0.00109410285949707,-0.009419530630111694,-0.007395923137664795,2,0.3833638779200154,0.5174264440446168,-0.5272756385456556,0.554330751833783,0.9779276251792908,0.1206319406628609,-0.170604020357132,20.65548706054688,1.038795471191406,-27.49981689453125,2,12458.420783625,4,1,1580908742.66195,1580903939.50652,2930,0.4892533,0,0,3512.849,14,15,1580908730.201193,12455.304292,0,17.18564,97.00362
1580908742.842838,108,0,1580907286.99823,41.20781296037784,29.0754925099451,275.2123,0.1345286,-1,23.46983528137207,200,-9999,12458.64119275,0.9715118408203125,0.1267242431640625,-0.1730499267578125,12458.63115275,-1.419392233263082,1.393829484819582,-0.1240942217492004,-0.02463593333959579,-0.4272053241729736,-0.3198820054531097,0.0342261791229248,-0.01953338086605072,-0.04397386312484741,2,0.3813613115282629,0.5169314498516894,-0.5288953645193677,0.5546306233968603,0.976812481880188,0.1237759739160538,-0.1746908575296402,20.65548706054688,1.038795471191406,-27.49981689453125,2,12458.420783625,4,1,1580908742.66195,1580903939.50652,2930,0.4892533,0,0,3512.849,14,15,1580908730.201193,12455.304292,0,17.18564,97.00362
1580908742.853047,109,0,1580907286.99823,41.20781296037784,29.0754925099451,275.2123,0.1345286,-1,23.46983528137207,200,-9999,12458.65123375,0.999237060546875,0.1415557861328125,-0.183013916015625,12458.64119275,-1.419724826056534,1.389509075402954,-0.1271340497624809,-0.02575179934501648,-0.4237946271896362,-0.3023573160171509,0.0009909272193908691,-0.003059759736061096,0.0003986358642578125,2,0.3793799855154779,0.516382057886262,-0.5304991674794669,0.5549695195022641,0.9756741523742676,0.126791849732399,-0.1788408011198044,20.40516662597656,1.270938873291016,-27.36297607421875,2,12458.420783625,4,1,1580908742.66195,1580903939.50652,2930,0.4892533,0,0,3512.849,14,15,1580908730.201193,12455.304292,0,17.18564,97.00362
1580908742.862834,110,0,1580907286.99823,41.20781296037784,29.0754925099451,275.2123,0.1345286,-1,23.46983528137207,200,-9999,12458.66127375,0.973388671875,0.1504669189453125,-0.14300537109375,12458.65123375,-1.420424938458355,1.384564286597276,-0.1301999236126251,0.02059116587042809,-0.488729864358902,-0.3223861753940582,0.01163202524185181,0.0100473165512085,-0.003150343894958496,2,0.3773135983499046,0.5155960883442408,-0.5323210984761895,0.5553642611929029,0.9743912816047668,0.1298323720693588,-0.1835902482271194,20.40516662597656,1.270938873291016,-27.36297607421875,2,12458.420783625,4,1,1580908742.66195,1580903939.50652,2930,0.4892533,0,0,3512.849,14,15,1580908730.201193,12456.248487,0,17.20413,97.00343
1580908742.890039,111,0,1580907286.99823,41.20781296037784,29.0754925099451,275.2123,0.1345286,-1,23.46983528137207,200,-9999,12458.67131375,0.89178466796875,0.1371002197265625,-0.190704345703125,12458.66127375,-1.421190588092134,1.379209040565528,-0.1331137123875632,0.01983403041958809,-0.5399323701858521,-0.3007389307022095,0.008874654769897461,0.01680679619312286,0.04055523872375488,2,0.3751937688654796,0.5146486193938488,-0.5341954349668525,0.5558793522579832,0.9730187058448792,0.132720947265625,-0.1887328624725342,20.19191741943359,1.311473846435547,-27.758056640625,2,12458.420783625,4,1,1580908742.66195,1580903939.50652,2930,0.4892533,0,0,3512.849,14,15,1580908730.201193,12456.248487,0,17.20413,97.00343
1580908742.891762,112,0,1580907286.99823,41.20781296037784,29.0754925099451,275.2123,0.1345286,-1,23.46983528137207,200,-9999,12458.68135475,0.9047698974609375,0.1330108642578125,-0.2085113525390625,12458.67131375,-1.422025837833143,1.374698600955068,-0.13597928588957,0.02537606656551361,-0.443711519241333,-0.2944576144218445,-0.0817711353302002,0.003275275230407715,0.006263017654418945,2,0.3733254105027007,0.5139122104541264,-0.5359114616018583,0.5561666229899894,0.9717803597450256,0.135560616850853,-0.1930447518825531,20.19191741943359,1.311473846435547,-27.758056640625,2,12458.420783625,4,1,1580908742.66195,1580903939.50652,2930,0.4892533,0,0,3512.849,14,15,1580908730.201193,12456.248487,0,17.20413,97.00343
1580908742.893089,113,0,1580907286.99823,41.20781296037784,29.0754925099451,275.2123,0.1345286,-1,23.46983528137207,200,-9999,12458.69139475,0.932647705078125,0.1465606689453125,-0.182464599609375,12458.68135475,-1.422927268631705,1.371016777476467,-0.1388053590641414,0.03226886317133904,-0.3588994443416595,-0.2936685085296631,-0.07131665945053101,-0.006645232439041138,-0.01736938953399658,2,0.3717027107277718,0.5133856395917675,-0.5374757785804686,0.5562303125366899,0.9706836938858032,0.1383600682020187,-0.1965445578098297,19.82852935791016,1.491327285766602,-27.66986083984375,2,12458.420783625,4,1,1580908742.66195,1580903939.50652,2930,0.4892533,0,0,3512.849,14,15,1580908730.201193,12456.248487,0,17.20413,97.00343
1580908742.902976,114,0,1580907286.99823,41.20781296037784,29.0754925099451,275.2123,0.1345286,-1,23.46983528137207,200,-9999,12458.70143475,0.967254638671875,0.165557861328125,-0.152191162109375,12458.69139475,-1.424015639809784,1.36765224794739,-0.1416002291967772,0.04962988570332527,-0.3204764425754547,-0.2966321110725403,-0.04459840059280396,0.003180697560310364,0.01211917400360107,2,0.370218398554606,0.5129064992676411,-0.539020534181736,0.5561673382507851,0.9696342945098877,0.1411275118589401,-0.1997305154800415,19.82852935791016,1.491327285766602,-27.66986083984375,2,12458.420783625,4,1,1580908742.66195,1580903939.50652,2930,0.4892533,0,0,3512.849,14,15,1580908730.201193,12456.248487,0,17.20413,97.00343
1580908742.913007,115,0,1580907286.99823,41.20781296037784,29.0754925099451,275.2123,0.1345286,-1,23.46983528137207,200,-9999,12458.71150575,0.93231201171875,0.17523193359375,-0.141326904296875,12458.70143475,-1.425471046015582,1.363833773978136,-0.1442406194047245,0.0869024246931076,-0.3650734722614288,-0.2918877005577087,-0.006194353103637695,0.01926469802856445,0.04456502199172974,2,0.3687486573886827,0.5121984767888329,-0.5407117607107605,0.5561545726061982,0.9684965014457703,0.1437409818172455,-0.2033542990684509,19.75839233398438,1.317798614501953,-27.75732421875,2,12458.420783625,4,1,1580908742.66195,1580903939.50652,2930,0.4892533,0,0,3512.849,14,15,1580908730.201193,12456.248487,0,17.20413,97.00343
1580908742.947045,116,0,1580907286.99823,41.20781296037784,29.0754925099451,275.2123,0.1345286,-1,23.46983528137207,200,-9999,12458.72154575,0.8986358642578125,0.1619110107421875,-0.1967620849609375,12458.71150575,-1.427251981327482,1.359663542135942,-0.1465157929255945,0.1246436759829521,-0.3911793828010559,-0.2598951458930969,-0.03244644403457642,0.02872389554977417,0.06551575660705566,2,0.3673742760332303,0.5112484615985348,-0.5424726160081351,0.5562235276876144,0.9673178195953369,0.1459921449422836,-0.2073222994804382,19.75839233398438,1.317798614501953,-27.75732421875,2,12458.420783625,4,1,1580908742.66195,1580903939.50652,2930,0.4892533,0,0,3512.849,14,15,1580908730.201193,12456.248487,0,17.20413,97.00343
1580908742.948332,117,0,1580907286.99823,41.20781296037784,29.0754925099451,275.2123,0.1345286,-1,23.46983528137207,200,-9999,12458.73158675,0.88043212890625,0.130859375,-0.264007568359375,12458.72154575,-1.429091137751008,1.355719925305982,-0.1484522509236769,0.1394660323858261,-0.375591367483139,-0.2273577004671097,-0.07052385807037354,0.01561656594276428,0.0181652307510376,2,0.3661753794187396,0.5102727109185214,-0.5441291793787488,0.5562921228881019,0.9662147760391235,0.1479075849056244,-0.2110747098922729,19.57427978515625,1.215682983398438,-27.86444091796875,2,12458.420783625,4,1,1580908742.66195,1580903939.50652,2930,0.4892533,0,0,3512.849,14,15,1580908730.201193,12456.248487,0,17.20413,97.00343
1580908742.949411,118,0,1580907286.99823,41.20781296037784,29.0754925099451,275.2123,0.1345286,-1,23.46983528137207,200,-9999,12458.74162675,0.8749237060546875,0.1128997802734375,-0.310791015625,12458.73158675,-1.430639066099611,1.352788390711748,-0.1502621928394731,0.1095404773950577,-0.2735797464847565,-0.2089198082685471,-0.08577835559844971,-0.01613293588161469,-0.04583883285522461,2,0.3652126750226057,0.5096034704443519,-0.5454881828360636,0.5562073743245114,0.9653288125991821,0.1496973782777786,-0.2138480097055435,19.57427978515625,1.215682983398438,-27.86444091796875,2,12458.420783625,4,1,1580908742.66195,1580903939.50652,2930,0.4892533,0,0,3512.849,14,15,1580908730.201193,12456.248487,0,17.20413,97.00343
1580908742.953208,119,0,1580907286.99823,41.20781296037784,29.0754925099451,275.2123,0.1345286,-1,23.46983528137207,200,-9999,12458.75166675,0.8908233642578125,0.13641357421875,-0.2641754150390625,12458.74162675,-1.431815723535517,1.351289215031888,-0.1520217246924157,0.07346875965595245,-0.129857212305069,-0.1978450417518616,-0.09456485509872437,-0.03934799134731293,-0.09824681282043457,2,0.3645594378086265,0.509389608231712,-0.5464690867485384,0.5558688890961018,0.9647486209869385,0.1514368504285812,-0.2152372896671295,19.57238006591797,1.280050277709961,-28.25799560546875,2,12458.420783625,4,1,1580908742.66195,1580903939.50652,2930,0.4892533,0,0,3512.849,14,15,1580908730.201193,12456.248487,0,17.20413,97.00343
1580908742.96318,120,0,1580907286.99823,41.20781296037784,29.0754925099451,275.2123,0.1345286,-1,23.46983528137207,200,-9999,12458.76170675,0.927398681640625,0.1680450439453125,-0.2032928466796875,12458.75166675,-1.432775270642784,1.350319152589228,-0.1535417250663486,0.05559255555272102,-0.07723110914230347,-0.1672265827655792,-0.0794646143913269,-0.02034808695316315,-0.05751758813858032,2,0.3640686212875103,0.5093061994225516,-0.5472400711057805,0.5555084326412892,0.9643136262893677,0.1529391407966614,-0.2161224633455276,19.57238006591797,1.280050277709961,-28.25799560546875,2,12458.420783625,4,1,1580908742.66195,1580903939.50652,2930,0.4892533,0,0,3512.849,14,15,1580908730.201193,12456.248487,0,17.20413,97.00343
1580908742.973404,121,0,1580907286.99823,41.20781296037784,29.0754925099451,275.2123,0.1345286,-1,23.46983528137207,200,-9999,12458.77174775,0.947723388671875,0.17950439453125,-0.176544189453125,12458.76170675,-1.433815875022559,1.34890148612474,-0.1548048672682385,0.0724162757396698,-0.1220739483833313,-0.1451074331998825,-0.04432880878448486,0.01085449755191803,0.006189525127410889,2,0.3635546078487074,0.5090232953964053,-0.5480586338638398,0.555297487748341,0.9638171792030334,0.1541873067617416,-0.2174466699361801,19.38552856445312,1.29620361328125,-28.10955810546875,2,12458.420783625,4,1,1580908742.66195,1580903939.50652,2930,0.4892533,0,0,3512.849,14,15,1580908730.201193,12456.248487,0,17.20413,97.00343
1580908743.01001,122,0,1580907286.99823,41.20781296037784,29.0754925099451,275.2123,0.1345286,-1,23.46983528137207,200,-9999,12458.78178775,0.884796142578125,0.16424560546875,-0.21380615234375,12458.77174775,-1.434894839189837,1.346747637581703,-0.1558227283880885,0.08284015953540802,-0.2050601691007614,-0.1224418133497238,-0.01779317855834961,0.02391371130943298,0.03947210311889648,2,0.3629234050691482,0.508471307010524,-0.5489677344417551,0.5553179612576886,0.9631929993629456,0.1551929116249084,-0.2194870710372925,19.38552856445312,1.29620361328125,-28.10955810546875,2,12458.420783625,4,1,1580908742.66195,1580903939.50652,2930,0.4892533,0,0,3512.849,14,15,1580908730.201193,12456.248487,0,17.20413,97.00343
1580908743.011393,123,0,1580907286.99823,41.20781296037784,29.0754925099451,275.2123,0.1345286,-1,23.46983528137207,200,-9999,12458.79185875,0.8225555419921875,0.13616943359375,-0.28179931640625,12458.78178775,-1.435802448572881,1.344813784289213,-0.1565386683654805,0.07207139581441879,-0.193042665719986,-0.08819835633039474,-0.07220327854156494,0.010493203997612,0.01151579618453979,2,0.3624011455683801,0.50794017169365,-0.5497236325867647,0.5553973815093963,0.9626582264900208,0.1559001356363297,-0.2213243842124939,19.27706146240234,1.330720901489258,-28.1053466796875,2,12458.420783625,4,1,1580908742.66195,1580903939.50652,2930,0.4892533,0,0,3512.849,14,15,1580908730.201193,12456.248487,0,17.20413,97.00343
1580908743.012445,124,0,1580907286.99823,41.20781296037784,29.0754925099451,275.2123,0.1345286,-1,23.46983528137207,200,-9999,12458.80189875,0.8740692138671875,0.1334075927734375,-0.2826690673828125,12458.79185875,-1.436443187468526,1.344249148278487,-0.1570338679414106,0.05005237832665443,-0.04462922364473343,-0.06106606870889664,-0.1428637504577637,-0.01848585903644562,-0.05831438302993774,2,0.3622552480969356,0.5077852702958661,-0.5501095989311962,0.5552519132661289,0.9624576568603516,0.1563892662525177,-0.2218505144119263,19.27706146240234,1.330720901489258,-28.1053466796875,2,12458.420783625,4,1,1580908742.66195,1580903939.50652,2930,0.4892533,0,0,3512.849,14,15,1580908730.201193,12456.248487,0,17.20413,97.00343
1580908743.013855,125,0,1580907286.99823,41.20781296037784,29.0754925099451,275.2123,0.1345286,-1,23.46983528137207,200,-9999,12458.81193875,0.9008331298828125,0.1558990478515625,-0.2353363037109375,12458.80189875,-1.436844506270087,1.344625404660788,-0.1573825028250108,0.02946747466921806,0.04774758219718933,-0.0416598841547966,-0.09858262538909912,-0.02537752687931061,-0.06737232208251953,2,0.3623526348249542,0.5079000852692019,-0.5502272724271101,0.5549667911044963,0.9624879360198975,0.1567336022853851,-0.221476137638092,19.43543243408203,1.377246856689453,-28.20220947265625,2,12458.420783625,4,1,1580908742.66195,1580903939.50652,2930,0.4892533,0,0,3512.849,14,15,1580908730.201193,12456.248487,0,17.20413,97.00343
1580908743.029572,126,0,1580907286.99823,41.20781296037784,29.0754925099451,275.2123,0.1345286,-1,23.46983528137207,200,-9999,12458.82197975,0.92315673828125,0.15924072265625,-0.2296600341796875,12458.81193875,-1.437135572086597,1.34531952502398,-0.1575840108864918,0.02402610331773758,0.0771012082695961,-0.02673659101128578,-0.06564027070999146,-0.003543615341186523,-0.02140414714813232,2,0.3625551292479905,0.5080878941803336,-0.5502252422878191,0.5546645507358191,0.96261066198349,0.156932607293129,-0.2208009362220764,19.43543243408203,1.377246856689453,-28.20220947265625,2,12458.420783625,4,1,1580908742.66195,1580903939.50652,2930,0.4892533,0,0,3512.849,14,15,1580908730.201193,12456.248487,0,17.20413,97.00343
1580908743.033567,127,0,1580907286.99823,41.20781296037784,29.0754925099451,275.2123,0.1345286,-1,23.46983528137207,200,-9999,12458.83201975,0.937103271484375,0.1623687744140625,-0.2206878662109375,12458.82197975,-1.43739646463331,1.346100077463226,-0.1576806279370459,0.02267348393797874,0.08782415837049484,-0.01632576249539852,-0.04736566543579102,0.001533284783363342,-0.01172500848770142,2,0.3628062568116327,0.5082800034906589,-0.5501766569757756,0.5543724039241991,0.9627678990364075,0.1570280343294144,-0.2200461179018021,19.31611633300781,1.536125183105469,-28.19744873046875,2,12458.420783625,4,1,1580908742.66195,1580903939.50652,2930,0.4892533,0,0,3512.849,14,15,1580908730.201193,12456.248487,0,17.20413,97.00343
1580908743.061362,128,0,1580907286.99823,41.20781296037784,29.0754925099451,275.2123,0.1345286,-1,23.46983528137207,200,-9999,12458.84205975,0.902130126953125,0.158599853515625,-0.2212066650390625,12458.83201975,-1.437649684613368,1.34685326420473,-0.1577042412135506,0.02420834079384804,0.07835240662097931,-0.00911729596555233,-0.02760010957717896,0.004531115293502808,-0.006212949752807617,2,0.3630705149749249,0.5084483887173097,-0.5501151839484444,0.5541058666682314,0.9629296660423279,0.1570513546466827,-0.219320073723793,19.31611633300781,1.536125183105469,-28.19744873046875,2,12458.420783625,4,1,1580908742.66195,1580903939.50652,2930,0.4892533,0,0,3512.849,14,15,1580908730.201193,12456.248487,0,17.20413,97.00343
1580908743.062405,129,0,1580907286.99823,41.20781296037784,29.0754925099451,275.2123,0.1345286,-1,23.46983528137207,200,-9999,12458.85209975,0.8724212646484375,0.16131591796875,-0.229156494140625,12458.84205975,-1.437833944309905,1.347909118314474,-0.1575814973632058,0.01866736635565758,0.1057739183306694,0.007652097381651402,-0.0607793927192688,0.001234814524650574,-0.004299581050872803,2,0.3634456978840678,0.5086781602706305,-0.549948216710216,0.5538147312907354,0.9631795287132263,0.1569301337003708,-0.2183075100183487,19.34940338134766,1.482995986938477,-28.24383544921875,2,12458.420783625,4,1,1580908742.66195,1580903939.50652,2930,0.4892533,0,0,3512.849,14,15,1580908730.201193,12456.248487,0,17.20413,97.00343
1580908743.063778,130,0,1580907286.99823,41.20781296037784,29.0754925099451,275.2123,0.1345286,-1,23.46983528137207,200,-9999,12458.86214075,0.853302001953125,0.1571502685546875,-0.22857666015625,12458.85209975,-1.437981141056907,1.349463002136174,-0.1571977933842024,0.0245852954685688,0.155510351061821,0.03322294354438782,-0.09273272752761841,0.003995597362518311,-0.01579856872558594,2,0.3640289451611449,0.5089902208554011,-0.5496242459969445,0.5534663770188718,0.9635761976242065,0.1565511673688889,-0.2168237715959549,19.34940338134766,1.482995986938477,-28.24383544921875,2,12458.420783625,4,1,1580908742.66195,1580903939.50652,2930,0.4892533,0,0,3512.849,14,15,1580908730.201193,12456.248487,0,17.20413,97.00343
1580908743.073758,131,0,1580907286.99823,41.20781296037784,29.0754925099451,275.2123,0.1345286,-1,23.46983528137207,200,-9999,12458.87218075,0.8218841552734375,0.1548919677734375,-0.2407379150390625,12458.86214075,-1.437958088387732,1.351639609487693,-0.1563903432322653,0.01522241998463869,0.2118324786424637,0.07909616082906723,-0.1112568378448486,0.0014239102602005,-0.01587790250778198,2,0.36487029282628,0.5094045442902573,-0.5490481880449822,0.5531029343896248,0.9641690254211426,0.1557536274194717,-0.2147533595561981,19.36396789550781,1.514652252197266,-28.12371826171875,2,12458.420783625,4,1,1580908742.66195,1580903939.50652,2930,0.4892533,0,0,3512.849,14,15,1580908730.201193,12456.248487,0,17.20413,97.00343
1580908743.083766,132,0,1580907286.99823,41.20781296037784,29.0754925099451,275.2123,0.1345286,-1,23.46983528137207,200,-9999,12458.88225175,0.8772430419921875,0.1459503173828125,-0.24932861328125,12458.87218075,-1.437725883228118,1.354845015278992,-0.1550809355952965,0.006706875748932362,0.3168949782848358,0.1329577416181564,-0.1459096074104309,0.0002351105213165283,-0.03090035915374756,2,0.3660943178003087,0.5100219026413999,-0.5481168215649264,0.5526487091538237,0.9650508165359497,0.1544600576162338,-0.2117052227258682,19.36396789550781,1.514652252197266,-28.12371826171875,2,12458.420783625,4,1,1580908742.66195,1580903939.50652,2930,0.4892533,0,0,3512.849,14,15,1580908730.201193,12456.248487,0,17.20413,97.00343
1580908743.094433,133,0,1580907286.99823,41.20781296037784,29.0754925099451,275.2123,0.1345286,-1,23.46983528137207,200,-9999,12458.89229175,0.9720001220703125,0.147491455078125,-0.2262725830078125,12458.88225175,-1.437297226491133,1.358983299817929,-0.1535124403332041,-0.01074854750186205,0.4126763641834259,0.1622003167867661,-0.1025227308273315,-0.006677880883216858,-0.04461050033569336,2,0.367600949712529,0.5108711455703004,-0.5469010190547772,0.5520683469841462,0.9661542177200317,0.1529102027416229,-0.2077604234218597,19.49992370605469,1.31920051574707,-28.05224609375,2,12458.420783625,4,1,1580908742.66195,1580903939.50652,2930,0.4892533,0,0,3512.849,14,15,1580908730.201193,12456.248487,0,17.20413,97.00343
1580908743.128326,134,0,1580907286.99823,41.20781296037784,29.0754925099451,275.2123,0.1345286,-1,23.46983528137207,200,-9999,12458.90233175,1.021820068359375,0.1556854248046875,-0.1893768310546875,12458.89229175,-1.436831399593165,1.363241056829152,-0.1519966943356756,-0.01347121968865395,0.4231138825416565,0.1592094451189041,-0.005926311016082764,-0.005189374089241028,-0.02987939119338989,2,0.3691108329465947,0.5117723701435632,-0.5456600062382897,0.5514540432707672,0.9672559499740601,0.1514120995998383,-0.2036924660205841,19.49992370605469,1.31920051574707,-28.05224609375,2,12458.420783625,4,1,1580908742.66195,1580903939.50652,2930,0.4892533,0,0,3512.849,14,15,1580908730.201193,12456.248487,0,17.20413,97.00343
1580908743.129602,135,0,1580907286.99823,41.20781296037784,29.0754925099451,275.2123,0.1345286,-1,23.46983528137207,200,-9999,12458.91237275,1.009841918945312,0.1651763916015625,-0.1723175048828125,12458.90233175,-1.436421512351175,1.366821701112807,-0.15060995350981,-0.01028474699705839,0.3550205826759338,0.1411721110343933,0.04685318470001221,0.004273727536201477,0.005290031433105469,2,0.370407542483236,0.5125067848554437,-0.5445834606849519,0.5509664102396103,0.968183696269989,0.1500412076711655,-0.2002701014280319,19.70650482177734,1.313850402832031,-27.9625244140625,2,12458.420783625,4,1,1580908742.66195,1580903939.50652,2930,0.4892533,0,0,3512.849,14,15,1580908730.201193,12456.248487,0,17.20413,97.00343
1580908743.130641,136,0,1580907286.99823,41.20781296037784,29.0754925099451,275.2123,0.1345286,-1,23.46983528137207,200,-9999,12458.92241275,0.943328857421875,0.1634521484375,-0.18292236328125,12458.91237275,-1.436090509071072,1.369488567673256,-0.1490767825521451,-0.001214141026139259,0.2575977444648743,0.1557829082012177,0.04196017980575562,0.01534742116928101,0.0215880274772644,2,0.3715182496939171,0.5129401809804512,-0.5436631029170962,0.5507240666315238,0.9689385294914246,0.1485252231359482,-0.1977331191301346,19.70650482177734,1.313850402832031,-27.9625244140625,2,12458.420783625,4,1,1580908742.66195,1580903939.50652,2930,0.4892533,0,0,3512.849,14,15,1580908730.201193,12456.248487,0,17.20413,97.00343
1580908743.134098,137,0,1580907286.99823,41.20781296037784,29.0754925099451,275.2123,0.1345286,-1,23.46983528137207,200,-9999,12458.93245275,0.8604888916015625,0.15234375,-0.206756591796875,12458.92241275,-1.435764124018425,1.37185723959869,-0.1471342042568625,0.007192660123109818,0.2245492488145828,0.1955385804176331,-0.02200651168823242,0.01661975681781769,0.01172643899917603,2,0.3726725390858417,0.5131940304489361,-0.54270741921388,0.5506503241339606,0.9696851968765259,0.146603912115097,-0.1954941302537918,19.71839141845703,1.265165328979492,-27.73760986328125,2,12458.420783625,4,1,1580908742.66195,1580903939.50652,2930,0.4892533,0,0,3512.849,14,15,1580908730.201193,12456.248487,0,17.20413,97.00343
1580908743.144286,138,0,1580907286.99823,41.20781296037784,29.0754925099451,275.2123,0.1345286,-1,23.46983528137207,200,-9999,12458.94249375,0.84515380859375,0.132232666015625,-0.2342071533203125,12458.93245275,-1.43529078970866,1.375010212169228,-0.1446947043588886,0.001649079844355583,0.3053231835365295,0.2503045201301575,-0.1074422597885132,0.009627729654312134,-0.01442176103591919,2,0.3741513652482071,0.5135741154980384,-0.541452669707929,0.5505282874535944,0.9706446528434753,0.144190326333046,-0.1925047636032104,19.71839141845703,1.265165328979492,-27.73760986328125,2,12458.420783625,4,1,1580908742.66195,1580903939.50652,2930,0.4892533,0,0,3512.849,14,15,1580908730.201193,12456.248487,0,17.20413,97.00343
1580908743.154127,139,0,1580907286.99823,41.20781296037784,29.0754925099451,275.2123,0.1345286,-1,23.46983528137207,200,-9999,12458.95253375,0.849090576171875,0.129425048828125,-0.2303924560546875,12458.94249375,-1.434570376437319,1.379625590692143,-0.1418978598535114,-0.01653471775352955,0.4498079121112823,0.2883094251155853,-0.1308729648590088,-0.008406713604927063,-0.04777491092681885,2,0.3760671159652929,0.5143191288613761,-0.5397717011811595,0.5501779487092626,0.9719148874282837,0.1414221525192261,-0.1880987137556076,19.89320373535156,1.213045120239258,-27.73883056640625,2,12458.420783625,4,1,1580908742.66195,1580903939.50652,2930,0.4892533,0,0,3512.849,14,15,1580908730.201193,12456.248487,0,17.20413,97.00343
1580908743.187616,140,0,1580907286.99823,41.20781296037784,29.0754925099451,275.2123,0.1345286,-1,23.46983528137207,200,-9999,12458.96257375,0.92352294921875,0.127532958984375,-0.203033447265625,12458.95253375,-1.433654358431628,1.385812186475754,-0.1388544078434772,-0.03262801468372345,0.6150832772254944,0.3182844519615173,-0.1305045485496521,-0.009425461292266846,-0.05262112617492676,2,0.3784238220658414,0.5154755844627678,-0.5376774854980837,0.5495301409168104,0.9734786748886108,0.1384086459875107,-0.1821606606245041,19.89320373535156,1.213045120239258,-27.73883056640625,2,12458.420783625,4,1,1580908742.66195,1580903939.50652,2930,0.4892533,0,0,3512.849,14,15,1580908730.201193,12456.248487,0,17.20413,97.00343
1580908743.188896,141,0,1580907286.99823,41.20781296037784,29.0754925099451,275.2123,0.1345286,-1,23.46983528137207,200,-9999,12458.97264475,1.0859375,0.1425018310546875,-0.1746978759765625,12458.96257375,-1.432665884726668,1.392637862248332,-0.1358464523671081,-0.04512889310717583,0.6778203845024109,0.3181057274341583,-0.0652422308921814,-0.00878460705280304,-0.03467041254043579,2,0.3809125874402385,0.5168299546851582,-0.5354382024614912,0.5487243059754688,0.9751046299934387,0.1354290097951889,-0.1755847930908203,20.2076416015625,1.003444671630859,-27.5958251953125,2,12458.420783625,4,1,1580908742.66195,1580903939.50652,2930,0.4892533,0,0,3512.849,14,15,1580908730.201193,12456.248487,0,17.20413,97.00343
1580908743.190162,142,0,1580907286.99823,41.20781296037784,29.0754925099451,275.2123,0.1345286,-1,23.46983528137207,200,-9999,12458.98268475,1.123626708984375,0.1474609375,-0.1332550048828125,12458.97264475,-1.431965260832357,1.39837720869775,-0.1334643412353304,-0.0173319149762392,0.5614993572235107,0.2338072061538696,0.08517968654632568,0.00803491473197937,-0.009824573993682861,2,0.3829859368213063,0.5179783740252226,-0.5336144161349117,0.5479744140777374,0.9764114022254944,0.1330684721469879,-0.1700403541326523,20.2076416015625,1.003444671630859,-27.5958251953125,2,12458.420783625,4,1,1580908742.66195,1580903939.50652,2930,0.4892533,0,0,3512.849,14,15,1580908730.201193,12456.248487,0,17.20413,97.00343
1580908743.194824,143,0,1580907286.99823,41.20781296037784,29.0754925099451,275.2123,0.1345286,-1,23.46983528137207,200,-9999,12458.99272475,1.0986328125,0.14056396484375,-0.13531494140625,12458.98268475,-1.431463012118037,1.402561499611433,-0.1316203238943112,-0.02087125554680824,0.4183842837810516,0.1957498341798782,0.1494792699813843,0.01548480987548828,0.02737349271774292,2,0.3845273561858398,0.5187886488285723,-0.5322573354393854,0.5474480525490718,0.9773547053337097,0.1312406212091446,-0.1659941077232361,20.55983734130859,0.8661861419677734,-27.3153076171875,2,12458.420783625,4,1,1580908742.66195,1580903939.50652,2930,0.4892533,0,0,3512.849,14,15,1580908730.201193,12456.248487,0,17.20413,97.00343
1580908743.204334,144,0,1580907286.99823,41.20781296037784,29.0754925099451,275.2123,0.1345286,-1,23.46983528137207,200,-9999,12459.00276575,0.9999542236328125,0.13787841796875,-0.139678955078125,12458.99272475,-1.431091838999952,1.405283558693627,-0.1301809868362843,-0.01799191907048225,0.2559249997138977,0.1501867920160294,0.1210417747497559,0.01088990271091461,0.02368050813674927,2,0.3855886316738698,0.5192681488403434,-0.5313052845635775,0.5471715039825973,0.9779880046844482,0.1298135966062546,-0.1633639931678772,20.55983734130859,0.8661861419677734,-27.3153076171875,2,12458.420783625,4,1,1580908742.66195,1580903939.50652,2930,0.4892533,0,0,3512.849,14,15,1580908730.201193,12456.248487,0,17.20413,97.00343
1580908743.21434,145,0,1580907286.99823,41.20781296037784,29.0754925099451,275.2123,0.1345286,-1,23.46983528137207,200,-9999,12459.01280575,0.941650390625,0.13934326171875,-0.1567535400390625,12459.00276575,-1.430748158401629,1.407371131979818,-0.1287059715596373,-0.006224208045750856,0.2029699236154556,0.150009959936142,0.02874654531478882,0.009245231747627258,0.02138733863830566,2,0.3864974244353401,0.5195606132550238,-0.5304730124959741,0.5470603624887687,0.9785149693489075,0.1283509284257889,-0.1613530218601227,20.72904205322266,0.7983112335205078,-27.32928466796875,2,12458.420783625,4,1,1580908742.66195,1580903939.50652,2930,0.4892533,0,0,3512.849,14,15,1580908730.201193,12456.248487,0,17.20413,97.00343
1580908743.247542,146,0,1580907286.99823,41.20781296037784,29.0754925099451,275.2123,0.1345286,-1,23.46983528137207,200,-9999,12459.02284575,0.9320220947265625,0.14642333984375,-0.1490325927734375,12459.01280575,-1.4304930933604,1.409173520879297,-0.126936355514307,0.0052987951785326,0.178845688700676,0.1767511963844299,-0.03957736492156982,0.01125118136405945,-0.0004274845123291016,2,0.3874409189673147,0.5196891828130092,-0.5296512145989978,0.5470669812509465,0.9790266752243042,0.126595750451088,-0.159625381231308,20.88692474365234,0.8305034637451172,-27.17926025390625,2,12458.420783625,4,1,1580908742.66195,1580903939.50652,2930,0.4892533,0,0,3512.849,14,15,1580908730.201193,12456.248487,0,17.20413,97.00343
1580908743.248959,147,0,1580907286.99823,41.20781296037784,29.0754925099451,275.2123,0.1345286,-1,23.46983528137207,200,-9999,12459.03288675,0.9299468994140625,0.1396484375,-0.1573638916015625,12459.02284575,-1.430398597270271,1.410735892711475,-0.1247411933598807,0.02493667975068092,0.1577995270490646,0.2180309891700745,-0.0497431755065918,0.02172261476516724,0.005771458148956299,2,0.3884889480387701,0.5196215815100708,-0.5288208798782204,0.5471912961153449,0.9795469641685486,0.1244179382920265,-0.1581394970417023,20.88692474365234,0.8305034637451172,-27.17926025390625,2,12458.420783625,4,1,1580908742.66195,1580903939.50652,2930,0.4892533,0,0,3512.849,14,15,1580908730.201193,12456.248487,0,17.20413,97.00343
1580908743.24993,148,0,1580907286.99823,41.20781296037784,29.0754925099451,275.2123,0.1345286,-1,23.46983528137207,200,-9999,12459.04292675,0.9419403076171875,0.13079833984375,-0.162933349609375,12459.03288675,-1.430442017470303,1.412291021398071,-0.1221847960293717,0.04515375569462776,0.1613720208406448,0.2527900040149689,-0.05500030517578125,0.01830288767814636,-0.003077685832977295,2,0.3896776954658181,0.5194405221207544,-0.5279448736484351,0.54736378600282,0.9801025390625,0.1218810006976128,-0.1566656678915024,20.86855316162109,0.5682277679443359,-27.1407470703125,2,12458.420783625,4,1,1580908742.66195,1580903939.50652,2930,0.4892533,0,0,3512.849,14,15,1580908730.201193,12456.248487,0,17.20413,97.00343
1580908743.25451,149,0,1580907286.99823,41.20781296037784,29.0754925099451,275.2123,0.1345286,-1,23.46983528137207,200,-9999,12459.05296675,0.96539306640625,0.1197662353515625,-0.1650543212890625,12459.04292675,-1.430518461990632,1.414007161049567,-0.1194557175888378,0.05074053630232811,0.1755994260311127,0.2716960608959198,-0.04361671209335327,0.01215684413909912,-0.01066553592681885,2,0.3909673139771576,0.5192563452040333,-0.5270043874065435,0.5475252119694535,0.9806948900222778,0.1191718205809593,-0.1550348103046417,20.86855316162109,0.5682277679443359,-27.1407470703125,2,12458.420783625,4,1,1580908742.66195,1580903939.50652,2930,0.4892533,0,0,3512.849,14,15,1580908730.201193,12456.248487,0,17.20413,97.00343
1580908743.264547,150,0,1580907286.99823,41.20781296037784,29.0754925099451,275.2123,0.1345286,-1,23.46983528137207,200,-9999,12459.06303775,0.9827728271484375,0.11676025390625,-0.1641845703125,12459.05296675,-1.430547470730821,1.41600047638706,-0.1168271630619344,0.04215458407998085,0.1991411447525024,0.2603916823863983,-0.02210688591003418,0.003668487071990967,-0.01502144336700439,2,0.3922853915373865,0.5191805570954072,-0.52601695917151,0.5476038299917227,0.9813080430030823,0.1165615916252136,-0.153127446770668,21.04428863525391,0.4055194854736328,-27.0577392578125,2,12458.420783625,4,1,1580908742.66195,1580903939.50652,2930,0.4892533,0,0,3512.849,14,15,1580908730.201193,12456.248487,0,17.20413,97.00343
1580908743.274692,151,0,1580907286.99823,41.20781296037784,29.0754925099451,275.2123,0.1345286,-1,23.46983528137207,200,-9999,12459.07307775,0.9920501708984375,0.1170654296875,-0.152374267578125,12459.06303775,-1.430518582823712,1.418210639600246,-0.1143738384797472,0.03403673321008682,0.2193042039871216,0.2435322701931,-0.004154801368713379,0.002147257328033447,-0.01700288057327271,2,0.3935908172192855,0.5192163814449994,-0.5250085218608882,0.5476009483543421,0.9819238185882568,0.1141246408224106,-0.1510012298822403,21.04428863525391,0.4055194854736328,-27.0577392578125,2,12458.420783625,4,1,1580908742.66195,1580903939.50652,2930,0.4892533,0,0,3512.849,14,15,1580908730.201193,12456.248487,0,17.20413,97.00343
1580908743.309869,152,0,1580907286.99823,41.20781296037784,29.0754925099451,275.2123,0.1345286,-1,23.46983528137207,200,-9999,12459.08311875,1.003616333007812,0.115509033203125,-0.1391448974609375,12459.07307775,-1.430516683075751,1.420284463544758,-0.112177686638518,0.03350638225674629,0.2091074287891388,0.218613862991333,0.005204856395721436,0.004764765501022339,-0.008008241653442383,2,0.3947886524963474,0.5192697013739692,-0.5240909386488395,0.5475670639692182,0.9824802875518799,0.1119425669312477,-0.1490017920732498,21.09398651123047,0.03544044494628906,-27.04327392578125,2,12458.420783625,4,1,1580908742.66195,1580903939.50652,2930,0.4892533,0,0,3512.849,14,15,1580908730.201193,12456.248487,0,17.20413,97.00343
1580908743.311167,153,0,1580907286.99823,41.20781296037784,29.0754925099451,275.2123,0.1345286,-1,23.46983528137207,200,-9999,12459.09315875,1.001708984375,0.1110382080078125,-0.142578125,12459.08311875,-1.430567889583614,1.421912248976476,-0.1103024658187526,0.03161900117993355,0.1586533188819885,0.1846809387207031,0.01595604419708252,0.005399405956268311,0.004455447196960449,2,0.3957862150062482,0.5192655122661116,-0.5233481760216914,0.5475612432181813,0.9829273223876953,0.1100789308547974,-0.1474332064390182,21.09398651123047,0.03544044494628906,-27.04327392578125,2,12458.420783625,4,1,1580908742.66195,1580903939.50652,2930,0.4892533,0,0,3512.849,14,15,1580908730.201193,12456.248487,0,17.20413,97.00343
1580908743.312212,154,0,1580907286.99823,41.20781296037784,29.0754925099451,275.2123,0.1345286,-1,23.46983528137207,200,-9999,12459.10319875,1.016006469726562,0.096893310546875,-0.1431732177734375,12459.09315875,-1.43070948820646,1.423248812119913,-0.108817811126616,0.03624734655022621,0.1374855935573578,0.1478180438280106,0.0149417519569397,0.002409875392913818,0.001070082187652588,2,0.3966137642472711,0.5192551608899557,-0.5227771072956898,0.5475178631045422,0.9832841157913208,0.1086031794548035,-0.1461431980133057,21.20326995849609,0.08759498596191406,-26.85089111328125,2,12458.420783625,4,1,1580908742.66195,1580903939.50652,2930,0.4892533,0,0,3512.849,14,15,1580908730.201193,12456.248487,0,17.20413,97.00343
1580908743.31481,155,0,1580907286.99823,41.20781296037784,29.0754925099451,275.2123,0.1345286,-1,23.46983528137207,200,-9999,12459.11323875,1.0299072265625,0.0879974365234375,-0.137237548828125,12459.10319875,-1.430862198888031,1.424320634612933,-0.107936511550173,0.02745997905731201,0.1113266944885254,0.08720290660858154,0.0260888934135437,-0.009375542402267456,-0.001865923404693604,2,0.3971951960995941,0.5193114875238056,-0.5224010693968798,0.5474017630214987,0.9835344552993774,0.10772705078125,-0.1451031118631363,21.20326995849609,0.08759498596191406,-26.85089111328125,2,12458.420783625,4,1,1580908742.66195,1580903939.50652,2930,0.4892533,0,0,3512.849,14,15,1580908730.201193,12456.248487,0,17.20413,97.00343
1580908743.325067,156,0,1580907286.99823,41.20781296037784,29.0754925099451,275.2123,0.1345286,-1,23.46983528137207,200,-9999,12459.12327975,1.019180297851562,0.0886077880859375,-0.1399688720703125,12459.11323875,-1.430959049995522,1.425058897404665,-0.1076379776309741,0.01419839169830084,0.07528688013553619,0.02925119176506996,0.04271912574768066,-0.01975876092910767,0.003360748291015625,2,0.3975017480047277,0.5194242469956688,-0.5222113543456021,0.5472532271147796,0.9836730360984802,0.1074302494525909,-0.1443816274404526,21.09074401855469,0.005861282348632812,-26.7977294921875,2,12458.420783625,4,1,1580908742.66195,1580903939.50652,2930,0.4892533,0,0,3512.849,14,15,1580908730.201193,12456.248487,0,17.20413,97.00343
1580908743.33497,157,0,1580907286.99823,41.20781296037784,29.0754925099451,275.2123,0.1345286,-1,23.46983528137207,200,-9999,12459.13331975,1.004898071289062,0.0968475341796875,-0.1442108154296875,12459.12327975,-1.430957535309802,1.425638647920906,-0.1078109018648813,-0.004818708635866642,0.05938833579421043,-0.01630910113453865,0.03336119651794434,-0.01951935887336731,0.001442849636077881,2,0.3976014333861811,0.5196237010902561,-0.5221359896882218,0.5470632928381346,0.983738124370575,0.107602171599865,-0.1438086181879044,21.09074401855469,0.005861282348632812,-26.7977294921875,2,12458.420783625,4,1,1580908742.66195,1580903939.50652,2930,0.4892533,0,0,3512.849,14,15,1580908730.201193,12456.248487,0,17.20413,97.00343
1580908743.371417,158,0,1580907286.99823,41.20781296037784,29.0754925099451,275.2123,0.1345286,-1,23.46983528137207,200,-9999,12459.14335975,0.9899749755859375,0.107513427734375,-0.1392364501953125,12459.13331975,-1.430931754299626,1.426075836636545,-0.1082738927946985,-0.00967977661639452,0.04603870585560799,-0.0448981337249279,0.018424391746521,-0.01309964060783386,-0.004535257816314697,2,0.3975715295725705,0.5198569191382506,-0.5221499404876244,0.5468500924603928,0.9837515354156494,0.1080624610185623,-0.1433713287115097,21.29714965820312,0.1648387908935547,-27.08489990234375,2,12458.420783625,4,1,1580908742.66195,1580903939.50652,2930,0.4892533,0,0,3512.849,14,15,1580908730.201193,12456.248487,0,17.20413,97.00343
1580908743.372709,159,0,1580907286.99823,41.20781296037784,29.0754925099451,275.2123,0.1345286,-1,23.46983528137207,200,-9999,12459.15343075,0.9752349853515625,0.1153411865234375,-0.13812255859375,12459.14335975,-1.430903462792629,1.426295140707129,-0.1088541099497383,-0.01214213576167822,0.0265161395072937,-0.05710819736123085,0.004783511161804199,-0.002417594194412231,0.0005646944046020508,2,0.3974492415353093,0.5200584798842834,-0.5222338803709732,0.546667355120073,0.9837208986282349,0.1086392626166344,-0.1431465595960617,21.29714965820312,0.1648387908935547,-27.08489990234375,2,12458.420783625,4,1,1580908742.66195,1580903939.50652,2930,0.4892533,0,0,3512.849,14,15,1580908730.201193,12456.248487,0,17.20413,97.00343
1580908743.373903,160,0,1580907286.99823,41.20781296037784,29.0754925099451,275.2123,0.1345286,-1,23.46983528137207,200,-9999,12459.16347075,0.9781341552734375,0.1214141845703125,-0.13531494140625,12459.15343075,-1.430890247372686,1.426217472656003,-0.1094172297415283,-0.01027956418693066,-0.006833560764789581,-0.05491150170564651,-0.01173079013824463,0.004955083131790161,0.001441121101379395,2,0.3972584666223282,0.5201717562050051,-0.5223768892626267,0.5465615085477944,0.9836490154266357,0.1091990321874619,-0.1432141065597534,21.06643676757812,0.14764404296875,-26.92657470703125,2,12458.420783625,4,1,1580908742.66195,1580903939.50652,2930,0.4892533,0,0,3512.849,14,15,1580908730.201193,12456.248487,0,17.20413,97.00343
1580908743.37575,161,0,1580907286.99823,41.20781296037784,29.0754925099451,275.2123,0.1345286,-1,23.46983528137207,200,-9999,12459.17351175,0.9771575927734375,0.1108856201171875,-0.1426544189453125,12459.16347075,-1.430895584408301,1.425831660287222,-0.1099731758191099,-0.006682699080556631,-0.04012493789196014,-0.05376021564006805,-0.009204089641571045,0.01128211617469788,0.005109071731567383,2,0.3969940128861237,0.5201954801405395,-0.5225844592965905,0.5465328123481142,0.9835336208343506,0.1097516417503357,-0.1435848325490952,21.06643676757812,0.14764404296875,-26.92657470703125,2,12458.420783625,4,1,1580908742.66195,1580903939.50652,2930,0.4892533,0,0,3512.849,14,15,1580908730.201193,12456.248487,0,17.20413,97.00343
1580908743.385215,162,0,1580907286.99823,41.20781296037784,29.0754925099451,275.2123,0.1345286,-1,23.46983528137207,200,-9999,12459.18355175,0.9803009033203125,0.1041717529296875,-0.1537017822265625,12459.17351175,-1.430872701687802,1.425371055911326,-0.1107043672569057,-0.01385435834527016,-0.04816093295812607,-0.07165431976318359,-0.009759783744812012,0.00168725848197937,-0.0002620220184326172,2,0.3966506645188051,0.5202453110649253,-0.522839731291764,0.5464902650985757,0.9833874702453613,0.1104783862829208,-0.144026130437851,21.14350128173828,0.03713226318359375,-26.8857421875,2,12458.420783625,4,1,1580908742.66195,1580903939.50652,2930,0.4892533,0,0,3512.849,14,15,1580908730.201193,12456.248487,0,17.20413,97.00343
1580908743.395198,163,0,1580907286.99823,41.20781296037784,29.0754925099451,275.2123,0.1345286,-1,23.46983528137207,200,-9999,12459.19359175,0.9938812255859375,0.1065673828125,-0.1469573974609375,12459.18355175,-1.430814775604906,1.425003782945513,-0.1116810410831883,-0.01879718527197838,-0.03595539927482605,-0.09491783380508423,-0.007752537727355957,-0.00777086615562439,-0.01245772838592529,2,0.3962493747827536,0.5203850918623874,-0.5231238956553756,0.5463765428713403,0.9832274317741394,0.1114490255713463,-0.1443715840578079,21.14350128173828,0.03713226318359375,-26.8857421875,2,12458.420783625,4,1,1580908742.66195,1580903939.50652,2930,0.4892533,0,0,3512.849,14,15,1580908730.201193,12456.248487,0,17.20413,97.00343
