loggingTime,loggingSample,identifierForVendor,locationTimestamp_since1970,locationLatitude,locationLongitude,locationAltitude,locationSpeed,locationCourse,locationVerticalAccuracy,locationHorizontalAccuracy,locationFloor,accelerometerTimestamp_sinceReboot,accelerometerAccelerationX,accelerometerAccelerationY,accelerometerAccelerationZ,motionTimestamp_sinceReboot,motionYaw,motionRoll,motionPitch,motionRotationRateX,motionRotationRateY,motionRotationRateZ,motionUserAccelerationX,motionUserAccelerationY,motionUserAccelerationZ,motionAttitudeReferenceFrame,motionQuaternionX,motionQuaternionY,motionQuaternionZ,motionQuaternionW,motionGravityX,motionGravityY,motionGravityZ,motionMagneticFieldX,motionMagneticFieldY,motionMagneticFieldZ,motionMagneticFieldCalibrationAccuracy,activityTimestamp_sinceReboot,activity,activityActivityConfidence,activityActivityStartDate,pedometerStartDate,pedometerNumberofSteps,pedometerAverageActivePace,pedometerCurrentPace,pedometerCurrentCadence,pedometerDistance,pedometerFloorAscended,pedometerFloorDescended,pedometerEndDate,altimeterTimestamp_sinceReboot,altimeterReset,altimeterRelativeAltitude,altimeterPressure
1580904767.225601,1,0,1580904337.000819,41.20701635159924,29.07533761282497,172.748,-1,-1,5.74967098236084,48.00724964208526,-9999,8482.980691625,0.9749603271484375,0.0907440185546875,-0.1569976806640625,8482.975626625001,0.02296757530965528,1.425337049739798,-0.09057533224008665,-0.000341794453561306,0.02231426909565926,0.008120877668261528,-0.02421236038208008,0.003001689910888672,-0.01423442363739014,2,-0.04175244255020794,0.6527483278616111,-0.02091974165585037,0.7561340293067543,0.9853835701942444,0.09045153856277466,-0.1443527042865753,39.76746368408203,18.17655944824219,27.56298828125,2,8482.170552541667,4,2,1580904766.411719,1580903939.50652,310,0.6342893,0,0,316.4492,1,0,1580904750.097481,8479.795668000001,0,3.125854,97.16679
1580904767.226455,2,0,1580904337.000819,41.20701635159924,29.07533761282497,172.748,-1,-1,5.74967098236084,48.00724964208526,-9999,8482.990732625001,0.968841552734375,0.08978271484375,-0.1605377197265625,8482.985666625,0.02277913905307559,1.425460062445088,-0.09047811201589144,0.004535282962024212,0.01560479588806629,0.00887545570731163,-0.0108569860458374,0.0003519505262374878,-0.01311856508255005,2,-0.04165292881258555,0.6528006180463295,-0.02096177471509941,0.7560932531388169,0.9854100346565247,0.09035471826791763,-0.1442327797412872,39.78144836425781,18.21004295349121,27.61886596679688,2,8482.170552541667,4,2,1580904766.411719,1580903939.50652,310,0.6342893,0,0,316.4492,1,0,1580904750.097481,8479.795668000001,0,3.125854,97.16679
1580904767.227893,3,0,1580904337.000819,41.20701635159924,29.07533761282497,172.748,-1,-1,5.74967098236084,48.00724964208526,-9999,8483.000772625001,0.9702606201171875,0.0891571044921875,-0.1596832275390625,8482.995737625,0.02275872933398514,1.425489045676751,-0.0904161465979124,0.003014084883034229,0.003175554797053337,0.005946777760982513,-0.01698559522628784,-0.0005476251244544983,-0.01668649911880493,2,-0.04162255918896639,0.6528131854190428,-0.02094984608806537,0.7560843621094204,0.9854196906089783,0.09029300510883331,-0.1442050188779831,39.78144836425781,18.21004295349121,27.61886596679688,2,8482.170552541667,4,2,1580904766.411719,1580903939.50652,310,0.6342893,0,0,316.4492,1,0,1580904750.097481,8479.795668000001,0,3.125854,97.16679
1580904767.246009,4,0,1580904337.000819,41.20701635159924,29.07533761282497,172.748,-1,-1,5.74967098236084,48.00724964208526,-9999,8483.010812625,0.9694671630859375,0.089202880859375,-0.16070556640625,8483.005777625,0.02254836851518525,1.425493488446128,-0.09038890909424763,0.00222376361489296,0.002750581130385399,0.002211397513747215,-0.01556956768035889,-0.001146093010902405,-0.01583611965179443,2,-0.04154356162344138,0.6528197592135405,-0.02102056349643468,0.7560810461479563,0.9854227304458618,0.09026587754487991,-0.1442009955644608,39.75406646728516,18.14773941040039,27.50070190429688,2,8482.170552541667,4,2,1580904766.411719,1580903939.50652,310,0.6342893,0,0,316.4492,1,0,1580904750.097481,8479.795668000001,0,3.125854,97.16679
1580904767.248006,5,0,1580904337.000819,41.20701635159924,29.07533761282497,172.748,-1,-1,5.74967098236084,48.00724964208526,-9999,8483.020853625001,0.9709014892578125,0.089874267578125,-0.1601409912109375,8483.015817625001,0.02250324890832524,1.425427004788811,-0.09037651572606119,0.005130071192979813,-0.004688160493969917,-9.037274867296219e-05,-0.01635444164276123,-0.001087941229343414,-0.0167924165725708,2,-0.04152485030238724,0.652795789447783,-0.02103218432745813,0.7561025685076292,0.985414445400238,0.09025353193283081,-0.1442666947841644,39.75406646728516,18.14773941040039,27.50070190429688,2,8482.170552541667,4,2,1580904766.411719,1580903939.50652,310,0.6342893,0,0,316.4492,1,0,1580904750.097481,8479.795668000001,0,3.125854,97.16679
1580904767.257819,6,0,1580904337.000819,41.20701635159924,29.07533761282497,172.748,-1,-1,5.74967098236084,48.00724964208526,-9999,8483.030893625,0.971527099609375,0.0916290283203125,-0.158172607421875,8483.025857625,0.02228615803826931,1.425231462934254,-0.09033201393309805,0.003806558437645435,-0.0179680697619915,0.004291933961212635,-0.01489579677581787,-0.0003722310066223145,-0.01603448390960693,2,-0.04143924612471156,0.6527272122754788,-0.02109566367064472,0.7561646603791206,0.9853901267051697,0.09020921587944031,-0.1444599479436874,39.80469512939453,18.17474174499512,27.65576171875,2,8482.170552541667,4,2,1580904766.411719,1580903939.50652,310,0.6342893,0,0,316.4492,1,0,1580904750.097481,8479.795668000001,0,3.125854,97.16679
1580904767.268124,7,0,1580904337.000819,41.20701635159924,29.07533761282497,172.748,-1,-1,5.74967098236084,48.00724964208526,-9999,8483.040933625001,0.9676055908203125,0.0924224853515625,-0.158599853515625,8483.035898625001,0.02223788403311411,1.424919867125902,-0.09022408225383106,0.006807674653828144,-0.03022207319736481,0.01042732410132885,-0.01423472166061401,0.001490078866481781,-0.01375758647918701,2,-0.04138600363095383,0.6526124434914851,-0.02107220323747822,0.7562672484858882,0.9853546619415283,0.09010171890258789,-0.1447684019804001,39.80469512939453,18.17474174499512,27.65576171875,2,8482.170552541667,4,2,1580904766.411719,1580903939.50652,310,0.6342893,0,0,316.4492,1,0,1580904750.097481,8479.795668000001,0,3.125854,97.16679
1580904767.278036,8,0,1580904337.000819,41.20701635159924,29.07533761282497,172.748,-1,-1,5.74967098236084,48.00724964208526,-9999,8483.050973625001,0.9574127197265625,0.09063720703125,-0.1640777587890625,8483.045938625,0.02201434099733537,1.424598644456414,-0.090051537549314,0.006487304344773293,-0.03348705917596817,0.01753544062376022,-0.01812481880187988,0.002455458045005798,-0.01386570930480957,2,-0.04125125895328111,0.6524988482139734,-0.02109373804736088,0.756372048566197,0.9853234887123108,0.08992987871170044,-0.1450871676206589,40.02452850341797,18.36869049072266,27.47085571289062,2,8482.170552541667,4,2,1580904766.411719,1580903939.50652,310,0.6342893,0,0,316.4492,1,0,1580904750.097481,8479.795668000001,0,3.125854,97.16679
1580904767.288024,9,0,1580904337.000819,41.20701635159924,29.07533761282497,172.748,-1,-1,5.74967098236084,48.00724964208526,-9999,8483.061014625,0.9500732421875,0.084503173828125,-0.1725921630859375,8483.055978625,0.02199426284194737,1.424466877949359,-0.08987433469675481,0.003440648317337036,-0.01363292895257473,0.01769895851612091,-0.02831423282623291,0.0008467510342597961,-0.01921147108078003,2,-0.04117913725142441,0.6524527731986213,-0.0210407423206713,0.7564171397221776,0.9853200316429138,0.08975338935852051,-0.1452193111181259,40.02452850341797,18.36869049072266,27.47085571289062,2,8482.170552541667,4,2,1580904766.411719,1580903939.50652,310,0.6342893,0,0,316.4492,1,0,1580904750.097481,8479.795668000001,0,3.125854,97.16679
1580904767.301697,10,0,1580904337.000819,41.20701635159924,29.07533761282497,172.748,-1,-1,5.74967098236084,48.00724964208526,-9999,8483.071085625001,0.9510650634765625,0.0850372314453125,-0.1739044189453125,8483.066019625001,0.02179672180790046,1.424636759922252,-0.08971889646864484,0.004186377860605717,0.01742790266871452,0.01603818871080875,-0.03569227457046509,-0.005132414400577545,-0.02789121866226196,2,-0.04105416504639062,0.6525240001908432,-0.02106817150862476,0.7563618045954047,0.9853585958480835,0.08959858119487762,-0.145053967833519,39.90864562988281,18.35286521911621,27.41571044921875,2,8482.170552541667,4,2,1580904766.411719,1580903939.50652,310,0.6342893,0,0,316.4492,1,0,1580904750.097481,8479.795668000001,0,3.125854,97.16679
1580904767.308131,11,0,1580904337.000819,41.20701635159924,29.07533761282497,172.748,-1,-1,5.74967098236084,48.00724964208526,-9999,8483.081125625,0.9607391357421875,0.0816497802734375,-0.1691741943359375,8483.076059625,0.02180196266458143,1.425032264008684,-0.08965376446228061,-0.000342060811817646,0.04160407558083534,0.006044943816959858,-0.0347636342048645,-0.004533484578132629,-0.02959275245666504,2,-0.04102710295888198,0.6526746811026423,-0.0210530331659364,0.756233583371872,0.9854215383529663,0.08953370898962021,-0.1446650773286819,39.90864562988281,18.35286521911621,27.41571044921875,2,8482.170552541667,4,2,1580904766.411719,1580903939.50652,310,0.6342893,0,0,316.4492,1,0,1580904750.097481,8479.795668000001,0,3.125854,97.16679
1580904767.318296,12,0,1580904337.000819,41.20701635159924,29.07533761282497,172.748,-1,-1,5.74967098236084,48.00724964208526,-9999,8483.091165625001,0.9727020263671875,0.0855255126953125,-0.1607666015625,8483.086099625001,0.02161140193163681,1.425455493591653,-0.08966812917016093,0.001280777156352997,0.0451674684882164,-0.001908117905259132,-0.02514952421188354,-0.007935233414173126,-0.02527987957000732,2,-0.040965869703521,0.6528383301578485,-0.02113844773050783,0.7560932943187149,0.9854814410209656,0.0895480141043663,-0.144247829914093,40.00965881347656,18.27204513549805,27.35086059570312,2,8482.170552541667,4,2,1580904766.411719,1580903939.50652,310,0.6342893,0,0,316.4492,1,0,1580904750.097481,8479.795668000001,0,3.125854,97.16679
1580904767.328203,13,0,1580904337.000819,41.20701635159924,29.07533761282497,172.748,-1,-1,5.74967098236084,48.00724964208526,-9999,8483.101205625,0.972015380859375,0.08819580078125,-0.15679931640625,8483.096139625,0.02161248971276113,1.425738237833578,-0.0897314039054188,-0.001128850970417261,0.02860154025256634,-0.006834966130554676,-0.01322180032730103,-0.004122555255889893,-0.01715201139450073,2,-0.04098713396910424,0.6529440063993748,-0.02116450875358905,0.7560001476718101,0.9855166077613831,0.08961103856563568,-0.1439683586359024,40.00965881347656,18.27204513549805,27.35086059570312,2,8482.170552541667,4,2,1580904766.411719,1580903939.50652,310,0.6342893,0,0,316.4492,1,0,1580904750.097481,8479.795668000001,0,3.125854,97.16679
1580904767.338337,14,0,1580904337.000819,41.20701635159924,29.07533761282497,172.748,-1,-1,5.74967098236084,48.00724964208526,-9999,8483.111246625,0.965545654296875,0.0905914306640625,-0.1596527099609375,8483.106180625,0.02142321835734436,1.425917417836642,-0.0897935070790479,2.438994124531746e-05,0.01657142862677574,-0.006239419337362051,-0.01392865180969238,-0.001514151692390442,-0.01336216926574707,2,-0.04094689328312646,0.6530144489675217,-0.02126002065803338,0.7559387755767228,0.9855368137359619,0.08967289328575134,-0.1437909603118896,40.06842803955078,18.20127487182617,27.5838623046875,2,8482.170552541667,4,2,1580904766.411719,1580903939.50652,310,0.6342893,0,0,316.4492,1,0,1580904750.097481,8479.795668000001,0,3.125854,97.16679
1580904767.348295,15,0,1580904337.000819,41.20701635159924,29.07533761282497,172.748,-1,-1,5.74967098236084,48.00724964208526,-9999,8483.121286625001,0.962127685546875,0.088958740234375,-0.1645660400390625,8483.116220625001,0.02137801044053,1.42613729244085,-0.08986037513481929,0.003730711527168751,0.02371083199977875,-0.007493767887353897,-0.02042418718338013,0.0008148625493049622,-0.01643317937850952,2,-0.04095504253843909,0.6530972182632321,-0.02130346367569555,0.7558656881658371,0.9855625629425049,0.08973948657512665,-0.1435734182596207,40.06842803955078,18.20127487182617,27.5838623046875,2,8482.170552541667,4,2,1580904766.411719,1580903939.50652,310,0.6342893,0,0,316.4492,1,0,1580904750.097481,8479.795668000001,0,3.125854,97.16679
1580904767.361919,16,0,1580904337.000819,41.20701635159924,29.07533761282497,172.748,-1,-1,5.74967098236084,48.00724964208526,-9999,8483.131326625,0.9670867919921875,0.0875396728515625,-0.1618804931640625,8483.126291625,0.02114677778056727,1.426385053215421,-0.08993240908812848,0.004255701787769794,0.02576340921223164,-0.007299954071640968,-0.02387130260467529,-0.0008895993232727051,-0.02159178256988525,2,-0.04090408262744484,0.6531942374222446,-0.02141947212942384,0.755781283195604,0.9855916500091553,0.08981122821569443,-0.1433282941579819,39.98728179931641,18.11596488952637,27.50677490234375,2,8482.170552541667,4,2,1580904766.411719,1580903939.50652,310,0.6342893,0,0,316.4492,1,0,1580904750.097481,8479.795668000001,0,3.125854,97.16679
1580904767.368348,17,0,1580904337.000819,41.20701635159924,29.07533761282497,172.748,-1,-1,5.74967098236084,48.00724964208526,-9999,8483.141367625001,0.9685821533203125,0.0886077880859375,-0.1605682373046875,8483.136331625001,0.02091098100310023,1.426610862763435,-0.09001663134098527,0.004829879850149155,0.02351303957402706,-0.009262969717383385,-0.01893705129623413,-0.002392590045928955,-0.01912993192672729,2,-0.0408564404294947,0.6532828089311834,-0.02154072619701723,0.7557038784232843,0.9856165647506714,0.08989511430263519,-0.1431046426296234,39.91395568847656,18.60579109191895,27.62838745117188,2,8483.134042625001,2,0,1580904767.375209,1580903939.50652,310,0.6342893,0,0,316.4492,1,0,1580904750.097481,8479.795668000001,0,3.125854,97.16679
1580904767.378444,18,0,1580904337.000819,41.20701635159924,29.07533761282497,172.748,-1,-1,5.74967098236084,48.00724964208526,-9999,8483.151407625001,0.9610137939453125,0.090118408203125,-0.1618499755859375,8483.146371625,0.02087820631320895,1.426812073792412,-0.09007976096002318,0.002598241902887821,0.01977518573403358,-0.006562020629644394,-0.01746493577957153,-0.00138738751411438,-0.01801705360412598,2,-0.04086740018671067,0.6533583328373989,-0.02157787055458193,0.7556368121355627,0.9856395721435547,0.08995798975229263,-0.1429054886102676,39.91395568847656,18.60579109191895,27.62838745117188,2,8483.134042625001,2,0,1580904767.375209,1580903939.50652,310,0.6342893,0,0,316.4492,1,0,1580904750.097481,8480.735812999999,0,3.11264,97.16694
1580904767.388514,19,0,1580904337.000819,41.20701635159924,29.07533761282497,172.748,-1,-1,5.74967098236084,48.00724964208526,-9999,8483.161447625,0.957366943359375,0.0903167724609375,-0.1646575927734375,8483.156412625001,0.02069200123269126,1.427090934066487,-0.09007757386465733,0.0009481469169259071,0.02838145568966866,0.00032065249979496,-0.02507346868515015,0.000125400722026825,-0.01957380771636963,2,-0.04080272508610035,0.6534675216754524,-0.02165319233681452,0.7555438127540833,0.9856796860694885,0.08995580673217773,-0.1426306664943695,39.92086029052734,18.21351432800293,27.60665893554688,2,8483.134042625001,2,0,1580904767.375209,1580903939.50652,310,0.6342893,0,0,316.4492,1,0,1580904750.097481,8480.735812999999,0,3.11264,97.16694
1580904767.399002,20,0,1580904337.000819,41.20701635159924,29.07533761282497,172.748,-1,-1,5.74967098236084,48.00724964208526,-9999,8483.171487625001,0.9526824951171875,0.0890960693359375,-0.1656341552734375,8483.166452625001,0.02069704923523785,1.427496999096345,-0.0900078075925046,0.00112911406904459,0.04102421551942825,0.006277828477323055,-0.02878427505493164,0.0003932863473892212,-0.0227808952331543,2,-0.04077364860701782,0.6536221092634598,-0.02163674708174843,0.7554120708174397,0.9857436418533325,0.08988632261753082,-0.1422313004732132,39.92086029052734,18.21351432800293,27.60665893554688,2,8483.134042625001,2,0,1580904767.375209,1580903939.50652,310,0.6342893,0,0,316.4492,1,0,1580904750.097481,8480.735812999999,0,3.11264,97.16694
1580904767.408548,21,0,1580904337.000819,41.20701635159924,29.07533761282497,172.748,-1,-1,5.74967098236084,48.00724964208526,-9999,8483.181528625,0.955596923828125,0.09039306640625,-0.1640777587890625,8483.176492625,0.02053218710106255,1.42805709862006,-0.08986436676091694,0.0009264471009373665,0.05744820088148117,0.01410139724612236,-0.033561110496521,-0.0006844997406005859,-0.02430802583694458,2,-0.04065956824481177,0.6538396566726266,-0.02166347196955168,0.7552292434213507,0.9858360290527344,0.08974346518516541,-0.1416810005903244,39.87745666503906,18.09604644775391,27.72518920898438,2,8483.134042625001,2,0,1580904767.375209,1580903939.50652,310,0.6342893,0,0,316.4492,1,0,1580904750.097481,8480.735812999999,0,3.11264,97.16694
1580904767.424791,22,0,1580904337.000819,41.20701635159924,29.07533761282497,172.748,-1,-1,5.74967098236084,48.00724964208526,-9999,8483.191568625001,0.9638214111328125,0.0923004150390625,-0.1585845947265625,8483.186533625001,0.02050352038953092,1.428649982636625,-0.08968293325928006,0.006161218509078026,0.06079832091927528,0.01663326472043991,-0.03074675798416138,0.00079326331615448,-0.0233340859413147,2,-0.04057532887966105,0.6540674563069893,-0.02162694565588531,0.7550376081310696,0.9859359860420227,0.08956275880336761,-0.1410988122224808,39.87745666503906,18.09604644775391,27.72518920898438,2,8483.134042625001,2,0,1580904767.375209,1580903939.50652,310,0.6342893,0,0,316.4492,1,0,1580904750.097481,8480.735812999999,0,3.11264,97.16694
1580904767.429165,23,0,1580904337.000819,41.20701635159924,29.07533761282497,172.748,-1,-1,5.74967098236084,48.00724964208526,-9999,8483.201639625,0.9734954833984375,0.088470458984375,-0.154754638671875,8483.196573625,0.02028329193910265,1.42912314478593,-0.08950538119581199,0.007800128310918808,0.04853552952408791,0.01717628352344036,-0.02260476350784302,0.002877503633499146,-0.01830565929412842,2,-0.04043120827699673,0.6542538213514901,-0.02166153014099513,0.7548827518787126,0.9860182404518127,0.08938591927289963,-0.1406345069408417,39.85874176025391,18.00236892700195,27.78781127929688,2,8483.134042625001,2,0,1580904767.375209,1580903939.50652,310,0.6342893,0,0,316.4492,1,0,1580904750.097481,8480.735812999999,0,3.11264,97.16694
1580904767.438834,24,0,1580904337.000819,41.20701635159924,29.07533761282497,172.748,-1,-1,5.74967098236084,48.00724964208526,-9999,8483.211679625001,0.976348876953125,0.08740234375,-0.1527557373046875,8483.206613625001,0.02023018908770128,1.429425308061275,-0.08936332399578439,0.006094574928283691,0.03141521662473679,0.01305089611560106,-0.01298582553863525,-0.0008109062910079956,-0.01477187871932983,2,-0.04035699012308903,0.6543715520056547,-0.02164114667837812,0.7547853563156409,0.98607337474823,0.08924443274736404,-0.1403383761644363,39.85874176025391,18.00236892700195,27.78781127929688,2,8483.134042625001,2,0,1580904767.375209,1580903939.50652,310,0.6342893,0,0,316.4492,1,0,1580904750.097481,8480.735812999999,0,3.11264,97.16694
1580904767.44874,25,0,1580904337.000819,41.20701635159924,29.07533761282497,172.748,-1,-1,5.74967098236084,48.00724964208526,-9999,8483.221719625,0.9721832275390625,0.087921142578125,-0.155975341796875,8483.216653625001,0.01998469831173398,1.429588529591063,-0.08924989408527857,0.007770235650241375,0.01650338061153889,0.01023806538432837,-0.01016533374786377,-0.00176597386598587,-0.01293253898620605,2,-0.04023212369772582,0.6544401844148338,-0.02169992557420236,0.7547308192565904,0.986106276512146,0.08913145214319229,-0.140178844332695,40.01319122314453,18.31164932250977,27.61248779296875,2,8483.134042625001,2,0,1580904767.375209,1580903939.50652,310,0.6342893,0,0,316.4492,1,0,1580904750.097481,8480.735812999999,0,3.11264,97.16694
1580904767.458877,26,0,1580904337.000819,41.20701635159924,29.07533761282497,172.748,-1,-1,5.74967098236084,48.00724964208526,-9999,8483.231760625,0.962921142578125,0.0847320556640625,-0.161712646484375,8483.226694625,0.01992903863374739,1.429756036387451,-0.089174947283624,0.00759233720600605,0.01588286645710468,0.007194072939455509,-0.01436120271682739,-0.001172535121440887,-0.01631677150726318,2,-0.04018383476160078,0.6545058986768544,-0.02169975190447405,0.7546762810220164,0.9861361980438232,0.08905680477619171,-0.140014573931694,40.01319122314453,18.31164932250977,27.61248779296875,2,8483.134042625001,2,0,1580904767.375209,1580903939.50652,310,0.6342893,0,0,316.4492,1,0,1580904750.097481,8480.735812999999,0,3.11264,97.16694
1580904767.46894,27,0,1580904337.000819,41.20701635159924,29.07533761282497,172.748,-1,-1,5.74967098236084,48.00724964208526,-9999,8483.241800625001,0.954376220703125,0.08428955078125,-0.165863037109375,8483.236734625001,0.01970632689455406,1.430101414345002,-0.08911773946579485,0.006722548976540565,0.03498198837041855,0.00490908045321703,-0.02367669343948364,-0.004304602742195129,-0.02239400148391724,2,-0.0400856214006694,0.6546417283163007,-0.02177196930066165,0.7545616508399701,0.986189603805542,0.08899982273578644,-0.1396747082471848,40.05865478515625,18.23316383361816,27.64105224609375,2,8483.134042625001,2,0,1580904767.375209,1580903939.50652,310,0.6342893,0,0,316.4492,1,0,1580904750.097481,8480.735812999999,0,3.11264,97.16694
1580904767.487059,28,0,1580904337.000819,41.20701635159924,29.07533761282497,172.748,-1,-1,5.74967098236084,48.00724964208526,-9999,8483.251840625,0.9489593505859375,0.081390380859375,-0.1690216064453125,8483.246774625,0.0197111636615901,1.430737774403876,-0.08905902954608223,-0.0001584808342158794,0.06529559940099716,0.006127866916358471,-0.03231549263000488,-0.00468861311674118,-0.0271715521812439,2,-0.04005814867797661,0.6548827605907358,-0.02176365511216961,0.7543541621919259,0.9862834215164185,0.08894135057926178,-0.1390478312969208,40.05865478515625,18.23316383361816,27.64105224609375,2,8483.134042625001,2,0,1580904767.375209,1580903939.50652,310,0.6342893,0,0,316.4492,1,0,1580904750.097481,8480.735812999999,0,3.11264,97.16694
1580904767.489156,29,0,1580904337.000819,41.20701635159924,29.07533761282497,172.748,-1,-1,5.74967098236084,48.00724964208526,-9999,8483.261880625001,0.9616241455078125,0.085693359375,-0.160919189453125,8483.256845625001,0.01956885511725184,1.431565890039101,-0.0890296264718317,-0.003965735901147127,0.08397340774536133,0.003688943572342396,-0.0378497838973999,-0.007558479905128479,-0.03114694356918335,2,-0.03999143616207228,0.655198437056434,-0.02182425411503722,0.7540817770298165,0.986400842666626,0.08891206234693527,-0.1382313817739487,39.99310302734375,18.17991828918457,27.69830322265625,2,8483.134042625001,2,0,1580904767.375209,1580903939.50652,310,0.6342893,0,0,316.4492,1,0,1580904750.097481,8480.735812999999,0,3.11264,97.16694
1580904767.49903,30,0,1580904337.000819,41.20701635159924,29.07533761282497,172.748,-1,-1,5.74967098236084,48.00724964208526,-9999,8483.271921625001,0.970062255859375,0.09136962890625,-0.1533660888671875,8483.266885625,0.01957022475689192,1.432336691960312,-0.08901638381875034,-0.0002528568729758263,0.07734926044940948,0.001594129018485546,-0.02529251575469971,-0.003242313861846924,-0.02380502223968506,2,-0.03997848289276064,0.6554892244613265,-0.02183480263724315,0.7538294427157449,0.986508309841156,0.08889886736869812,-0.1374711990356445,39.99310302734375,18.17991828918457,27.69830322265625,2,8483.134042625001,2,0,1580904767.375209,1580903939.50652,310,0.6342893,0,0,316.4492,1,0,1580904750.097481,8480.735812999999,0,3.11264,97.16694
1580904767.509068,31,0,1580904337.000819,41.20701635159924,29.07533761282497,172.748,-1,-1,5.74967098236084,48.00724964208526,-9999,8483.281961625,0.97869873046875,0.087249755859375,-0.149688720703125,8483.276926625,0.01936424576722869,1.432937918934169,-0.08903008495130772,0.004148283042013645,0.06162755563855171,-0.001963321585208178,-0.01693588495254517,0.002420291304588318,-0.01684564352035522,2,-0.0399095447652083,0.6557196723980461,-0.0219289345268021,0.7536298691950174,0.9865894913673401,0.08891251683235168,-0.1368778795003891,39.80072784423828,18.08809280395508,27.8358154296875,2,8483.134042625001,2,0,1580904767.375209,1580903939.50652,310,0.6342893,0,0,316.4492,1,0,1580904750.097481,8480.735812999999,0,3.11264,97.16694
1580904767.519109,32,0,1580904337.000819,41.20701635159924,29.07533761282497,172.748,-1,-1,5.74967098236084,48.00724964208526,-9999,8483.292001625001,0.97930908203125,0.086029052734375,-0.1478118896484375,8483.286966625001,0.01936523844493831,1.433306002302023,-0.08909160670059495,-0.001556004397571087,0.03672472015023232,-0.007527839858084917,-0.008344471454620361,-0.001760900020599365,-0.01353240013122559,2,-0.0399289935789882,0.6558572102829621,-0.02195609528821842,0.7535084564855925,0.9866345524787903,0.08897379785776138,-0.1365139931440353,39.80072784423828,18.08809280395508,27.8358154296875,2,8483.134042625001,2,0,1580904767.375209,1580903939.50652,310,0.6342893,0,0,316.4492,1,0,1580904750.097481,8480.735812999999,0,3.11264,97.16694
1580904767.529186,33,0,1580904337.000819,41.20701635159924,29.07533761282497,172.748,-1,-1,5.74967098236084,48.00724964208526,-9999,8483.302042625,0.9659881591796875,0.086456298828125,-0.1560821533203125,8483.297006625,0.01923166822531298,1.433595432673007,-0.08914943977251517,-0.005144880153238773,0.02830327302217484,-0.005760299973189831,-0.007768392562866211,-0.003039225935935974,-0.01194190979003906,2,-0.0399037773880998,0.6559678602920291,-0.02203117950725816,0.7534112254410311,0.9866688251495361,0.0890313982963562,-0.1362277120351791,39.89198303222656,18.14513778686523,27.83880615234375,2,8483.134042625001,2,0,1580904767.375209,1580903939.50652,310,0.6342893,0,0,316.4492,1,0,1580904750.097481,8480.735812999999,0,3.11264,97.16694
1580904767.554793,34,0,1580904337.000819,41.20701635159924,29.07533761282497,172.748,-1,-1,5.74967098236084,48.00724964208526,-9999,8483.312082625,0.9604339599609375,0.0868377685546875,-0.1591796875,8483.307046625001,0.01931072376084991,1.433977138627167,-0.08916847020449585,-0.007972686551511288,0.03798788785934448,-0.001780559308826923,-0.02113980054855347,-0.002630963921546936,-0.02058941125869751,2,-0.03993266957435444,0.6561097172066538,-0.02201527079621242,0.7532865733339273,0.986719012260437,0.08905035257339478,-0.1358508467674255,39.89198303222656,18.14513778686523,27.83880615234375,2,8483.134042625001,2,0,1580904767.375209,1580903939.50652,310,0.6342893,0,0,316.4492,1,0,1580904750.097481,8480.735812999999,0,3.11264,97.16694
1580904767.556073,35,0,1580904337.000819,41.20701635159924,29.07533761282497,172.748,-1,-1,5.74967098236084,48.00724964208526,-9999,8483.322122625001,0.9554595947265625,0.0896453857421875,-0.159149169921875,8483.317087625001,0.01926981398061758,1.434490336970842,-0.08908288657405825,-0.01234266720712185,0.05152153968811035,0.01040393486618996,-0.02677100896835327,-0.002164199948310852,-0.02419227361679077,2,-0.03988139017646203,0.6563053623303299,-0.02201280543658643,0.7531190004033453,0.9867962598800659,0.08896511048078537,-0.1353454887866974,39.8690185546875,18.14471054077148,27.7347412109375,2,8483.134042625001,2,0,1580904767.375209,1580903939.50652,310,0.6342893,0,0,316.4492,1,0,1580904750.097481,8480.735812999999,0,3.11264,97.16694
1580904767.55936,36,0,1580904337.000819,41.20701635159924,29.07533761282497,172.748,-1,-1,5.74967098236084,48.00724964208526,-9999,8483.332193625001,0.953338623046875,0.091705322265625,-0.15875244140625,8483.327127625,0.01938681560910284,1.435149402676622,-0.08890057001619246,-0.009143275208771229,0.06715656816959381,0.0199839286506176,-0.03185057640075684,0.0008250772953033447,-0.02481043338775635,2,-0.039843961990873,0.6565545060843171,-0.02192199470917079,0.7529063750953927,0.9869012236595154,0.08878351747989655,-0.1346972733736038,39.8690185546875,18.14471054077148,27.7347412109375,2,8483.134042625001,2,0,1580904767.375209,1580903939.50652,310,0.6342893,0,0,316.4492,1,0,1580904750.097481,8480.735812999999,0,3.11264,97.16694
1580904767.569719,37,0,1580904337.000819,41.20701635159924,29.07533761282497,172.748,-1,-1,5.74967098236084,48.00724964208526,-9999,8483.342233625001,0.96746826171875,0.0899200439453125,-0.1528167724609375,8483.337167625001,0.01926066231395979,1.43587517468476,-0.08869221504568707,-0.002191359642893076,0.07592369616031647,0.02166864462196827,-0.0340876579284668,0.00309261679649353,-0.02512800693511963,2,-0.0397162212514893,0.6568339904747069,-0.02191543406632153,0.7526694988181061,0.987017035484314,0.08857598155736923,-0.1339834630489349,39.87448120117188,18.25555419921875,27.8819580078125,2,8483.134042625001,2,0,1580904767.375209,1580903939.50652,310,0.6342893,0,0,316.4492,1,0,1580904750.097481,8480.735812999999,0,3.11264,97.16694
1580904767.579278,38,0,1580904337.000819,41.20701635159924,29.07533761282497,172.748,-1,-1,5.74967098236084,48.00724964208526,-9999,8483.352273625,0.9808197021484375,0.0882110595703125,-0.1458282470703125,8483.347208625,0.01924032070317473,1.436442591618898,-0.08852204909587269,0.004570926539599895,0.0577089823782444,0.01758481189608574,-0.02004879713058472,0.00147692859172821,-0.01975041627883911,2,-0.03963934129601824,0.6570509912675319,-0.02187838862123391,0.7524853657600701,0.9871079921722412,0.08840648084878922,-0.1334254294633865,39.87448120117188,18.25555419921875,27.8819580078125,2,8483.134042625001,2,0,1580904767.375209,1580903939.50652,310,0.6342893,0,0,316.4492,1,0,1580904750.097481,8480.735812999999,0,3.11264,97.16694
1580904767.589522,39,0,1580904337.000819,41.20701635159924,29.07533761282497,172.748,-1,-1,5.74967098236084,48.00724964208526,-9999,8483.362314625001,0.988189697265625,0.0851898193359375,-0.142730712890625,8483.357248625001,0.01900956584660338,1.4367689184393,-0.08845464352761376,0.006635676138103008,0.03448515385389328,0.006454131565988064,-0.006746828556060791,-0.000164911150932312,-0.01308363676071167,2,-0.0395346120827038,0.6571795652514274,-0.02194950302459379,0.7523763057668893,0.9871571660041809,0.08833934366703033,-0.13310407102108,39.82266235351562,18.11433410644531,27.88848876953125,2,8483.134042625001,2,0,1580904767.375209,1580903939.50652,310,0.6342893,0,0,316.4492,1,0,1580904750.097481,8480.735812999999,0,3.11264,97.16694
1580904767.617854,40,0,1580904337.000819,41.20701635159924,29.07533761282497,172.748,-1,-1,5.74967098236084,48.00724964208526,-9999,8483.372354625,0.988861083984375,0.0833740234375,-0.142578125,8483.367288625001,0.01895662108037299,1.436811368394025,-0.08851996045677249,0.004373976960778236,0.004500735551118851,-0.007413811050355434,0.0006233453750610352,-0.003251209855079651,-0.01002848148345947,2,-0.03954129932708537,0.6571953859870576,-0.0219917347690145,0.7523610710870424,0.9871572852134705,0.08840440213680267,-0.1330614238977432,39.82266235351562,18.11433410644531,27.88848876953125,2,8483.134042625001,2,0,1580904767.375209,1580903939.50652,310,0.6342893,0,0,316.4492,1,0,1580904750.097481,8480.735812999999,0,3.11264,97.16694
1580904767.620436,41,0,1580904337.000819,41.20701635159924,29.07533761282497,172.748,-1,-1,5.74967098236084,48.00724964208526,-9999,8483.382394625001,0.984161376953125,0.0848846435546875,-0.14239501953125,8483.377328625,0.01875284918984932,1.43656693286498,-0.08868196925478963,0.001133709214627743,-0.02551655098795891,-0.01724220812320709,0.001341640949249268,-0.005228444933891296,-0.009636461734771729,2,-0.03953794506001562,0.6571045303392763,-0.02211684950269165,0.7524368184291683,0.9871103763580322,0.08856577426195145,-0.13330078125,39.81814575195312,18.06208419799805,27.95880126953125,2,8483.134042625001,2,0,1580904767.375209,1580903939.50652,310,0.6342893,0,0,316.4492,1,0,1580904750.097481,8480.735812999999,0,3.11264,97.16694
1580904767.621931,42,0,1580904337.000819,41.20701635159924,29.07533761282497,172.748,-1,-1,5.74967098236084,48.00724964208526,-9999,8483.392435625001,0.97369384765625,0.0878753662109375,-0.1488800048828125,8483.387399625,0.01874316839629449,1.436155777414138,-0.0888733228862105,-0.001163426786661148,-0.03862398117780685,-0.01978221908211708,-0.003286302089691162,-0.003908514976501465,-0.009049713611602783,2,-0.03961126334752282,0.656946561246747,-0.02217528212034452,0.7525690868327184,0.9870385527610779,0.08875637501478195,-0.1337043195962906,39.81814575195312,18.06208419799805,27.95880126953125,2,8483.134042625001,2,0,1580904767.375209,1580903939.50652,310,0.6342893,0,0,316.4492,1,0,1580904750.097481,8480.735812999999,0,3.11264,97.16694
1580904767.629611,43,0,1580904337.000819,41.20701635159924,29.07533761282497,172.748,-1,-1,5.74967098236084,48.00724964208526,-9999,8483.402475625,0.96551513671875,0.0908050537109375,-0.1513214111328125,8483.397440625,0.01856775260594889,1.435638536583349,-0.08903284053840643,-0.002329891081899405,-0.05186841264367104,-0.01599493622779846,-0.01367038488388062,-0.001076720654964447,-0.01502567529678345,2,-0.03961938708675728,0.6567524848215087,-0.02228348457248421,0.7527349469785791,0.9869554042816162,0.08891525864601135,-0.1342129558324814,40.03882598876953,18.2293586730957,27.92523193359375,2,8483.134042625001,2,0,1580904767.375209,1580903939.50652,310,0.6342893,0,0,316.4492,1,0,1580904750.097481,8480.735812999999,0,3.11264,97.16694
1580904767.639705,44,0,1580904337.000819,41.20701635159924,29.07533761282497,172.748,-1,-1,5.74967098236084,48.00724964208526,-9999,8483.412515625001,0.95703125,0.0933074951171875,-0.1536865234375,8483.407480625001,0.01855419002973592,1.435139590647072,-0.08910547051237883,8.910475298762321e-05,-0.04765895754098892,-0.007283378392457962,-0.02177566289901733,0.001780569553375244,-0.01697546243667603,2,-0.03964781498218686,0.6565636324302326,-0.02230257334943811,0.7528975701984332,0.9868818521499634,0.08898760378360748,-0.1347045004367828,40.03882598876953,18.2293586730957,27.92523193359375,2,8483.134042625001,2,0,1580904767.375209,1580903939.50652,310,0.6342893,0,0,316.4492,1,0,1580904750.097481,8480.735812999999,0,3.11264,97.16694
1580904767.649566,45,0,1580904337.000819,41.20701635159924,29.07533761282497,172.748,-1,-1,5.74967098236084,48.00724964208526,-9999,8483.422555625,0.95428466796875,0.0954742431640625,-0.1551666259765625,8483.417520625,0.0183322484932486,1.434708885978213,-0.08906586246200264,0.005825021304190159,-0.03979597240686417,0.002558067440986633,-0.03020495176315308,0.00432247668504715,-0.01891499757766724,2,-0.03956487299319706,0.6564065924430607,-0.02236458872738281,0.753036997479213,0.9868271946907043,0.08894815295934677,-0.1351300179958344,39.85197448730469,18.11429595947266,27.82196044921875,2,8483.134042625001,2,0,1580904767.375209,1580903939.50652,310,0.6342893,0,0,316.4492,1,0,1580904750.097481,8480.735812999999,0,3.11264,97.16694
1580904767.682055,46,0,1580904337.000819,41.20701635159924,29.07533761282497,172.748,-1,-1,5.74967098236084,48.00724964208526,-9999,8483.432596625,0.9544677734375,0.09222412109375,-0.1561279296875,8483.427560625001,0.01822566355542236,1.434329770624412,-0.08892362626060515,0.01275451295077801,-0.0375731959939003,0.01307930052280426,-0.03291255235671997,0.006630972027778625,-0.02001887559890747,2,-0.03948061093992684,0.6562685052868353,-0.02235050598041925,0.7531622770212926,0.9867885112762451,0.08880648016929626,-0.1355058550834656,39.85197448730469,18.11429595947266,27.82196044921875,2,8483.134042625001,2,0,1580904767.375209,1580903939.50652,310,0.6342893,0,0,316.4492,1,0,1580904750.097481,8480.735812999999,0,3.11264,97.16694
1580904767.68429,47,0,1580904337.000819,41.20701635159924,29.07533761282497,172.748,-1,-1,5.74967098236084,48.00724964208526,-9999,8483.442636625001,0.9558868408203125,0.089019775390625,-0.15850830078125,8483.437601625001,0.01792628693300386,1.434082167274578,-0.08871632861994613,0.01527173258364201,-0.02261342108249664,0.01843678206205368,-0.03271406888961792,0.003587424755096436,-0.02073311805725098,2,-0.03930713672358386,0.6561848819242309,-0.02239029353279372,0.7532430517476173,0.9867731928825378,0.08860000222921371,-0.1357526928186417,39.79597473144531,18.15173149108887,27.8162841796875,2,8483.134042625001,2,0,1580904767.375209,1580903939.50652,310,0.6342893,0,0,316.4492,1,0,1580904750.097481,8480.735812999999,0,3.11264,97.16694
1580904767.685988,48,0,1580904337.000819,41.20701635159924,29.07533761282497,172.748,-1,-1,5.74967098236084,48.00724964208526,-9999,8483.452676625,0.953369140625,0.0877685546875,-0.160797119140625,8483.447641625,0.0178227822605426,1.433984323468257,-0.08846125192091067,0.01347601506859064,-0.01071099750697613,0.02378653734922409,-0.03130418062210083,0.0006372630596160889,-0.02301383018493652,2,-0.03917826947383515,0.6561546315309537,-0.02234359402329569,0.753277498331019,0.9867822527885437,0.08834592252969742,-0.1358523219823837,39.79597473144531,18.15173149108887,27.8162841796875,2,8483.134042625001,2,0,1580904767.375209,1580903939.50652,310,0.6342893,0,0,316.4492,1,0,1580904750.097481,8480.735812999999,0,3.11264,97.16694
1580904767.689996,49,0,1580904337.000819,41.20701635159924,29.07533761282497,172.748,-1,-1,5.74967098236084,48.00724964208526,-9999,8483.462747625001,0.951751708984375,0.08209228515625,-0.16534423828125,8483.457681625001,0.01756763854178459,1.434180897563485,-0.08822638138464821,0.01048981118947268,0.02179634757339954,0.021453607827425,-0.03386908769607544,-0.0003799200057983398,-0.02549397945404053,2,-0.03900396282642517,0.656237842787329,-0.02236639935591,0.7532133771044394,0.9868294596672058,0.08811196684837341,-0.1356611698865891,39.91815185546875,18.15955352783203,27.78872680664062,2,8483.134042625001,2,0,1580904767.375209,1580903939.50652,310,0.6342893,0,0,316.4492,1,0,1580904750.097481,8480.735812999999,0,3.11264,97.16694
1580904767.700304,50,0,1580904337.000819,41.20701635159924,29.07533761282497,172.748,-1,-1,5.74967098236084,48.00724964208526,-9999,8483.472787625,0.9602508544921875,0.0849609375,-0.1600799560546875,8483.467721625,0.01749850315772839,1.434592493542832,-0.08801738073688356,0.009710349142551422,0.04361969232559204,0.01934394612908363,-0.03556060791015625,-0.005847930908203125,-0.03044509887695312,2,-0.0388980257871663,0.6563979045552084,-0.02233180659884171,0.7530803359974685,0.9869033694267273,0.08790377527475357,-0.1352574676275253,39.91815185546875,18.15955352783203,27.78872680664062,2,8483.134042625001,2,0,1580904767.375209,1580903939.50652,310,0.6342893,0,0,316.4492,1,0,1580904750.097481,8480.735812999999,0,3.11264,97.16694
1580904767.710062,51,0,1580904337.000819,41.20701635159924,29.07533761282497,172.748,-1,-1,5.74967098236084,48.00724964208526,-9999,8483.482828625001,0.9703216552734375,0.086669921875,-0.1528778076171875,8483.477762625,0.01725320328672749,1.435061112845495,-0.08784358492643315,0.008897285908460617,0.04894015192985535,0.01627252250909805,-0.02714002132415771,-0.00280606746673584,-0.02564144134521484,2,-0.03874687844180297,0.6565821793533548,-0.02237615998885557,0.7529261835741348,0.9869818091392517,0.08773065358400345,-0.1347970366477966,39.82405853271484,18.10099029541016,27.855224609375,2,8483.134042625001,2,0,1580904767.375209,1580903939.50652,310,0.6342893,0,0,316.4492,1,0,1580904750.097481,8480.735812999999,0,3.11264,97.16694
1580904767.748686,52,0,1580904337.000819,41.20701635159924,29.07533761282497,172.748,-1,-1,5.74967098236084,48.00724964208526,-9999,8483.492868625,0.986572265625,0.0844573974609375,-0.145965576171875,8483.487802625001,0.01714325455268473,1.435393296111287,-0.08774970972709678,0.01231909450143576,0.03814398124814034,0.008173365145921707,-0.01712208986282349,-0.001003533601760864,-0.01876616477966309,2,-0.0386717465439912,0.6567110082623753,-0.02239312772166428,0.7528172246335264,0.9870347380638123,0.08763714134693146,-0.1344702988862991,39.82405853271484,18.10099029541016,27.855224609375,2,8483.134042625001,2,0,1580904767.375209,1580903939.50652,310,0.6342893,0,0,316.4492,1,0,1580904750.097481,8480.735812999999,0,3.11264,97.16694
1580904767.750737,53,0,1580904337.000819,41.20701635159924,29.07533761282497,172.748,-1,-1,5.74967098236084,48.00724964208526,-9999,8483.502908625,0.9937896728515625,0.0844879150390625,-0.1382904052734375,8483.497842625,0.01685114118550441,1.435328861396446,-0.08777994413410491,0.01188340131193399,-0.003929436206817627,-0.005455628968775272,-0.0008603930473327637,-0.003246217966079712,-0.01179099082946777,2,-0.03858792839374033,0.6566918684578879,-0.0225117777931426,0.7528346090777798,0.9870233535766602,0.08766725659370422,-0.1345335245132446,39.7442626953125,17.8263053894043,27.75274658203125,2,8483.134042625001,2,0,1580904767.375209,1580903939.50652,310,0.6342893,0,0,316.4492,1,0,1580904750.097481,8480.735812999999,0,3.11264,97.16694
1580904767.75212,54,0,1580904337.000819,41.20701635159924,29.07533761282497,172.748,-1,-1,5.74967098236084,48.00724964208526,-9999,8483.512949625001,0.980377197265625,0.0890960693359375,-0.142181396484375,8483.507883625001,0.01671609368941257,1.434879253140663,-0.08785047598363714,0.01304125227034092,-0.04542151838541031,-0.008319951593875885,0.006423830986022949,-0.003286004066467285,-0.003672599792480469,2,-0.03857519473532917,0.656523976435909,-0.02257711907714618,0.7529797231184527,0.9869566559791565,0.08773751556873322,-0.1349764466285706,39.7442626953125,17.8263053894043,27.75274658203125,2,8483.134042625001,2,0,1580904767.375209,1580903939.50652,310,0.6342893,0,0,316.4492,1,0,1580904750.097481,8480.735812999999,0,3.11264,97.16694
1580904767.753261,55,0,1580904337.000819,41.20701635159924,29.07533761282497,172.748,-1,-1,5.74967098236084,48.00724964208526,-9999,8483.522989625,0.9586639404296875,0.0943756103515625,-0.15338134765625,8483.517953625,0.0163660471409734,1.434312902206755,-0.08789214084172572,0.01876917853951454,-0.05589732527732849,-0.006241087801754475,-0.006908714771270752,0.001280605792999268,-0.007005214691162109,2,-0.03848239630107687,0.6563167361647919,-0.02271169874192425,0.753161089023493,0.9868764281272888,0.08777902275323868,-0.1355348974466324,39.55044555664062,17.88937187194824,27.93539428710938,2,8483.134042625001,2,0,1580904767.375209,1580903939.50652,310,0.6342893,0,0,316.4492,1,0,1580904750.097481,8480.735812999999,0,3.11264,97.16694
1580904767.760224,56,0,1580904337.000819,41.20701635159924,29.07533761282497,172.748,-1,-1,5.74967098236084,48.00724964208526,-9999,8483.533029625001,0.9504547119140625,0.089324951171875,-0.161590576171875,8483.527994625001,0.0161514921883329,1.433894476468208,-0.08784615296508336,0.02253590524196625,-0.03954233229160309,0.001746590249240398,-0.02856916189193726,0.006605997681617737,-0.01779145002365112,2,-0.03839944536739645,0.656164080251107,-0.02276935965084154,0.7532965661347674,0.9868236184120178,0.08773320913314819,-0.1359483599662781,39.55044555664062,17.88937187194824,27.93539428710938,2,8483.134042625001,2,0,1580904767.375209,1580903939.50652,310,0.6342893,0,0,316.4492,1,0,1580904750.097481,8480.735812999999,0,3.11264,97.16694
1580904767.770141,57,0,1580904337.000819,41.20701635159924,29.07533761282497,172.748,-1,-1,5.74967098236084,48.00724964208526,-9999,8483.543069625,0.9415283203125,0.085601806640625,-0.164459228515625,8483.538034625,0.01581416280150084,1.433747456131962,-0.08767948700797296,0.01818190328776836,-0.01360953785479069,0.01399526745080948,-0.03677284717559814,0.001721419394016266,-0.02585357427597046,2,-0.03822771621761914,0.6561180711545557,-0.02283888084137978,0.7533432393646223,0.9868180751800537,0.08756718784570694,-0.1360954344272614,39.76300048828125,18.18081855773926,27.8543701171875,2,8483.134042625001,2,0,1580904767.375209,1580903939.50652,310,0.6342893,0,0,316.4492,1,0,1580904750.097481,8480.735812999999,0,3.11264,97.16694
1580904767.794724,58,0,1580904337.000819,41.20701635159924,29.07533761282497,172.748,-1,-1,5.74967098236084,48.00724964208526,-9999,8483.553110625,0.9341278076171875,0.0936431884765625,-0.1663665771484375,8483.548074625001,0.01568267152359058,1.433963919258484,-0.08731555832702062,0.01699297502636909,0.02345727011561394,0.03496406972408295,-0.04576027393341064,-0.001639023423194885,-0.02893155813217163,2,-0.03804511381957264,0.656208412172942,-0.02277303825096759,0.753275877628059,0.9868791103363037,0.08720465004444122,-0.1358861774206161,39.76300048828125,18.18081855773926,27.8543701171875,2,8483.134042625001,2,0,1580904767.375209,1580903939.50652,310,0.6342893,0,0,316.4492,1,0,1580904750.097481,8480.735812999999,0,3.11264,97.16694
1580904767.796156,59,0,1580904337.000819,41.20701635159924,29.07533761282497,172.748,-1,-1,5.74967098236084,48.00724964208526,-9999,8483.563150625001,0.9268951416015625,0.0979766845703125,-0.166656494140625,8483.558115625001,0.01535672875128342,1.434608044961264,-0.0867126815447188,0.02216057293117046,0.06597809493541718,0.05854529514908791,-0.05330020189285278,0.007003188133239746,-0.0314679741859436,2,-0.03770392519785337,0.656467538528388,-0.02270998791973274,0.7530690189872773,0.9870182275772095,0.08660405874252319,-0.1352575719356537,39.81382751464844,18.04926109313965,27.82525634765625,2,8483.134042625001,2,0,1580904767.375209,1580903939.50652,310,0.6342893,0,0,316.4492,1,0,1580904750.097481,8480.735812999999,0,3.11264,97.16694
1580904767.800625,60,0,1580904337.000819,41.20701635159924,29.07533761282497,172.748,-1,-1,5.74967098236084,48.00724964208526,-9999,8483.573190625,0.929229736328125,0.0986175537109375,-0.165802001953125,8483.568155625,0.01508621709774808,1.435678312168532,-0.08591371370790533,0.03832730650901794,0.1088635474443436,0.07634493708610535,-0.0607452392578125,0.01213300973176956,-0.03280526399612427,2,-0.03730239122241869,0.6568891255730258,-0.02256935582392867,0.7527256494318483,0.9872307777404785,0.08580806106328964,-0.1342104226350784,39.81382751464844,18.04926109313965,27.82525634765625,2,8483.134042625001,2,0,1580904767.375209,1580903939.50652,310,0.6342893,0,0,316.4492,1,0,1580904750.097481,8480.735812999999,0,3.11264,97.16694
1580904767.810315,61,0,1580904337.000819,41.20701635159924,29.07533761282497,172.748,-1,-1,5.74967098236084,48.00724964208526,-9999,8483.583231625,0.93988037109375,0.0965423583984375,-0.1638946533203125,8483.578195625001,0.01453474051623502,1.43714685058443,-0.08500206814419303,0.04935519024729729,0.1525969058275223,0.08699518442153931,-0.05868428945541382,0.01368255168199539,-0.03339129686355591,2,-0.03676182346324553,0.6574672211116734,-0.02250426602507774,0.7522492599111603,0.9875038862228394,0.08489974588155746,-0.132770836353302,39.68446350097656,17.82000350952148,27.6614990234375,2,8483.134042625001,2,0,1580904767.375209,1580903939.50652,310,0.6342893,0,0,316.4492,1,0,1580904750.097481,8480.735812999999,0,3.11264,97.16694
1580904767.820576,62,0,1580904337.000819,41.20701635159924,29.07533761282497,172.748,-1,-1,5.74967098236084,48.00724964208526,-9999,8483.593301625,0.9716033935546875,0.0839385986328125,-0.150115966796875,8483.588235625,0.01403642935095593,1.438769805270699,-0.08418219725593337,0.06047157198190689,0.1700786948204041,0.07289823144674301,-0.0483165979385376,0.01242463290691376,-0.03307837247848511,2,-0.03627159055159005,0.6581001567778085,-0.02245142542908556,0.7517209787966381,0.9877867102622986,0.08408280462026596,-0.1311771124601364,39.68446350097656,17.82000350952148,27.6614990234375,2,8483.134042625001,2,0,1580904767.375209,1580903939.50652,310,0.6342893,0,0,316.4492,1,0,1580904750.097481,8480.735812999999,0,3.11264,97.16694
1580904767.830464,63,0,1580904337.000819,41.20701635159924,29.07533761282497,172.748,-1,-1,5.74967098236084,48.00724964208526,-9999,8483.603342625,0.9903564453125,0.065765380859375,-0.1434173583984375,8483.598276625,0.01338262075716248,1.440197386886122,-0.08352034856385437,0.05830375850200653,0.1457022428512573,0.05891317129135132,-0.01683497428894043,0.0004806742072105408,-0.02070337533950806,2,-0.03579175792308478,0.6586591822059369,-0.02250478850525341,0.7512527035107054,0.9880279898643494,0.08342327922582626,-0.1297740638256073,39.69697570800781,17.92375755310059,27.8914794921875,2,8483.134042625001,2,0,1580904767.375209,1580903939.50652,310,0.6342893,0,0,316.4492,1,0,1580904750.097481,8480.735812999999,0,3.11264,97.16694
1580904767.86195,64,0,1580904337.000819,41.20701635159924,29.07533761282497,172.748,-1,-1,5.74967098236084,48.00724964208526,-9999,8483.613382625001,0.98687744140625,0.07098388671875,-0.1455535888671875,8483.608316625001,0.01299025020115638,1.44145656114681,-0.08304609550829883,0.04427826777100563,0.1308922618627548,0.04108115285634995,0.001716315746307373,-0.01721975207328796,-0.01524448394775391,2,-0.0354703116019069,0.6591467128669323,-0.02251822800777424,0.7508397498443367,0.9882296323776245,0.08295067399740219,-0.1285349428653717,39.69697570800781,17.92375755310059,27.8914794921875,2,8483.134042625001,2,0,1580904767.375209,1580903939.50652,310,0.6342893,0,0,316.4492,1,0,1580904750.097481,8480.735812999999,0,3.11264,97.16694
1580904767.863209,65,0,1580904337.000819,41.20701635159924,29.07533761282497,172.748,-1,-1,5.74967098236084,48.00724964208526,-9999,8483.623422625,0.9905548095703125,0.072601318359375,-0.1383056640625,8483.618356625,0.01245804422488257,1.442508435444609,-0.08274213588850456,0.03910534456372261,0.1113491803407669,0.02551657520234585,-0.001922190189361572,-0.01169817894697189,-0.01841723918914795,2,-0.03516894894316969,0.6595557972073633,-0.02263629011648091,0.7504910533849241,0.988389253616333,0.08264775574207306,-0.127498596906662,39.54594421386719,17.87168884277344,27.78768920898438,2,8483.134042625001,2,0,1580904767.375209,1580903939.50652,310,0.6342893,0,0,316.4492,1,0,1580904750.097481,8480.735812999999,0,3.11264,97.16694
1580904767.864296,66,0,1580904337.000819,41.20701635159924,29.07533761282497,172.748,-1,-1,5.74967098236084,48.00724964208526,-9999,8483.633462625001,0.9902496337890625,0.0765380859375,-0.1277008056640625,8483.628397625,0.01196353465526414,1.443108249472421,-0.08252779257147395,0.03534811362624168,0.06245666742324829,0.01473946496844292,0.001661002635955811,-0.009867072105407715,-0.011760413646698,2,-0.03491864804768075,0.6597929189388937,-0.02276159533033908,0.750290575404246,0.988483190536499,0.08243414759635925,-0.1269079893827438,39.68788909912109,17.97865867614746,27.69247436523438,2,8483.134042625001,2,0,1580904767.375209,1580903939.50652,310,0.6342893,0,0,316.4492,1,0,1580904750.097481,8480.735812999999,0,3.11264,97.16694
1580904767.870722,67,0,1580904337.000819,41.20701635159924,29.07533761282497,172.748,-1,-1,5.74967098236084,48.00724964208526,-9999,8483.643503625,0.983856201171875,0.0860443115234375,-0.1300506591796875,8483.638437625001,0.01169817984477228,1.443234725979955,-0.08215788605755545,0.03102287277579308,0.01690702699124813,0.03473634272813797,0.001309514045715332,-0.005561508238315582,-0.001276850700378418,2,-0.03469096137490796,0.6598508390958139,-0.02274124140734271,0.7502507026517939,0.9885292649269104,0.08206549286842346,-0.1267868131399155,39.68788909912109,17.97865867614746,27.69247436523438,2,8483.134042625001,2,0,1580904767.375209,1580903939.50652,310,0.6342893,0,0,316.4492,1,0,1580904750.097481,8480.735812999999,0,3.11264,97.16694
1580904767.880765,68,0,1580904337.000819,41.20701635159924,29.07533761282497,172.748,-1,-1,5.74967098236084,48.00724964208526,-9999,8483.653543625,0.9763946533203125,0.0862579345703125,-0.1261749267578125,8483.648508625001,0.01123139465158422,1.442882828160274,-0.08168113954510986,0.03552573919296265,-0.03005695343017578,0.04393105953931808,-0.005078136920928955,0.004420049488544464,-0.00327378511428833,2,-0.03436219195749204,0.6597343448828747,-0.02275291625348916,0.7503680569147287,0.9885234832763672,0.08159033954143524,-0.1271396726369858,39.71560668945312,17.88033485412598,27.74310302734375,2,8483.134042625001,2,0,1580904767.375209,1580903939.50652,310,0.6342893,0,0,316.4492,1,0,1580904750.097481,8480.735812999999,0,3.11264,97.16694
1580904767.890728,69,0,1580904337.000819,41.20701635159924,29.07533761282497,172.748,-1,-1,5.74967098236084,48.00724964208526,-9999,8483.663583625001,0.96917724609375,0.0878448486328125,-0.1212921142578125,8483.658548625001,0.01087981128376445,1.441913617138248,-0.08112854266915193,0.04096897691488266,-0.09221220761537552,0.05004381388425827,-0.01246058940887451,0.005184650421142578,0.001565873622894287,2,-0.0340499701947852,0.65938522753048,-0.02268595517891915,0.7506909458565586,0.9884441494941711,0.08103957772254944,-0.1281034350395203,39.71560668945312,17.88033485412598,27.74310302734375,2,8483.134042625001,2,0,1580904767.375209,1580903939.50652,310,0.6342893,0,0,316.4492,1,0,1580904750.097481,8480.735812999999,0,3.11264,97.16694
1580904767.919517,70,0,1580904337.000819,41.20701635159924,29.07533761282497,172.748,-1,-1,5.74967098236084,48.00724964208526,-9999,8483.673624625,0.93756103515625,0.0984039306640625,-0.14239501953125,8483.668588625,0.0101629402582695,1.440490348580803,-0.08052566630419693,0.05887199565768242,-0.1461314111948013,0.05832933634519577,-0.01954269409179688,0.007372759282588959,0.007862687110900879,2,-0.03360360162065491,0.6588721881552071,-0.0227322542492595,0.751160074221681,0.9883092045783997,0.08043866604566574,-0.1295164823532104,39.69551849365234,17.94418716430664,27.52276611328125,2,8483.134042625001,2,0,1580904767.375209,1580903939.50652,310,0.6342893,0,0,316.4492,1,0,1580904750.097481,8480.735812999999,0,3.11264,97.16694
1580904767.920947,71,0,1580904337.000819,41.20701635159924,29.07533761282497,172.748,-1,-1,5.74967098236084,48.00724964208526,-9999,8483.683664625001,0.88739013671875,0.06005859375,-0.2173004150390625,8483.678628625001,0.009281271633896174,1.440281613283872,-0.08036374921728863,0.09147307276725769,-0.0145616615191102,0.008475759066641331,-0.05114483833312988,0.0180932953953743,-0.01303219795227051,2,-0.03325475359091315,0.6588109638449617,-0.02300655083041851,0.7512210024873033,0.9882951378822327,0.08027727156877518,-0.1297244727611542,39.69551849365234,17.94418716430664,27.52276611328125,2,8483.134042625001,2,0,1580904767.375209,1580903939.50652,310,0.6342893,0,0,316.4492,1,0,1580904750.097481,8480.735812999999,0,3.11264,97.16694
1580904767.922042,72,0,1580904337.000819,41.20701635159924,29.07533761282497,172.748,-1,-1,5.74967098236084,48.00724964208526,-9999,8483.693704625,0.9375762939453125,0.0328216552734375,-0.192535400390625,8483.688669625,0.008236008205509911,1.44180042880953,-0.08093551650275303,0.07978291064500809,0.170253574848175,-0.07083107531070709,-0.101466178894043,-0.02082221210002899,-0.08944553136825562,2,-0.03310720660309416,0.6593900517841401,-0.02361272990436247,0.750700376449229,0.9884452223777771,0.08084718137979507,-0.128217339515686,39.64734649658203,17.81579780578613,27.54672241210938,2,8483.134042625001,2,0,1580904767.375209,1580903939.50652,310,0.6342893,0,0,316.4492,1,0,1580904750.097481,8480.735812999999,0,3.11264,97.16694
1580904767.930785,73,0,1580904337.000819,41.20701635159924,29.07533761282497,172.748,-1,-1,5.74967098236084,48.00724964208526,-9999,8483.703744625,1.012222290039062,0.0697784423828125,-0.13385009765625,8483.698709625001,0.007508888064895535,1.443566788205744,-0.08180238383371724,0.06225638464093208,0.1892624199390411,-0.1029794216156006,-0.05143517255783081,-0.04892350733280182,-0.0664362907409668,2,-0.03317139999818515,0.6600519071587387,-0.02420085733924075,0.7500970473333088,0.9886004328727722,0.08171118050813675,-0.1264622807502747,39.64734649658203,17.81579780578613,27.54672241210938,2,8483.134042625001,2,0,1580904767.375209,1580903939.50652,310,0.6342893,0,0,316.4492,1,0,1580904750.097481,8480.735812999999,0,3.11264,97.16694
1580904767.941083,74,0,1580904337.000819,41.20701635159924,29.07533761282497,172.748,-1,-1,5.74967098236084,48.00724964208526,-9999,8483.713785625001,1.022308349609375,0.085540771484375,-0.1209716796875,8483.708749625001,0.006774594639177406,1.44465144057492,-0.08254685984080119,0.04522861912846565,0.107299268245697,-0.08107490092515945,0.02313488721847534,-0.01270899921655655,-0.008831620216369629,2,-0.03319479139319757,0.6604596917739197,-0.02474004009899629,0.7497192431570725,0.9886761903762817,0.08245314657688141,-0.125382199883461,39.62221527099609,17.97827911376953,27.53933715820312,2,8483.134042625001,2,0,1580904767.375209,1580903939.50652,310,0.6342893,0,0,316.4492,1,0,1580904750.097481,8480.735812999999,0,3.11264,97.16694
1580904767.951153,75,0,1580904337.000819,41.20701635159924,29.07533761282497,172.748,-1,-1,5.74967098236084,48.00724964208526,-9999,8483.723856625,0.9747314453125,0.0826263427734375,-0.14990234375,8483.718790625,0.006269242179231114,1.445443755135413,-0.08329184653158787,0.04009830579161644,0.07631764560937881,-0.08066317439079285,0.03318321704864502,0.002310618758201599,0.003255605697631836,2,-0.03329712807198971,0.6607539159616258,-0.02518875335607222,0.7494405876485722,0.9887141585350037,0.08319557458162308,-0.124591127038002,39.62221527099609,17.97827911376953,27.53933715820312,2,8483.134042625001,2,0,1580904767.375209,1580903939.50652,310,0.6342893,0,0,316.4492,1,0,1580904750.097481,8480.735812999999,0,3.11264,97.16694
1580904767.976148,76,0,1580904337.000819,41.20701635159924,29.07533761282497,172.748,-1,-1,5.74967098236084,48.00724964208526,-9999,8483.733896625001,0.9398651123046875,0.082550048828125,-0.1710662841796875,8483.728830625001,0.005587917892937539,1.446817062240052,-0.08400866294616416,0.04189562425017357,0.1458952724933624,-0.07845006138086319,-0.01450461149215698,-0.00131843239068985,-0.02704119682312012,2,-0.03332293637008764,0.6612690009870847,-0.02570383402495062,0.7489673988277664,0.9888247847557068,0.08390988409519196,-0.1232257783412933,39.62204742431641,18.25335121154785,27.57894897460938,2,8483.134042625001,2,0,1580904767.375209,1580903939.50652,310,0.6342893,0,0,316.4492,1,0,1580904750.097481,8480.735812999999,0,3.11264,97.16694
1580904767.977488,77,0,1580904337.000819,41.20701635159924,29.07533761282497,172.748,-1,-1,5.74967098236084,48.00724964208526,-9999,8483.743936625,0.9805145263671875,0.0819854736328125,-0.142547607421875,8483.738870625,0.005152098311652321,1.44846409238913,-0.08465463769173234,0.03434076905250549,0.170096755027771,-0.0686701312661171,-0.04951858520507812,-0.002038665115833282,-0.04984122514724731,2,-0.03339920669576799,0.6618831609026168,-0.02610818968020642,0.7484072981383139,0.9889723658561707,0.084553562104702,-0.1215903460979462,39.62204742431641,18.25335121154785,27.57894897460938,2,8483.134042625001,2,0,1580904767.375209,1580903939.50652,310,0.6342893,0,0,316.4492,1,0,1580904750.097481,8480.735812999999,0,3.11264,97.16694
1580904767.981176,78,0,1580904337.000819,41.20701635159924,29.07533761282497,172.748,-1,-1,5.74967098236084,48.00724964208526,-9999,8483.753976625001,1.01470947265625,0.0803070068359375,-0.1197967529296875,8483.748910625001,0.004661114619527174,1.449720349144728,-0.0852593358376996,0.02367472089827061,0.1287260502576828,-0.06338959187269211,-0.008970022201538086,-0.00320599228143692,-0.02257144451141357,2,-0.03344630846180165,0.6623522551934228,-0.02651309161505096,0.7479759314232993,0.9890735745429993,0.08515608310699463,-0.1203416660428047,39.33988189697266,17.95512771606445,27.71731567382812,2,8483.134042625001,2,0,1580904767.375209,1580903939.50652,310,0.6342893,0,0,316.4492,1,0,1580904750.097481,8480.735812999999,0,3.11264,97.16694
1580904767.99121,79,0,1580904337.000819,41.20701635159924,29.07533761282497,172.748,-1,-1,5.74967098236084,48.00724964208526,-9999,8483.764017625001,1.005630493164062,0.0858001708984375,-0.1186676025390625,8483.758951625001,0.0044089835555106,1.450324349515453,-0.08582951250812282,0.01844081096351147,0.06072036176919937,-0.05924864858388901,0.02520060539245605,-0.005452804267406464,-0.0004243850708007812,2,-0.03356791633881594,0.6625737753938069,-0.02680639811747045,0.7477636961349829,0.989097535610199,0.08572416752576828,-0.1197383776307106,39.33988189697266,17.95512771606445,27.71731567382812,2,8483.134042625001,2,0,1580904767.375209,1580903939.50652,310,0.6342893,0,0,316.4492,1,0,1580904750.097481,8480.735812999999,0,3.11264,97.16694
1580904768.001255,80,0,1580904337.000819,41.20701635159924,29.07533761282497,172.748,-1,-1,5.74967098236084,48.00724964208526,-9999,8483.774057625,0.9673004150390625,0.0899810791015625,-0.1397247314453125,8483.768991625,0.004020980885757934,1.450663256801429,-0.08632782572372291,0.01450847927480936,0.03679189458489418,-0.05284098535776138,0.01612353324890137,-0.0004563331604003906,0.0003641843795776367,2,-0.03362105892406114,0.6626994837413664,-0.02712227523859978,0.7476386143634315,0.9890956878662109,0.0862206369638443,-0.1193980351090431,39.32180023193359,17.94173240661621,27.70263671875,2,8483.134042625001,2,0,1580904767.375209,1580903939.50652,310,0.6342893,0,0,316.4492,1,0,1580904750.097481,8480.735812999999,0,3.11264,97.16694
1580904768.011073,81,0,1580904337.000819,41.20701635159924,29.07533761282497,172.748,-1,-1,5.74967098236084,48.00724964208526,-9999,8483.784097625001,0.9445648193359375,0.088714599609375,-0.153900146484375,8483.779062625001,0.00375984992756293,1.451283514320596,-0.08674747350460742,0.01948646083474159,0.06492073833942413,-0.04583953320980072,-0.02224451303482056,0.003306306898593903,-0.02131122350692749,2,-0.03368289562383928,0.662929389997906,-0.0273694207818897,0.7474228249777147,0.989133358001709,0.08663871884346008,-0.1187801733613014,39.32180023193359,17.94173240661621,27.70263671875,2,8483.134042625001,2,0,1580904767.375209,1580903939.50652,310,0.6342893,0,0,316.4492,1,0,1580904750.097481,8480.735812999999,0,3.11264,97.16694
1580904768.043549,82,0,1580904337.000819,41.20701635159924,29.07533761282497,172.748,-1,-1,5.74967098236084,48.00724964208526,-9999,8483.794138625,0.959075927734375,0.0870513916015625,-0.1441802978515625,8483.789102625,0.003343074127532178,1.452198303160322,-0.08711099169927321,0.0213962122797966,0.09739185869693756,-0.03989775478839874,-0.04505705833435059,0.001677535474300385,-0.0363956093788147,2,-0.03366793155879058,0.6632727168117555,-0.02766108867435285,0.7471081413237378,0.989210307598114,0.08700086176395416,-0.1178715452551842,39.22713470458984,18.07638931274414,27.7833251953125,2,8483.134042625001,2,0,1580904767.375209,1580903939.50652,310,0.6342893,0,0,316.4492,1,0,1580904750.097481,8480.735812999999,0,3.11264,97.16694
1580904768.044917,83,0,1580904337.000819,41.20701635159924,29.07533761282497,172.748,-1,-1,5.74967098236084,48.00724964208526,-9999,8483.804178625,0.9693756103515625,0.085601806640625,-0.1348419189453125,8483.799142625001,0.003202575298921896,1.453032525831357,-0.08739909581235092,0.008757383562624454,0.08083072304725647,-0.02935377135872841,-0.03061908483505249,-0.0002727881073951721,-0.0275043249130249,2,-0.03371734294655409,0.6635823025413448,-0.0278231989763098,0.7468249452838431,0.9892833828926086,0.08728787302970886,-0.1170433387160301,39.22713470458984,18.07638931274414,27.7833251953125,2,8483.134042625001,2,0,1580904767.375209,1580903939.50652,310,0.6342893,0,0,316.4492,1,0,1580904750.097481,8480.735812999999,0,3.11264,97.16694
1580904768.046059,84,0,1580904337.000819,41.20701635159924,29.07533761282497,172.748,-1,-1,5.74967098236084,48.00724964208526,-9999,8483.814218625001,0.9463043212890625,0.0792999267578125,-0.1516265869140625,8483.809183625001,0.002998138381723222,1.454044776468532,-0.08770002042279697,0.001309320330619812,0.09901612251996994,-0.02859397046267986,-0.02041137218475342,-0.002022288739681244,-0.01917093992233276,2,-0.03374769211406801,0.6639591032000769,-0.02801648265796489,0.7464813442094747,0.9893751740455627,0.0875876396894455,-0.1160388067364693,39.17628479003906,17.91880226135254,27.77383422851562,2,8483.134042625001,2,0,1580904767.375209,1580903939.50652,310,0.6342893,0,0,316.4492,1,0,1580904750.097481,8480.735812999999,0,3.11264,97.16694
1580904768.051288,85,0,1580904337.000819,41.20701635159924,29.07533761282497,172.748,-1,-1,5.74967098236084,48.00724964208526,-9999,8483.824258625,0.9580841064453125,0.0717010498046875,-0.155731201171875,8483.819223625,0.003058792153399936,1.455656550937714,-0.08820823482542635,-0.01105706766247749,0.1669943779706955,-0.04979592561721802,-0.04362404346466064,-0.008830621838569641,-0.03755617141723633,2,-0.03393478391292377,0.6645517241492213,-0.02818994324314764,0.7459387661698981,0.98951655626297,0.08809389173984528,-0.1144388690590858,39.17628479003906,17.91880226135254,27.77383422851562,2,8483.134042625001,2,0,1580904767.375209,1580903939.50652,310,0.6342893,0,0,316.4492,1,0,1580904750.097481,8480.735812999999,0,3.11264,97.16694
1580904768.061551,86,0,1580904337.000819,41.20701635159924,29.07533761282497,172.748,-1,-1,5.74967098236084,48.00724964208526,-9999,8483.834290500001,0.989898681640625,0.0764923095703125,-0.129547119140625,8483.8292545,0.00299576559450877,1.457468101870963,-0.08895523241159774,-0.01872058026492596,0.179757833480835,-0.07286422699689865,-0.03198438882827759,-0.01717387139797211,-0.04346174001693726,2,-0.03416661882087849,0.6652167345458606,-0.02849264647755623,0.7453238344942046,0.9896568059921265,0.08883795887231827,-0.1126386746764183,39.25308227539062,18.07937049865723,27.92578125,2,8483.134042625001,2,0,1580904767.375209,1580903939.50652,310,0.6342893,0,0,316.4492,1,0,1580904750.097481,8480.735812999999,0,3.11264,97.16694
1580904768.071393,87,0,1580904337.000819,41.20701635159924,29.07533761282497,172.748,-1,-1,5.74967098236084,48.00724964208526,-9999,8483.8443305,1.006195068359375,0.07904052734375,-0.1152191162109375,8483.8392955,0.003108288539233015,1.459042754578674,-0.08993617724728312,-0.02159412950277328,0.159784659743309,-0.09662335366010666,-0.0002588629722595215,-0.01336005330085754,-0.01884657144546509,2,-0.03454688969007196,0.665786239127371,-0.02880424099235916,0.7447855721487768,0.9897457957267761,0.08981498330831528,-0.1110703945159912,39.25308227539062,18.07937049865723,27.92578125,2,8483.134042625001,2,0,1580904767.375209,1580903939.50652,310,0.6342893,0,0,316.4492,1,0,1580904750.097481,8480.735812999999,0,3.11264,97.16694
1580904768.09969,88,0,1580904337.000819,41.20701635159924,29.07533761282497,172.748,-1,-1,5.74967098236084,48.00724964208526,-9999,8483.854401500001,1.006439208984375,0.088470458984375,-0.107147216796875,8483.849335500001,0.0030778753855696,1.460015912617296,-0.09104185235057674,-0.02539845556020737,0.09447702765464783,-0.1100440844893456,0.01602935791015625,-0.01191342622041702,-0.005493044853210449,2,-0.03493424977535121,0.6661317722110648,-0.02920069105752654,0.7444430622273304,0.9897541403770447,0.09091613441705704,-0.1100961193442345,39.08857727050781,18.26032638549805,28.05221557617188,2,8483.134042625001,2,0,1580904767.375209,1580903939.50652,310,0.6342893,0,0,316.4492,1,0,1580904750.097481,8480.735812999999,0,3.11264,97.16694
1580904768.101466,89,0,1580904337.000819,41.20701635159924,29.07533761282497,172.748,-1,-1,5.74967098236084,48.00724964208526,-9999,8483.8644415,0.9777069091796875,0.1028289794921875,-0.1152496337890625,8483.8593755,0.003193447469089053,1.460459335284495,-0.09202547862374715,-0.02214611507952213,0.04279042780399323,-0.09710901975631714,0.01631414890289307,-0.003463402390480042,0.002129852771759033,2,-0.03533228075613825,0.6662791975720499,-0.02949317071161461,0.744280740823156,0.9897134304046631,0.09189564734697342,-0.1096473187208176,39.08857727050781,18.26032638549805,28.05221557617188,2,8483.8501285,4,2,1580904768.091295,1580903939.50652,310,0.6342893,0,0,316.4492,1,0,1580904750.097481,8480.735812999999,0,3.11264,97.16694
1580904768.102663,90,0,1580904337.000819,41.20701635159924,29.07533761282497,172.748,-1,-1,5.74967098236084,48.00724964208526,-9999,8483.874481500001,0.9587249755859375,0.106964111328125,-0.1219635009765625,8483.869415500001,0.003114156999427208,1.460542975690581,-0.09273484862592715,-0.01730591058731079,0.006144821643829346,-0.06661390513181686,-0.01236218214035034,0.01018849015235901,-0.006062507629394531,2,-0.0355685702059648,0.6663003892796117,-0.02976052273137311,0.7442398384136402,0.9896575212478638,0.09260199218988419,-0.1095573380589485,38.88141632080078,18.47012901306152,28.02023315429688,2,8483.8501285,4,2,1580904768.091295,1580903939.50652,310,0.6342893,0,0,316.4492,1,0,1580904750.097481,8480.735812999999,0,3.11264,97.16694
1580904768.111651,91,0,1580904337.000819,41.20701635159924,29.07533761282497,172.748,-1,-1,5.74967098236084,48.00724964208526,-9999,8483.8845225,0.95562744140625,0.0987091064453125,-0.1353912353515625,8483.879456500001,0.003160734938496847,1.460640684451951,-0.09326252713023715,-0.01015345938503742,0.01039709150791168,-0.05123841017484665,-0.03130608797073364,0.01379799842834473,-0.01287847757339478,2,-0.03577895834723387,0.6663274225066649,-0.02992075722103568,0.7441992205963043,0.9896196126937866,0.09312738478183746,-0.1094552651047707,38.88141632080078,18.47012901306152,28.02023315429688,2,8483.8501285,4,2,1580904768.091295,1580903939.50652,310,0.6342893,0,0,316.4492,1,0,1580904750.097481,8480.735812999999,0,3.11264,97.16694
1580904768.121668,92,0,1580904337.000819,41.20701635159924,29.07533761282497,172.748,-1,-1,5.74967098236084,48.00724964208526,-9999,8483.8945625,0.994415283203125,0.0940399169921875,-0.1194610595703125,8483.8894965,0.003006821530247714,1.460734638766055,-0.09365468404342181,-0.006194593384861946,0.0147834774106741,-0.03782786428928375,-0.03437769412994385,0.005152352154254913,-0.02640360593795776,2,-0.03587216813691377,0.6663588130174135,-0.03011039481357569,0.7441588046392424,0.9895933270454407,0.09351783245801926,-0.1093582361936569,38.99227142333984,18.5706787109375,28.04336547851562,2,8483.8501285,4,2,1580904768.091295,1580903939.50652,310,0.6342893,0,0,316.4492,1,0,1580904750.097481,8480.735812999999,0,3.11264,97.16694
1580904768.134629,93,0,1580904337.000819,41.20701635159924,29.07533761282497,172.748,-1,-1,5.74967098236084,48.00724964208526,-9999,8483.904602500001,1.011550903320312,0.0957794189453125,-0.0989532470703125,8483.899536500001,0.002960091943824123,1.460184946414129,-0.09395940599574407,0.000522165559232235,-0.05447282642126083,-0.03104106709361076,0.004498720169067383,0.0001796707510948181,-0.009932339191436768,2,-0.03597827147916126,0.6661501579635267,-0.03021943121496928,0.7443361736545777,0.9895048141479492,0.0938212126493454,-0.1098990589380264,38.99227142333984,18.5706787109375,28.04336547851562,2,8483.8501285,4,2,1580904768.091295,1580903939.50652,310,0.6342893,0,0,316.4492,1,0,1580904750.097481,8480.735812999999,0,3.11264,97.16694
1580904768.160277,94,0,1580904337.000819,41.20701635159924,29.07533761282497,172.748,-1,-1,5.74967098236084,48.00724964208526,-9999,8483.9146425,0.9918060302734375,0.095123291015625,-0.1146240234375,8483.9096075,0.002676901804067721,1.459052320736308,-0.09422356507354468,0.007539741694927216,-0.1124445870518684,-0.02709085680544376,0.02178448438644409,0.001656085252761841,0.01169407367706299,2,-0.03599946466944197,0.6657293437425632,-0.03039244191138386,0.7447044823759786,0.9893550276756287,0.09408420324325562,-0.1110169589519501,39.01921844482422,18.45096397399902,27.84091186523438,2,8483.8501285,4,2,1580904768.091295,1580903939.50652,310,0.6342893,0,0,316.4492,1,0,1580904750.097481,8480.735812999999,0,3.11264,97.16694
1580904768.161551,95,0,1580904337.000819,41.20701635159924,29.07533761282497,172.748,-1,-1,5.74967098236084,48.00724964208526,-9999,8483.924683500001,0.9634246826171875,0.095794677734375,-0.1322479248046875,8483.919647500001,0.002480675285298435,1.457784444497772,-0.09450376384360142,0.0179593600332737,-0.1289199590682983,-0.03036414831876755,0.002207577228546143,0.0007209256291389465,-0.002724587917327881,2,-0.03605783347863167,0.665256110530451,-0.03053593273804182,0.7451186264915606,0.9891873002052307,0.09436316043138504,-0.1122682765126228,39.01921844482422,18.45096397399902,27.84091186523438,2,8483.8501285,4,2,1580904768.091295,1580903939.50652,310,0.6342893,0,0,316.4492,1,0,1580904750.097481,8480.735812999999,0,3.11264,97.16694
1580904768.162644,96,0,1580904337.000819,41.20701635159924,29.07533761282497,172.748,-1,-1,5.74967098236084,48.00724964208526,-9999,8483.9347235,0.9354705810546875,0.0909576416015625,-0.15899658203125,8483.9296885,0.002103751484197113,1.457033843578716,-0.09480804360367653,0.01714024879038334,-0.06933525204658508,-0.03318329155445099,-0.02606076002120972,0.001089230179786682,-0.01960933208465576,2,-0.03605735688912248,0.6649782987913633,-0.03076405584248358,0.7453571426899602,0.9890741109848022,0.09466607868671417,-0.1130074560642242,39.00001525878906,18.58127593994141,27.7550048828125,2,8483.8501285,4,2,1580904768.091295,1580903939.50652,310,0.6342893,0,0,316.4492,1,0,1580904750.097481,8480.735812999999,0,3.11264,97.16694
1580904768.171905,97,0,1580904337.000819,41.20701635159924,29.07533761282497,172.748,-1,-1,5.74967098236084,48.00724964208526,-9999,8483.9447635,0.9720611572265625,0.091552734375,-0.1368255615234375,8483.939728500001,0.001929290548967722,1.456640637466254,-0.0951586749150183,0.01219688914716244,-0.03578661382198334,-0.0367085188627243,-0.05393731594085693,-0.004096992313861847,-0.04597264528274536,2,-0.03613609445951262,0.6648292193010286,-0.03093855887157906,0.745479164207178,0.988996684551239,0.09501512348651886,-0.1133925840258598,39.00001525878906,18.58127593994141,27.7550048828125,2,8483.8501285,4,2,1580904768.091295,1580903939.50652,310,0.6342893,0,0,316.4492,1,0,1580904750.097481,8480.735812999999,0,3.11264,97.16694
1580904768.181978,98,0,1580904337.000819,41.20701635159924,29.07533761282497,172.748,-1,-1,5.74967098236084,48.00724964208526,-9999,8483.954804500001,0.997802734375,0.0938568115234375,-0.1211090087890625,8483.949768500001,0.001568432240697333,1.456080988135071,-0.09560104450030782,0.01392977405339479,-0.05166313797235489,-0.04551010578870773,-0.01724123954772949,-0.003942444920539856,-0.02325284481048584,2,-0.03618974973562453,0.6646199570904744,-0.03121000392635775,0.7456517832334546,0.9888911247253418,0.09545548260211945,-0.1139412298798561,38.96876525878906,18.48234367370605,27.874755859375,2,8483.8501285,4,2,1580904768.091295,1580903939.50652,310,0.6342893,0,0,316.4492,1,0,1580904750.097481,8480.735812999999,0,3.11264,97.16694
1580904768.194312,99,0,1580904337.000819,41.20701635159924,29.07533761282497,172.748,-1,-1,5.74967098236084,48.00724964208526,-9999,8483.9648445,1.015716552734375,0.094268798828125,-0.110015869140625,8483.9598085,0.001285260767311549,1.455036671370274,-0.09624415279692221,0.02126731723546982,-0.09996435791254044,-0.06600552797317505,0.008681416511535645,-0.00227876752614975,-0.006510078907012939,2,-0.03635185795405358,0.6642252310255321,-0.03151032573604369,0.7459829283447167,0.9887104630470276,0.09609563648700714,-0.1149667724967003,38.96876525878906,18.48234367370605,27.874755859375,2,8483.8501285,4,2,1580904768.091295,1580903939.50652,310,0.6342893,0,0,316.4492,1,0,1580904750.097481,8480.735812999999,0,3.11264,97.16694
1580904768.220599,100,0,1580904337.000819,41.20701635159924,29.07533761282497,172.748,-1,-1,5.74967098236084,48.00724964208526,-9999,8483.974884500001,1.008804321289062,0.091033935546875,-0.118408203125,8483.969849500001,0.0007600293289121715,1.453429174057286,-0.09718843895979389,0.02318345755338669,-0.1600207090377808,-0.09696994721889496,0.02687186002731323,-0.002807065844535828,0.006162047386169434,2,-0.03655533628432796,0.6636196698313515,-0.03199048695991497,0.746491259016053,0.9884337186813354,0.09703551232814789,-0.116545282304287,39.09276580810547,18.88615036010742,27.80453491210938,2,8483.8501285,4,2,1580904768.091295,1580903939.50652,310,0.6342893,0,0,316.4492,1,0,1580904750.097481,8480.735812999999,0,3.11264,97.16694
1580904768.2219,101,0,1580904337.000819,41.20701635159924,29.07533761282497,172.748,-1,-1,5.74967098236084,48.00724964208526,-9999,8483.9849555,0.99346923828125,0.091796875,-0.1271820068359375,8483.9798895,0.0003453401909091282,1.451579651264993,-0.09841873450749106,0.02596220001578331,-0.1782172918319702,-0.1267464756965637,0.02029615640640259,-0.007266856729984283,-0.0004158616065979004,2,-0.03690701040656503,0.6629165905424051,-0.03251937850233999,0.7470756244569523,0.9880972504615784,0.09825992584228516,-0.1183589324355125,39.09276580810547,18.88615036010742,27.80453491210938,2,8483.8501285,4,2,1580904768.091295,1580903939.50652,310,0.6342893,0,0,316.4492,1,0,1580904750.097481,8480.735812999999,0,3.11264,97.16694
1580904768.22281,102,0,1580904337.000819,41.20701635159924,29.07533761282497,172.748,-1,-1,5.74967098236084,48.00724964208526,-9999,8483.994995500001,1.000579833984375,0.0987548828125,-0.122467041015625,8483.989929500001,-0.0003017768765618886,1.449389885142881,-0.09990394019215418,0.03197779506444931,-0.2144063264131546,-0.157494843006134,0.005368947982788086,-0.007982425391674042,-0.007042944431304932,2,-0.03728367213692536,0.6620858373233658,-0.03321257302218478,0.7477628227519854,0.9876897931098938,0.09973783791065216,-0.1205045431852341,39.18767547607422,18.85209465026855,27.85931396484375,2,8483.8501285,4,2,1580904768.091295,1580903939.50652,310,0.6342893,0,0,316.4492,1,0,1580904750.097481,8480.735812999999,0,3.11264,97.16694
1580904768.232179,103,0,1580904337.000819,41.20701635159924,29.07533761282497,172.748,-1,-1,5.74967098236084,48.00724964208526,-9999,8484.0050355,0.9875030517578125,0.1082611083984375,-0.128875732421875,8483.999970500001,-0.0008150860667510198,1.446962053734959,-0.10155259680219,0.03033409267663956,-0.2270981520414352,-0.1728048175573349,0.0129396915435791,-0.002665400505065918,4.988908767700195e-05,2,-0.03777133340634957,0.6611599733916088,-0.03390441676986,0.7485259892356543,0.9872296452522278,0.1013781353831291,-0.1228816285729408,39.18767547607422,18.85209465026855,27.85931396484375,2,8483.8501285,4,2,1580904768.091295,1580903939.50652,310,0.6342893,0,0,316.4492,1,0,1580904750.097481,8480.735812999999,0,3.11264,97.16694
1580904768.242361,104,0,1580904337.000819,41.20701635159924,29.07533761282497,172.748,-1,-1,5.74967098236084,48.00724964208526,-9999,8484.0150765,0.9636383056640625,0.100799560546875,-0.1391143798828125,8484.0100105,-0.001473754897404261,1.444181814728053,-0.1031608121616161,0.02811581268906593,-0.2750365734100342,-0.1678194552659988,0.000371396541595459,0.005240336060523987,-0.003634214401245117,2,-0.03820367841865887,0.6601044617320819,-0.03462944737553351,0.7494020327707683,0.9867212772369385,0.1029779314994812,-0.1256051510572433,39.16649627685547,19.02491760253906,27.66348266601562,2,8483.8501285,4,2,1580904768.091295,1580903939.50652,310,0.6342893,0,0,316.4492,1,0,1580904750.097481,8480.735812999999,0,3.11264,97.16694
1580904768.254236,105,0,1580904337.000819,41.20701635159924,29.07533761282497,172.748,-1,-1,5.74967098236084,48.00724964208526,-9999,8484.025116500001,0.8919677734375,0.1016387939453125,-0.1782684326171875,8484.020050500001,-0.001828204198125606,1.441790040594738,-0.1044645098304725,0.0206347294151783,-0.239280954003334,-0.1343856006860733,-0.0230560302734375,-0.003518417477607727,-0.01152956485748291,2,-0.03861727491002478,0.6591926791852083,-0.03514633994898408,0.7501590024482837,0.9862841367721558,0.1042746156454086,-0.1279474347829819,39.16649627685547,19.02491760253906,27.66348266601562,2,8483.8501285,4,2,1580904768.091295,1580903939.50652,310,0.6342893,0,0,316.4492,1,0,1580904750.097481,8480.735812999999,0,3.11264,97.16694
1580904768.279282,106,0,1580904337.000819,41.20701635159924,29.07533761282497,172.748,-1,-1,5.74967098236084,48.00724964208526,-9999,8484.0351565,0.921783447265625,0.091094970703125,-0.192596435546875,8484.0300905,-0.002167897478595973,1.440526263467274,-0.1055624206052773,0.002959806472063065,-0.1127568930387497,-0.1094648838043213,-0.09444987773895264,-0.003771521151065826,-0.04945206642150879,2,-0.03893965868702921,0.6587065359129073,-0.03561097907136902,0.7505472309477702,0.9860073924064636,0.105366475880146,-0.1291788071393967,39.37086486816406,19.25634002685547,27.533203125,2,8483.8501285,4,2,1580904768.091295,1580903939.50652,310,0.6342893,0,0,316.4492,1,0,1580904750.097481,8480.735812999999,0,3.11264,97.16694
1580904768.280545,107,0,1580904337.000819,41.20701635159924,29.07533761282497,172.748,-1,-1,5.74967098236084,48.00724964208526,-9999,8484.0451975,1.000228881835938,0.1018524169921875,-0.138275146484375,8484.040161500001,-0.002250202844404019,1.439409542945909,-0.1067641989694373,-0.007894705049693584,-0.1087514981627464,-0.1197140663862228,-0.06436300277709961,-0.01551085710525513,-0.06269508600234985,2,-0.03938370162676871,0.6582684483233842,-0.03601562787952944,0.7508891009475113,0.9857363700866699,0.1065614894032478,-0.1302631497383118,39.37086486816406,19.25634002685547,27.533203125,2,8483.8501285,4,2,1580904768.091295,1580903939.50652,310,0.6342893,0,0,316.4492,1,0,1580904750.097481,8480.735812999999,0,3.11264,97.16694
1580904768.282307,108,0,1580904337.000819,41.20701635159924,29.07533761282497,172.748,-1,-1,5.74967098236084,48.00724964208526,-9999,8484.055237500001,1.006927490234375,0.1034393310546875,-0.1331634521484375,8484.050202500001,-0.002475860901817947,1.437886541048993,-0.1081531324292548,-0.01401811093091965,-0.1521154940128326,-0.1380233019590378,0.01442939043045044,-0.006134942173957825,-0.006892085075378418,2,-0.03985877203239849,0.6576769776360997,-0.03652707579452717,0.7513575142845017,0.985389232635498,0.1079424098134041,-0.1317445486783981,39.31568145751953,19.36269950866699,27.28265380859375,2,8483.8501285,4,2,1580904768.091295,1580903939.50652,310,0.6342893,0,0,316.4492,1,0,1580904750.097481,8480.735812999999,0,3.11264,97.16694
1580904768.292447,109,0,1580904337.000819,41.20701635159924,29.07533761282497,172.748,-1,-1,5.74967098236084,48.00724964208526,-9999,8484.0652775,0.9887237548828125,0.1109161376953125,-0.138763427734375,8484.0602425,-0.002583138063533809,1.436014428782537,-0.1096733594367751,-0.01010965649038553,-0.1868412494659424,-0.1532837450504303,0.02154022455215454,-0.006059885025024414,4.243850708007812e-05,2,-0.04042934858656549,0.6569490448142223,-0.03702937803216398,0.7519388968161447,0.9849769473075867,0.1094536259770393,-0.1335668414831161,39.31568145751953,19.36269950866699,27.28265380859375,2,8483.8501285,4,2,1580904768.091295,1580903939.50652,310,0.6342893,0,0,316.4492,1,0,1580904750.097481,8480.735812999999,0,3.11264,97.16694
1580904768.302654,110,0,1580904337.000819,41.20701635159924,29.07533761282497,172.748,-1,-1,5.74967098236084,48.00724964208526,-9999,8484.075317500001,0.9547271728515625,0.120849609375,-0.1448974609375,8484.070282500001,-0.002962611936663925,1.433977698285938,-0.1111635482743838,-0.001021792180836201,-0.2006433755159378,-0.1506312936544418,0.003773212432861328,-6.4849853515625e-05,-0.003573298454284668,2,-0.04090336072387191,0.6561644305934591,-0.03761980215978149,0.7525688470517768,0.9845402836799622,0.110934741795063,-0.1355503052473068,39.41983032226562,19.3869457244873,27.38555908203125,2,8483.8501285,4,2,1580904768.091295,1580903939.50652,310,0.6342893,0,0,316.4492,1,0,1580904750.097481,8480.735812999999,0,3.11264,97.16694
1580904768.313569,111,0,1580904337.000819,41.20701635159924,29.07533761282497,172.748,-1,-1,5.74967098236084,48.00724964208526,-9999,8484.0853585,0.95477294921875,0.12506103515625,-0.1456451416015625,8484.0803225,-0.003350611897374351,1.431879161722507,-0.1125683695103988,0.01744003966450691,-0.2055350691080093,-0.1442540735006332,-0.02978140115737915,0.00847199559211731,-0.007662475109100342,2,-0.0413448341211967,0.6553574626830998,-0.03818322917376989,0.7532193009964867,0.9840984344482422,0.1123307794332504,-0.1375944018363953,39.41983032226562,19.3869457244873,27.38555908203125,2,8483.8501285,4,2,1580904768.091295,1580903939.50652,310,0.6342893,0,0,316.4492,1,0,1580904750.097481,8481.676020000001,0,3.107361,97.167
1580904768.336864,112,0,1580904337.000819,41.20701635159924,29.07533761282497,172.748,-1,-1,5.74967098236084,48.00724964208526,-9999,8484.0953985,0.95098876953125,0.11456298828125,-0.1639251708984375,8484.090363500001,-0.003971287198045058,1.429810710373919,-0.1139033646098233,0.02360636182129383,-0.2061523497104645,-0.1356912553310394,-0.02929937839508057,0.01135644316673279,-0.006395220756530762,2,-0.04168446462957078,0.6545671628027291,-0.03881122585958931,0.7538554267675274,0.9836623668670654,0.1136572286486626,-0.1396084725856781,39.33765411376953,19.43441772460938,27.15487670898438,2,8483.8501285,4,2,1580904768.091295,1580903939.50652,310,0.6342893,0,0,316.4492,1,0,1580904750.097481,8481.676020000001,0,3.107361,97.167
1580904768.338135,113,0,1580904337.000819,41.20701635159924,29.07533761282497,172.748,-1,-1,5.74967098236084,48.00724964208526,-9999,8484.105438500001,0.955230712890625,0.1078338623046875,-0.173797607421875,8484.100403500001,-0.004570310561080803,1.428065154417848,-0.1152568284311027,0.02201458998024464,-0.1668531596660614,-0.1388457715511322,-0.03268533945083618,-0.0004868209362030029,-0.02298027276992798,2,-0.04203310973042131,0.6538972330402002,-0.03944318485666913,0.7543843193732237,0.9832637906074524,0.1150018200278282,-0.1413032561540604,39.52922821044922,19.72953414916992,27.1485595703125,2,8483.8501285,4,2,1580904768.091295,1580903939.50652,310,0.6342893,0,0,316.4492,1,0,1580904750.097481,8481.676020000001,0,3.107361,97.167
1580904768.342789,114,0,1580904337.000819,41.20701635159924,29.07533761282497,172.748,-1,-1,5.74967098236084,48.00724964208526,-9999,8484.115509500001,0.981781005859375,0.1163787841796875,-0.1580657958984375,8484.1104435,-0.004985132028782516,1.426409306987061,-0.1166737003603065,0.01812734082341194,-0.1545855849981308,-0.1454334557056427,-0.02804601192474365,-0.008623898029327393,-0.03124785423278809,2,-0.04246518762634539,0.6532556160179978,-0.0400275902363221,0.7548851124423412,0.9828663468360901,0.1164091750979424,-0.1429076194763184,39.52922821044922,19.72953414916992,27.1485595703125,2,8483.8501285,4,2,1580904768.091295,1580903939.50652,310,0.6342893,0,0,316.4492,1,0,1580904750.097481,8481.676020000001,0,3.107361,97.167
1580904768.353362,115,0,1580904337.000819,41.20701635159924,29.07533761282497,172.748,-1,-1,5.74967098236084,48.00724964208526,-9999,8484.1255495,0.9930572509765625,0.1251983642578125,-0.145355224609375,8484.120483500001,-0.005633715132828729,1.424364457596556,-0.1181286268999243,0.02697489410638809,-0.1975578218698502,-0.1514122635126114,-0.001032710075378418,-0.001524515450000763,-0.013530433177948,2,-0.04284426552145972,0.6524708614899118,-0.04070363742495196,0.7555061084562211,0.9824036359786987,0.117854081094265,-0.1448922902345657,39.45758056640625,19.62759780883789,27.16961669921875,2,8483.8501285,4,2,1580904768.091295,1580903939.50652,310,0.6342893,0,0,316.4492,1,0,1580904750.097481,8481.676020000001,0,3.107361,97.167
1580904768.362723,116,0,1580904337.000819,41.20701635159924,29.07533761282497,172.748,-1,-1,5.74967098236084,48.00724964208526,-9999,8484.1355905,0.9495391845703125,0.12286376953125,-0.1688385009765625,8484.1305245,-0.006152851909469111,1.422120183982394,-0.1195168163085551,0.03022068552672863,-0.2203941196203232,-0.1462002694606781,0.01073402166366577,0.00591607391834259,0.001360774040222168,2,-0.04324581926970367,0.6516085114450414,-0.04130393440805363,0.756194414433611,0.9819129705429077,0.1192324832081795,-0.1470723003149033,39.45758056640625,19.62759780883789,27.16961669921875,2,8483.8501285,4,2,1580904768.091295,1580903939.50652,310,0.6342893,0,0,316.4492,1,0,1580904750.097481,8481.676020000001,0,3.107361,97.167
1580904768.374156,117,0,1580904337.000819,41.20701635159924,29.07533761282497,172.748,-1,-1,5.74967098236084,48.00724964208526,-9999,8484.145630500001,0.9100799560546875,0.1232147216796875,-0.1894073486328125,8484.140564500001,-0.006793291832878664,1.420047363742708,-0.1206455966522708,0.02901986427605152,-0.2080754041671753,-0.1191878393292427,-0.03234326839447021,0.002460360527038574,-0.02010691165924072,2,-0.04350749910986984,0.6508176336662348,-0.04186859692849804,0.7568292273724498,0.9814724326133728,0.120353139936924,-0.1490870118141174,39.49295806884766,19.70846939086914,27.0108642578125,2,8483.8501285,4,2,1580904768.091295,1580903939.50652,310,0.6342893,0,0,316.4492,1,0,1580904750.097481,8481.676020000001,0,3.107361,97.167
1580904768.397855,118,0,1580904337.000819,41.20701635159924,29.07533761282497,172.748,-1,-1,5.74967098236084,48.00724964208526,-9999,8484.1556705,0.875244140625,0.1069793701171875,-0.217987060546875,8484.150604500001,-0.007109226319626405,1.418770560094094,-0.1214897072209475,0.01557298842817545,-0.1278053969144821,-0.08647951483726501,-0.07151037454605103,0.00197301059961319,-0.03943777084350586,2,-0.04375119748028931,0.6503257179546476,-0.04223477505040973,0.7572175289221352,0.9811804294586182,0.121191069483757,-0.1503245830535889,39.49295806884766,19.70846939086914,27.0108642578125,2,8483.8501285,4,2,1580904768.091295,1580903939.50652,310,0.6342893,0,0,316.4492,1,0,1580904750.097481,8481.676020000001,0,3.107361,97.167
1580904768.399163,119,0,1580904337.000819,41.20701635159924,29.07533761282497,172.748,-1,-1,5.74967098236084,48.00724964208526,-9999,8484.1657115,0.9212493896484375,0.1098480224609375,-0.20428466796875,8484.1606455,-0.007414494179445487,1.418446858047495,-0.1221926010113314,0.002211908809840679,-0.0216323547065258,-0.07061906158924103,-0.1062130331993103,-0.01496030390262604,-0.06771260499954224,2,-0.04392504578511988,0.6501968710955743,-0.04257167277847046,0.7572993145577386,0.9810473918914795,0.1218887493014336,-0.1506292372941971,39.68409729003906,19.91826438903809,26.90045166015625,2,8483.8501285,4,2,1580904768.091295,1580903939.50652,310,0.6342893,0,0,316.4492,1,0,1580904750.097481,8481.676020000001,0,3.107361,97.167
1580904768.403115,120,0,1580904337.000819,41.20701635159924,29.07533761282497,172.748,-1,-1,5.74967098236084,48.00724964208526,-9999,8484.175751500001,0.9530792236328125,0.123626708984375,-0.1690521240234375,8484.1707155,-0.00748557127124849,1.418221653041967,-0.1228703917997024,-0.00426409812644124,-0.02316612936556339,-0.06793873757123947,-0.06009197235107422,-0.01276464760303497,-0.05380183458328247,2,-0.04416350295712434,0.6501006001067302,-0.04281383967914958,0.7573544868943222,0.9809315800666809,0.1225614622235298,-0.1508375853300095,39.68409729003906,19.91826438903809,26.90045166015625,2,8483.8501285,4,2,1580904768.091295,1580903939.50652,310,0.6342893,0,0,316.4492,1,0,1580904750.097481,8481.676020000001,0,3.107361,97.167
1580904768.413377,121,0,1580904337.000819,41.20701635159924,29.07533761282497,172.748,-1,-1,5.74967098236084,48.00724964208526,-9999,8484.1857915,0.947357177734375,0.1191864013671875,-0.182586669921875,8484.1807565,-0.007699215815663743,1.418135170082804,-0.1235455737861544,-0.005898480303585529,-0.006665450520813465,-0.06728226691484451,-0.02816706895828247,0.0003437027335166931,-0.01849699020385742,2,-0.04435169764078684,0.6500600156056835,-0.04311216956959101,0.757361409584479,0.9808365702629089,0.1232315227389336,-0.150909811258316,39.42971038818359,19.77449798583984,26.78482055664062,2,8483.8501285,4,2,1580904768.091295,1580903939.50652,310,0.6342893,0,0,316.4492,1,0,1580904750.097481,8481.676020000001,0,3.107361,97.167
1580904768.422862,122,0,1580904337.000819,41.20701635159924,29.07533761282497,172.748,-1,-1,5.74967098236084,48.00724964208526,-9999,8484.195831500001,0.9423980712890625,0.1185760498046875,-0.1842803955078125,8484.190796500001,-0.00769904370226518,1.418242993880684,-0.1242038904790643,-0.009889319539070129,0.009302409365773201,-0.06517257541418076,-0.03382503986358643,-0.004750169813632965,-0.03214985132217407,2,-0.04459880912940659,0.6500885413954683,-0.04332836649432491,0.7573099833632796,0.9807723164558411,0.1238847970962524,-0.1507916748523712,39.42971038818359,19.77449798583984,26.78482055664062,2,8483.8501285,4,2,1580904768.091295,1580903939.50652,310,0.6342893,0,0,316.4492,1,0,1580904750.097481,8481.676020000001,0,3.107361,97.167
1580904768.433859,123,0,1580904337.000819,41.20701635159924,29.07533761282497,172.748,-1,-1,5.74967098236084,48.00724964208526,-9999,8484.205872500001,0.9246826171875,0.114166259765625,-0.1947479248046875,8484.2008365,-0.007739213158835378,1.418790313728247,-0.1247953852520679,-0.02159790694713593,0.05212470889091492,-0.05484962835907936,-0.03879398107528687,-0.005947686731815338,-0.03439182043075562,2,-0.04479789933680808,0.6502855391070094,-0.04354798931757506,0.7571164952440921,0.9807820916175842,0.1244717091321945,-0.150243729352951,39.43309020996094,19.87939071655273,27.07217407226562,2,8483.8501285,4,2,1580904768.091295,1580903939.50652,310,0.6342893,0,0,316.4492,1,0,1580904750.097481,8481.676020000001,0,3.107361,97.167
1580904768.457926,124,0,1580904337.000819,41.20701635159924,29.07533761282497,172.748,-1,-1,5.74967098236084,48.00724964208526,-9999,8484.2159125,0.9393463134765625,0.114349365234375,-0.1910858154296875,8484.2108775,-0.007512928240935682,1.419875597675994,-0.1253760333783216,-0.03093313053250313,0.1081691086292267,-0.05263815075159073,-0.05660021305084229,-0.01093378663063049,-0.04593497514724731,2,-0.0450676776121344,0.6506802088868371,-0.0436754707421334,0.7567540504108825,0.9808730483055115,0.1250478178262711,-0.1491683423519135,39.43309020996094,19.87939071655273,27.07217407226562,2,8483.8501285,4,2,1580904768.091295,1580903939.50652,310,0.6342893,0,0,316.4492,1,0,1580904750.097481,8481.676020000001,0,3.107361,97.167
1580904768.459195,125,0,1580904337.000819,41.20701635159924,29.07533761282497,172.748,-1,-1,5.74967098236084,48.00724964208526,-9999,8484.225952500001,0.955596923828125,0.1215362548828125,-0.171844482421875,8484.220917500001,-0.00735710932170362,1.421175309213616,-0.1259565109050957,-0.03997616097331047,0.1289833039045334,-0.05326239019632339,-0.04205751419067383,-0.01132684946060181,-0.04355925321578979,2,-0.04530962066108216,0.6511572666555586,-0.04383471910867316,0.7563198647124222,0.9809941053390503,0.1256237179040909,-0.1478825062513351,39.46518707275391,19.90625762939453,27.16015625,2,8483.8501285,4,2,1580904768.091295,1580903939.50652,310,0.6342893,0,0,316.4492,1,0,1580904750.097481,8481.676020000001,0,3.107361,97.167
1580904768.463133,126,0,1580904337.000819,41.20701635159924,29.07533761282497,172.748,-1,-1,5.74967098236084,48.00724964208526,-9999,8484.2359935,0.9445648193359375,0.12823486328125,-0.1660614013671875,8484.2309575,-0.007015360099622609,1.422466839281105,-0.1264108002417205,-0.04000034555792809,0.1229772493243217,-0.0385267361998558,-0.0259404182434082,-0.004590794444084167,-0.02559393644332886,2,-0.04556441780502717,0.6516290437515099,-0.04388274465036242,0.7558953126908277,0.9811276793479919,0.1260744035243988,-0.1466069519519806,39.46518707275391,19.90625762939453,27.16015625,2,8483.8501285,4,2,1580904768.091295,1580903939.50652,310,0.6342893,0,0,316.4492,1,0,1580904750.097481,8481.676020000001,0,3.107361,97.167
1580904768.473805,127,0,1580904337.000819,41.20701635159924,29.07533761282497,172.748,-1,-1,5.74967098236084,48.00724964208526,-9999,8484.246063500001,0.9333038330078125,0.12701416015625,-0.1754608154296875,8484.240997500001,-0.00682534312379176,1.423937537118119,-0.1267224979663867,-0.03760962560772896,0.1451302170753479,-0.02566100656986237,-0.03714817762374878,0.001798495650291443,-0.02126032114028931,2,-0.04571187408176583,0.6521743536533328,-0.04394606272853492,0.7554122131873733,0.9813032150268555,0.1263836026191711,-0.1451580673456192,39.26595306396484,19.76664352416992,27.04409790039062,2,8483.8501285,4,2,1580904768.091295,1580903939.50652,310,0.6342893,0,0,316.4492,1,0,1580904750.097481,8481.676020000001,0,3.107361,97.167
1580904768.483478,128,0,1580904337.000819,41.20701635159924,29.07533761282497,172.748,-1,-1,5.74967098236084,48.00724964208526,-9999,8484.2561045,0.937652587890625,0.128631591796875,-0.166046142578125,8484.251038500001,-0.006472004681642788,1.425564006339537,-0.1269167113556356,-0.03595962375402451,0.1571421027183533,-0.01509341038763523,-0.04861962795257568,0.000385090708732605,-0.03225982189178467,2,-0.04586477765868921,0.6527765825198089,-0.04391320125788713,0.7548847327767954,0.981514036655426,0.1265762597322464,-0.1435583084821701,39.26595306396484,19.76664352416992,27.04409790039062,2,8483.8501285,4,2,1580904768.091295,1580903939.50652,310,0.6342893,0,0,316.4492,1,0,1580904750.097481,8481.676020000001,0,3.107361,97.167
1580904768.494295,129,0,1580904337.000819,41.20701635159924,29.07533761282497,172.748,-1,-1,5.74967098236084,48.00724964208526,-9999,8484.266144500001,0.921173095703125,0.1255645751953125,-0.177276611328125,8484.2610785,-0.006247607499881871,1.427516767659214,-0.126956595804352,-0.03770639002323151,0.1888100206851959,0.00211993046104908,-0.044544517993927,0.001962900161743164,-0.02476388216018677,2,-0.04591024974234312,0.653507412727423,-0.0438863748936526,0.7542507507860212,0.9817872643470764,0.1266158223152161,-0.1416406184434891,39.26670074462891,19.67369079589844,27.34490966796875,2,8483.8501285,4,2,1580904768.091295,1580903939.50652,310,0.6342893,0,0,316.4492,1,0,1580904750.097481,8481.676020000001,0,3.107361,97.167
1580904768.519685,130,0,1580904337.000819,41.20701635159924,29.07533761282497,172.748,-1,-1,5.74967098236084,48.00724964208526,-9999,8484.2761845,0.941436767578125,0.1280364990234375,-0.169403076171875,8484.271118500001,-0.005875558615358907,1.429857309160013,-0.1268792334425228,-0.03585633262991905,0.233055979013443,0.01337701641023159,-0.06136274337768555,-0.001027345657348633,-0.03829216957092285,2,-0.04595143548507773,0.6543826206248627,-0.04377460117919324,0.753495576103593,0.9821258187294006,0.1265390813350677,-0.1393437087535858,39.26670074462891,19.67369079589844,27.34490966796875,2,8483.8501285,4,2,1580904768.091295,1580903939.50652,310,0.6342893,0,0,316.4492,1,0,1580904750.097481,8481.676020000001,0,3.107361,97.167
1580904768.520954,131,0,1580904337.000819,41.20701635159924,29.07533761282497,172.748,-1,-1,5.74967098236084,48.00724964208526,-9999,8484.2862245,0.95709228515625,0.1318511962890625,-0.153106689453125,8484.2811595,-0.005722220345720601,1.432192817278179,-0.1267357218927719,-0.02866766229271889,0.2294852137565613,0.01951240748167038,-0.04143983125686646,0.001587033271789551,-0.03271102905273438,2,-0.04589649404614615,0.6552613752354819,-0.04372351551682258,0.7527379111242697,0.9824666380882263,0.1263967305421829,-0.1370520889759064,39.07480621337891,20.10057830810547,27.51321411132812,2,8483.8501285,4,2,1580904768.091295,1580903939.50652,310,0.6342893,0,0,316.4492,1,0,1580904750.097481,8481.676020000001,0,3.107361,97.167
1580904768.52339,132,0,1580904337.000819,41.20701635159924,29.07533761282497,172.748,-1,-1,5.74967098236084,48.00724964208526,-9999,8484.296265500001,0.9755706787109375,0.12744140625,-0.15496826171875,8484.291229500001,-0.005451064303046516,1.434407904157425,-0.1266034854829156,-0.02530182711780071,0.2174062728881836,0.01777621731162071,-0.02610230445861816,0.005532950162887573,-0.01859003305435181,2,-0.04588725477165195,0.6560910602825387,-0.04362900626540464,0.7520208537570086,0.9827842712402344,0.1262655407190323,-0.1348777562379837,39.07480621337891,20.10057830810547,27.51321411132812,2,8483.8501285,4,2,1580904768.091295,1580903939.50652,310,0.6342893,0,0,316.4492,1,0,1580904750.097481,8481.676020000001,0,3.107361,97.167
1580904768.53361,133,0,1580904337.000819,41.20701635159924,29.07533761282497,172.748,-1,-1,5.74967098236084,48.00724964208526,-9999,8484.3063055,0.972625732421875,0.123870849609375,-0.154144287109375,8484.3012705,-0.00536535966633547,1.43651318681151,-0.1265550894603423,-0.02360406145453453,0.2088396847248077,0.007057259790599346,-0.007912099361419678,0.001171141862869263,-0.02252119779586792,2,-0.0458512664117053,0.6568812986570469,-0.04362920003655238,0.751332867997424,0.9830721020698547,0.1262175440788269,-0.1328092366456985,39.16025543212891,19.88917541503906,27.77041625976562,2,8483.8501285,4,2,1580904768.091295,1580903939.50652,310,0.6342893,0,0,316.4492,1,0,1580904750.097481,8481.676020000001,0,3.107361,97.167
1580904768.54353,134,0,1580904337.000819,41.20701635159924,29.07533761282497,172.748,-1,-1,5.74967098236084,48.00724964208526,-9999,8484.316345500001,0.9665374755859375,0.12957763671875,-0.144866943359375,8484.311310500001,-0.005145813516087894,1.438462269085318,-0.1265084209347346,-0.02155937626957893,0.1931270658969879,0.006707103922963142,-0.01112014055252075,-0.002353131771087646,-0.02361381053924561,2,-0.04586339217762683,0.6576090861706536,-0.04357611854423529,0.7506982852015903,0.9833349585533142,0.1261712461709976,-0.1308936774730682,39.16025543212891,19.88917541503906,27.77041625976562,2,8483.8501285,4,2,1580904768.091295,1580903939.50652,310,0.6342893,0,0,316.4492,1,0,1580904750.097481,8481.676020000001,0,3.107361,97.167
1580904768.554572,135,0,1580904337.000819,41.20701635159924,29.07533761282497,172.748,-1,-1,5.74967098236084,48.00724964208526,-9999,8484.326386500001,0.9614715576171875,0.129638671875,-0.147705078125,8484.3213505,-0.005105467870029594,1.440198745749654,-0.1263735821662825,-0.01658645644783974,0.1695298552513123,0.01570965349674225,-0.01745122671127319,0.003487482666969299,-0.01604270935058594,2,-0.04578823171908242,0.6582623762276885,-0.04355642472526325,0.750131272881958,0.9835776686668396,0.1260374784469604,-0.1291881650686264,38.83939361572266,19.85410308837891,27.86306762695312,2,8483.8501285,4,2,1580904768.091295,1580903939.50652,310,0.6342893,0,0,316.4492,1,0,1580904750.097481,8481.676020000001,0,3.107361,97.167
1580904768.584313,136,0,1580904337.000819,41.20701635159924,29.07533761282497,172.748,-1,-1,5.74967098236084,48.00724964208526,-9999,8484.3364265,0.9764251708984375,0.12255859375,-0.1548309326171875,8484.331390500001,-0.004860703109224047,1.441945547090092,-0.1261630233323291,-0.0220109149813652,0.1754720062017441,0.02506606094539165,-0.02276772260665894,0.003757476806640625,-0.02059656381607056,2,-0.04575187681061683,0.6589158857530136,-0.04343532790310249,0.7495664386710434,0.9838279485702515,0.1258285939693451,-0.1274732351303101,38.83939361572266,19.85410308837891,27.86306762695312,2,8483.8501285,4,2,1580904768.091295,1580903939.50652,310,0.6342893,0,0,316.4492,1,0,1580904750.097481,8481.676020000001,0,3.107361,97.167
1580904768.585599,137,0,1580904337.000819,41.20701635159924,29.07533761282497,172.748,-1,-1,5.74967098236084,48.00724964208526,-9999,8484.346466500001,1.003311157226562,0.1271209716796875,-0.133270263671875,8484.341431500001,-0.004762134005834221,1.443397661745389,-0.125968314438038,-0.02446049079298973,0.1421393603086472,0.02358454652130604,-0.008022606372833252,-0.003129363059997559,-0.02914869785308838,2,-0.04567988241622845,0.6594615588952314,-0.04336743168590514,0.7490948124468362,0.9840364456176758,0.1256354302167892,-0.1260475963354111,38.79758453369141,19.80033302307129,27.8253173828125,2,8483.8501285,4,2,1580904768.091295,1580903939.50652,310,0.6342893,0,0,316.4492,1,0,1580904750.097481,8481.676020000001,0,3.107361,97.167
1580904768.586613,138,0,1580904337.000819,41.20701635159924,29.07533761282497,172.748,-1,-1,5.74967098236084,48.00724964208526,-9999,8484.3565065,0.9875030517578125,0.1298828125,-0.129730224609375,8484.3514715,-0.004534274236530908,1.444347263365517,-0.1257913288925066,-0.0219317302107811,0.09447332471609116,0.01887644454836845,0.0187220573425293,0.001608669757843018,-0.008520066738128662,2,-0.04566817989116811,0.6598154778484064,-0.04324543664182014,0.7487908673666007,0.9841777086257935,0.1254598498344421,-0.1251159012317657,38.79758453369141,19.80033302307129,27.8253173828125,2,8483.8501285,4,2,1580904768.091295,1580903939.50652,310,0.6342893,0,0,316.4492,1,0,1580904750.097481,8481.676020000001,0,3.107361,97.167
1580904768.593724,139,0,1580904337.000819,41.20701635159924,29.07533761282497,172.748,-1,-1,5.74967098236084,48.00724964208526,-9999,8484.3665475,0.95391845703125,0.130767822265625,-0.1437225341796875,8484.361511500001,-0.004457396069494076,1.445021926925261,-0.1254612950272767,-0.02055487595498562,0.06393885612487793,0.03590895608067513,0.0027884840965271,0.004698053002357483,-0.005639314651489258,2,-0.04555540384295263,0.660072854424226,-0.04312318162074763,0.7485778528119758,0.9843028783798218,0.1251324117183685,-0.124457061290741,38.72919464111328,19.71004867553711,28.0374755859375,2,8483.8501285,4,2,1580904768.091295,1580903939.50652,310,0.6342893,0,0,316.4492,1,0,1580904750.097481,8481.676020000001,0,3.107361,97.167
1580904768.604147,140,0,1580904337.000819,41.20701635159924,29.07533761282497,172.748,-1,-1,5.74967098236084,48.00724964208526,-9999,8484.3766185,0.9510955810546875,0.1264801025390625,-0.15142822265625,8484.371552500001,-0.004210651865112945,1.445761013778642,-0.1249586631004076,-0.01776593178510666,0.07188071310520172,0.05352666974067688,-0.03095030784606934,0.006081975996494293,-0.0203515887260437,2,-0.04543281798005281,0.660353815389316,-0.04288177400050695,0.7483514756825753,0.9844570159912109,0.1246337220072746,-0.1237373948097229,38.72919464111328,19.71004867553711,28.0374755859375,2,8483.8501285,4,2,1580904768.091295,1580903939.50652,310,0.6342893,0,0,316.4492,1,0,1580904750.097481,8481.676020000001,0,3.107361,97.167
1580904768.634118,141,0,1580904337.000819,41.20701635159924,29.07533761282497,172.748,-1,-1,5.74967098236084,48.00724964208526,-9999,8484.3866585,0.9685211181640625,0.120147705078125,-0.1496429443359375,8484.3815925,-0.00407723122835541,1.44662116459283,-0.1244268028980984,-0.02213884145021439,0.08465351164340973,0.05786548554897308,-0.03394502401351929,0.002322182059288025,-0.02889645099639893,2,-0.04525946461854259,0.6606831390212776,-0.04267576999124784,0.7480829183745499,0.9846285581588745,0.1241059899330139,-0.122898742556572,38.72628784179688,19.82143783569336,28.09762573242188,2,8483.8501285,4,2,1580904768.091295,1580903939.50652,310,0.6342893,0,0,316.4492,1,0,1580904750.097481,8481.676020000001,0,3.107361,97.167
1580904768.635477,142,0,1580904337.000819,41.20701635159924,29.07533761282497,172.748,-1,-1,5.74967098236084,48.00724964208526,-9999,8484.396698500001,0.9860687255859375,0.120208740234375,-0.1424713134765625,8484.391632500001,-0.003743358408929642,1.447485981886553,-0.1240093538164293,-0.02834564447402954,0.08513587713241577,0.04648194834589958,-0.01667702198028564,-0.003595851361751556,-0.02795702219009399,2,-0.04519523420577114,0.6610072805922079,-0.04243257083820591,0.7478142353751559,0.984785795211792,0.1236917525529861,-0.1220535337924957,38.72628784179688,19.82143783569336,28.09762573242188,2,8483.8501285,4,2,1580904768.091295,1580903939.50652,310,0.6342893,0,0,316.4492,1,0,1580904750.097481,8481.676020000001,0,3.107361,97.167
1580904768.63661,143,0,1580904337.000819,41.20701635159924,29.07533761282497,172.748,-1,-1,5.74967098236084,48.00724964208526,-9999,8484.4067385,0.9775543212890625,0.12152099609375,-0.1385955810546875,8484.4016725,-0.003565127077517693,1.448209720501454,-0.1236958332738375,-0.02872860617935658,0.06744343787431717,0.03478454425930977,0.0007440447807312012,-0.003223523497581482,-0.02149337530136108,2,-0.04512159168921504,0.6612800272394632,-0.0422786550762743,0.7475863955090667,0.9849125146865845,0.1233806386590004,-0.1213455349206924,38.76638793945312,19.76391220092773,28.18914794921875,2,8483.8501285,4,2,1580904768.091295,1580903939.50652,310,0.6342893,0,0,316.4492,1,0,1580904750.097481,8481.676020000001,0,3.107361,97.167
1580904768.643963,144,0,1580904337.000819,41.20701635159924,29.07533761282497,172.748,-1,-1,5.74967098236084,48.00724964208526,-9999,8484.416779500001,0.96209716796875,0.1219329833984375,-0.1425933837890625,8484.4117135,-0.003222343994351626,1.44890796421242,-0.1233950360237496,-0.03053738363087177,0.06581898778676987,0.03361578285694122,-0.007891654968261719,-0.001612648367881775,-0.01830118894577026,2,-0.04510778767653822,0.661539216147724,-0.0420668416972786,0.7473698499617385,0.9850338697433472,0.1230821311473846,-0.1206623092293739,38.76638793945312,19.76391220092773,28.18914794921875,2,8483.8501285,4,2,1580904768.091295,1580903939.50652,310,0.6342893,0,0,316.4492,1,0,1580904750.097481,8481.676020000001,0,3.107361,97.167
1580904768.65404,145,0,1580904337.000819,41.20701635159924,29.07533761282497,172.748,-1,-1,5.74967098236084,48.00724964208526,-9999,8484.4268195,0.9679107666015625,0.12445068359375,-0.1427154541015625,8484.4217845,-0.003065865750337902,1.449615574399251,-0.1230926472231279,-0.02667313814163208,0.06815830618143082,0.03398729115724564,-0.02347099781036377,-0.0009004697203636169,-0.02299207448959351,2,-0.04503169780616219,0.6618060752379764,-0.04192431150762292,0.7471460320215367,0.9851557016372681,0.1227820366621017,-0.1199697330594063,38.82490539550781,19.55771255493164,28.05105590820312,2,8483.8501285,4,2,1580904768.091295,1580903939.50652,310,0.6342893,0,0,316.4492,1,0,1580904750.097481,8481.676020000001,0,3.107361,97.167
1580904768.664004,146,0,1580904337.000819,41.20701635159924,29.07533761282497,172.748,-1,-1,5.74967098236084,48.00724964208526,-9999,8484.4368595,0.988250732421875,0.119140625,-0.1409149169921875,8484.431824500001,-0.00277322608489226,1.450315810687271,-0.1229220385166954,-0.0265340767800808,0.06823618710041046,0.02142966538667679,-0.01776206493377686,0.00178663432598114,-0.02380174398422241,2,-0.04505016413492817,0.6620644145231662,-0.04177431538122392,0.7469244912540263,0.9852603673934937,0.1226127147674561,-0.1192823871970177,38.82490539550781,19.55771255493164,28.05105590820312,2,8483.8501285,4,2,1580904768.091295,1580903939.50652,310,0.6342893,0,0,316.4492,1,0,1580904750.097481,8481.676020000001,0,3.107361,97.167
1580904768.674267,147,0,1580904337.000819,41.20701635159924,29.07533761282497,172.748,-1,-1,5.74967098236084,48.00724964208526,-9999,8484.446900500001,1.015090942382812,0.1156005859375,-0.1348876953125,8484.441864500001,-0.002632178121536227,1.450857873516869,-0.1230407066719374,-0.03119966946542263,0.05047983303666115,-0.007318891119211912,0.00252765417098999,-0.003641277551651001,-0.0225374698638916,2,-0.04512985994719347,0.6622612949051564,-0.04177315162555717,0.7467451279511678,0.9853103756904602,0.1227304860949516,-0.1187465488910675,38.89792633056641,19.62861633300781,28.3934326171875,2,8483.8501285,4,2,1580904768.091295,1580903939.50652,310,0.6342893,0,0,316.4492,1,0,1580904750.097481,8481.676020000001,0,3.107361,97.167
1580904768.702296,148,0,1580904337.000819,41.20701635159924,29.07533761282497,172.748,-1,-1,5.74967098236084,48.00724964208526,-9999,8484.4569405,1.013748168945312,0.118194580078125,-0.1321258544921875,8484.4519045,-0.002345034063962221,1.451116555977771,-0.1234883221665818,-0.03306738659739494,0.02346141077578068,-0.04099000990390778,0.02939176559448242,-0.00762571394443512,-0.01677197217941284,2,-0.04538668209170234,0.6623424402888771,-0.04182000560195302,0.7466549220494518,0.9852863550186157,0.1231747046113014,-0.1184850782155991,38.89792633056641,19.62861633300781,28.3934326171875,2,8483.8501285,4,2,1580904768.091295,1580903939.50652,310,0.6342893,0,0,316.4492,1,0,1580904750.097481,8481.676020000001,0,3.107361,97.167
1580904768.703618,149,0,1580904337.000819,41.20701635159924,29.07533761282497,172.748,-1,-1,5.74967098236084,48.00724964208526,-9999,8484.466980500001,1.0009765625,0.1197967529296875,-0.1357574462890625,8484.461945500001,-0.002210488153198805,1.451130761674062,-0.1241933254836929,-0.03821980208158493,-0.001772308722138405,-0.06785811483860016,0.0281338095664978,-0.005731627345085144,-0.0140344500541687,2,-0.04569416853550692,0.6623305050086846,-0.04200353698791826,0.7466364613965485,0.9852015972137451,0.1238743141293526,-0.1184606924653053,38.699951171875,19.78542327880859,28.55917358398438,2,8483.8501285,4,2,1580904768.091295,1580903939.50652,310,0.6342893,0,0,316.4492,1,0,1580904750.097481,8481.676020000001,0,3.107361,97.167
1580904768.704839,150,0,1580904337.000819,41.20701635159924,29.07533761282497,172.748,-1,-1,5.74967098236084,48.00724964208526,-9999,8484.4770205,0.9755096435546875,0.122222900390625,-0.135711669921875,8484.4719855,-0.001950985099724657,1.451038627264897,-0.1250045870669612,-0.03495620936155319,-0.01102553773671389,-0.07828211784362793,0.01547318696975708,-0.004934757947921753,-0.01758736371994019,2,-0.04608493905134951,0.6622737105802718,-0.0421731530309554,0.7466532991940467,0.9850906133651733,0.1246792823076248,-0.118539422750473,38.699951171875,19.78542327880859,28.55917358398438,2,8483.8501285,4,2,1580904768.091295,1580903939.50652,310,0.6342893,0,0,316.4492,1,0,1580904750.097481,8481.676020000001,0,3.107361,97.167
1580904768.714193,151,0,1580904337.000819,41.20701635159924,29.07533761282497,172.748,-1,-1,5.74967098236084,48.00724964208526,-9999,8484.4870615,0.9602813720703125,0.121124267578125,-0.142669677734375,8484.482025500001,-0.001847798087042496,1.450845144382226,-0.1257532205992729,-0.03738900646567345,-0.02817443013191223,-0.06717008352279663,-0.009877800941467285,-0.003251686692237854,-0.01736211776733398,2,-0.04640271895779615,0.662183795225924,-0.04237800423484354,0.7467017867625286,0.98497474193573,0.1254220455884933,-0.1187188178300858,38.58457183837891,19.57800102233887,28.49923706054688,2,8483.8501285,4,2,1580904768.091295,1580903939.50652,310,0.6342893,0,0,316.4492,1,0,1580904750.097481,8481.676020000001,0,3.107361,97.167
1580904768.724228,152,0,1580904337.000819,41.20701635159924,29.07533761282497,172.748,-1,-1,5.74967098236084,48.00724964208526,-9999,8484.497101500001,0.9329833984375,0.1313018798828125,-0.142974853515625,8484.492066500001,-0.001658717858228331,1.450766155673145,-0.1263993312842064,-0.02602612227201462,-0.01088729873299599,-0.06143142282962799,-0.025016188621521,-0.004991590976715088,-0.02425217628479004,2,-0.0467082482026477,0.6621366129907036,-0.04251945956484228,0.7467165319056378,0.9848846793174744,0.1260630190372467,-0.1187868937849998,38.58457183837891,19.57800102233887,28.49923706054688,2,8483.8501285,4,2,1580904768.091295,1580903939.50652,310,0.6342893,0,0,316.4492,1,0,1580904750.097481,8481.676020000001,0,3.107361,97.167
1580904768.734499,153,0,1580904337.000819,41.20701635159924,29.07533761282497,172.748,-1,-1,5.74967098236084,48.00724964208526,-9999,8484.5071725,0.9274139404296875,0.1343536376953125,-0.1404571533203125,8484.5021065,-0.001685414525386588,1.450822848334461,-0.1268103446965818,-0.01785154826939106,0.007675200700759888,-0.03823981434106827,-0.0522695779800415,0.004778102040290833,-0.02461957931518555,2,-0.04685166910781193,0.6621499088747076,-0.0426668134320654,0.7466873215839805,0.9848398566246033,0.1264707446098328,-0.1187248378992081,38.63938903808594,19.83354187011719,28.58743286132812,2,8483.8501285,4,2,1580904768.091295,1580903939.50652,310,0.6342893,0,0,316.4492,1,0,1580904750.097481,8481.676020000001,0,3.107361,97.167
1580904768.760011,154,0,1580904337.000819,41.20701635159924,29.07533761282497,172.748,-1,-1,5.74967098236084,48.00724964208526,-9999,8484.517212500001,0.95440673828125,0.13739013671875,-0.127655029296875,8484.512146500001,-0.00167432300630117,1.450746121797645,-0.1270175239030117,-0.003354939632117748,-0.004037560895085335,-0.01941432058811188,-0.05780375003814697,0.007624268531799316,-0.02202945947647095,2,-0.04693433675371664,0.6621167123509151,-0.04272945806784546,0.7467079440605826,0.9848046898841858,0.1266762614250183,-0.1187972575426102,38.63938903808594,19.83354187011719,28.58743286132812,2,8483.8501285,4,2,1580904768.091295,1580903939.50652,310,0.6342893,0,0,316.4492,1,0,1580904750.097481,8481.676020000001,0,3.107361,97.167
1580904768.761401,155,0,1580904337.000819,41.20701635159924,29.07533761282497,172.748,-1,-1,5.74967098236084,48.00724964208526,-9999,8484.5272525,0.980865478515625,0.1356048583984375,-0.119659423828125,8484.5221865,-0.001921397393639941,1.450194224694756,-0.127117980320602,0.007095837034285069,-0.05310097709298134,-0.01045038737356663,-0.03073269128799438,0.01056104898452759,-0.00868523120880127,2,-0.04690187370547122,0.6619143467224901,-0.04284201227519641,0.746882977609558,0.9847263693809509,0.1267759054899216,-0.119339220225811,38.65976715087891,19.77803802490234,28.431884765625,2,8483.8501285,4,2,1580904768.091295,1580903939.50652,310,0.6342893,0,0,316.4492,1,0,1580904750.097481,8481.676020000001,0,3.107361,97.167
1580904768.764455,156,0,1580904337.000819,41.20701635159924,29.07533761282497,172.748,-1,-1,5.74967098236084,48.00724964208526,-9999,8484.537293500001,0.9794464111328125,0.12933349609375,-0.12652587890625,8484.5322275,-0.002049624488956408,1.449155300194038,-0.1271984873586668,0.013244085945189,-0.1039408817887306,-0.009659702889621258,-0.004139184951782227,0.008695885539054871,0.0003326535224914551,2,-0.04691179106608266,0.6615276216396891,-0.04289217379505128,0.7472220451443428,0.9845917224884033,0.1268557608127594,-0.1203609779477119,38.65976715087891,19.77803802490234,28.431884765625,2,8483.8501285,4,2,1580904768.091295,1580903939.50652,310,0.6342893,0,0,316.4492,1,0,1580904750.097481,8481.676020000001,0,3.107361,97.167
1580904768.774492,157,0,1580904337.000819,41.20701635159924,29.07533761282497,172.748,-1,-1,5.74967098236084,48.00724964208526,-9999,8484.547333500001,0.9646148681640625,0.1185455322265625,-0.1503448486328125,8484.542267500001,-0.002233440904110176,1.448062562708819,-0.1273441812724696,0.002733655273914337,-0.1119780316948891,-0.01578390784561634,-0.005407810211181641,0.002279967069625854,-0.005459845066070557,2,-0.04692892221635916,0.6611205688561882,-0.04298339984828049,0.747575877070548,0.9844412207603455,0.1270002871751785,-0.1214345395565033,38.79937744140625,19.82118225097656,28.35916137695312,2,8483.8501285,4,2,1580904768.091295,1580903939.50652,310,0.6342893,0,0,316.4492,1,0,1580904750.097481,8481.676020000001,0,3.107361,97.167
1580904768.784607,158,0,1580904337.000819,41.20701635159924,29.07533761282497,172.748,-1,-1,5.74967098236084,48.00724964208526,-9999,8484.5573735,0.9630889892578125,0.1161651611328125,-0.158233642578125,8484.5523385,-0.002125793136495087,1.447268553373807,-0.1275679146157279,-0.01381468214094639,-0.07670721411705017,-0.02109201066195965,-0.0201144814491272,-0.008730053901672363,-0.02850049734115601,2,-0.04706521940371981,0.6608165712686305,-0.04299842774330485,0.7478351543003672,0.9843162894248962,0.1272221952676773,-0.1222126483917236,38.79937744140625,19.82118225097656,28.35916137695312,2,8483.8501285,4,2,1580904768.091295,1580903939.50652,310,0.6342893,0,0,316.4492,1,0,1580904750.097481,8481.676020000001,0,3.107361,97.167
1580904768.819469,159,0,1580904337.000819,41.20701635159924,29.07533761282497,172.748,-1,-1,5.74967098236084,48.00724964208526,-9999,8484.567413500001,0.9755706787109375,0.119293212890625,-0.148651123046875,8484.562378500001,-0.002095895176036505,1.446555415300018,-0.1278771043871548,-0.02293920516967773,-0.07067541778087616,-0.02987192012369633,-0.02151381969451904,-0.01141723990440369,-0.03569197654724121,2,-0.04720608392621691,0.6605427610084916,-0.04307256053481634,0.7480638903274012,0.9841898083686829,0.1275288760662079,-0.1229096949100494,38.78610992431641,19.83276748657227,28.48028564453125,2,8483.8501285,4,2,1580904768.091295,1580903939.50652,310,0.6342893,0,0,316.4492,1,0,1580904750.097481,8481.676020000001,0,3.107361,97.167
1580904768.821088,160,0,1580904337.000819,41.20701635159924,29.07533761282497,172.748,-1,-1,5.74967098236084,48.00724964208526,-9999,8484.5774545,0.97589111328125,0.1312713623046875,-0.1393890380859375,8484.5724185,-0.002109385148570725,1.44582825009083,-0.1282794086036879,-0.02055203542113304,-0.06624740362167358,-0.03822369500994682,-0.008891701698303223,-0.008688405156135559,-0.02540028095245361,2,-0.0473678276818043,0.6602626972931828,-0.04319323756704872,0.7482938853149375,0.9840491414070129,0.1279278844594955,-0.1236189156770706,38.73358154296875,20.0817985534668,28.32757568359375,2,8483.8501285,4,2,1580904768.091295,1580903939.50652,310,0.6342893,0,0,316.4492,1,0,1580904750.097481,8481.676020000001,0,3.107361,97.167
