loggingTime,loggingSample,identifierForVendor,locationTimestamp_since1970,locationLatitude,locationLongitude,locationAltitude,locationSpeed,locationCourse,locationVerticalAccuracy,locationHorizontalAccuracy,locationFloor,accelerometerTimestamp_sinceReboot,accelerometerAccelerationX,accelerometerAccelerationY,accelerometerAccelerationZ,motionTimestamp_sinceReboot,motionYaw,motionRoll,motionPitch,motionRotationRateX,motionRotationRateY,motionRotationRateZ,motionUserAccelerationX,motionUserAccelerationY,motionUserAccelerationZ,motionAttitudeReferenceFrame,motionQuaternionX,motionQuaternionY,motionQuaternionZ,motionQuaternionW,motionGravityX,motionGravityY,motionGravityZ,motionMagneticFieldX,motionMagneticFieldY,motionMagneticFieldZ,motionMagneticFieldCalibrationAccuracy,activityTimestamp_sinceReboot,activity,activityActivityConfidence,activityActivityStartDate,pedometerStartDate,pedometerNumberofSteps,pedometerAverageActivePace,pedometerCurrentPace,pedometerCurrentCadence,pedometerDistance,pedometerFloorAscended,pedometerFloorDescended,pedometerEndDate,altimeterTimestamp_sinceReboot,altimeterReset,altimeterRelativeAltitude,altimeterPressure
1580904826.326658,1,0,1580904337.000819,41.20701635159924,29.07533761282497,172.748,-1,-1,5.74967098236084,48.00724964208526,-9999,8542.051765,0.919525146484375,0.1229095458984375,-0.2347412109375,8542.04673,2.609368986129248,1.330973633048557,-0.1134799578583862,-0.0003138277679681778,0.004885297268629074,0.02496767416596413,-0.02162039279937744,0.009678483009338379,0.005082964897155762,2,0.6064812426591917,-0.1190764684561361,-0.7484982717402402,-0.2403154423108289,0.9651321768760681,0.1132365539669991,-0.2360025942325592,38.17179870605469,11.95087051391602,1.0029296875,2,8541.948829000001,2,0,1580904826.189995,1580903939.50652,372,0.6209624,0.992496,1.702128,385.6992,1,0,1580904816.945688,8539.037045999999,0,2.565704,97.17329
1580904826.327977,2,0,1580904337.000819,41.20701635159924,29.07533761282497,172.748,-1,-1,5.74967098236084,48.00724964208526,-9999,8542.061805000001,0.925811767578125,0.1153564453125,-0.2437591552734375,8542.056770000001,2.609490707370623,1.331395920670202,-0.1131895522188836,-0.004345771856606007,0.04041223227977753,0.03082560561597347,-0.046211838722229,0.009906172752380371,0.0004868507385253906,2,0.6066214224338812,-0.1192016532610843,-0.7484147207866365,-0.2401601272633139,0.9652637839317322,0.112948015332222,-0.2356028258800507,38.17179870605469,11.95087051391602,1.0029296875,2,8541.948829000001,2,0,1580904826.189995,1580903939.50652,372,0.6209624,0.992496,1.702128,385.6992,1,0,1580904816.945688,8539.037045999999,0,2.565704,97.17329
1580904826.329177,3,0,1580904337.000819,41.20701635159924,29.07533761282497,172.748,-1,-1,5.74967098236084,48.00724964208526,-9999,8542.071845,0.9272003173828125,0.1148223876953125,-0.24066162109375,8542.06681,2.609673170033844,1.332127475403637,-0.1129023531230778,-0.008567946963012218,0.07291717827320099,0.03235985338687897,-0.04012876749038696,0.002638578414916992,-0.009229719638824463,2,0.6068812094995508,-0.1193442213818373,-0.7482442071977609,-0.2399644988748791,0.9654674530029297,0.1126626431941986,-0.2349043041467667,38.14925384521484,11.91719245910645,0.96502685546875,2,8541.948829000001,2,0,1580904826.189995,1580903939.50652,372,0.6209624,0.992496,1.702128,385.6992,1,0,1580904816.945688,8539.037045999999,0,2.565704,97.17329
1580904826.330318,4,0,1580904337.000819,41.20701635159924,29.07533761282497,172.748,-1,-1,5.74967098236084,48.00724964208526,-9999,8542.081886,0.938262939453125,0.1174468994140625,-0.2360687255859375,8542.076850000001,2.609925556717412,1.333062281783848,-0.1125727740364013,-0.01539895497262478,0.09241098165512085,0.03995678573846817,-0.03899586200714111,0.002432107925415039,-0.007027029991149902,2,0.6072175341524944,-0.1195059862713219,-0.7480243568528042,-0.2397179921571688,0.9657225012779236,0.1123351603746414,-0.2340103685855865,38.14925384521484,11.91719245910645,0.96502685546875,2,8541.948829000001,2,0,1580904826.189995,1580903939.50652,372,0.6209624,0.992496,1.702128,385.6992,1,0,1580904816.945688,8539.037045999999,0,2.565704,97.17329
1580904826.355065,5,0,1580904337.000819,41.20701635159924,29.07533761282497,172.748,-1,-1,5.74967098236084,48.00724964208526,-9999,8542.091957000001,0.9564208984375,0.1215057373046875,-0.22723388671875,8542.086891000001,2.61018821604292,1.333996562484582,-0.1122281205837165,-0.01728505082428455,0.09185092151165009,0.04066193848848343,-0.02818936109542847,0.005399256944656372,-0.00332796573638916,2,0.6075528905551965,-0.1196701650953212,-0.7478073467028113,-0.2394632157544249,0.9659782648086548,0.1119926795363426,-0.2331170737743378,38.29021453857422,11.99658584594727,1.027069091796875,2,8541.948829000001,2,0,1580904826.189995,1580903939.50652,372,0.6209624,0.992496,1.702128,385.6992,1,0,1580904816.945688,8539.037045999999,0,2.565704,97.17329
1580904826.356222,6,0,1580904337.000819,41.20701635159924,29.07533761282497,172.748,-1,-1,5.74967098236084,48.00724964208526,-9999,8542.101997,0.9593048095703125,0.121368408203125,-0.223876953125,8542.096931,2.610419510127314,1.334766656878918,-0.1118856264319373,-0.01479875016957521,0.07385443150997162,0.0386926606297493,-0.01024788618087769,0.009798586368560791,0.004771530628204346,2,0.6078251144531652,-0.119823203830426,-0.74763606191548,-0.2392305155005804,0.9661946892738342,0.1116523370146751,-0.23238205909729,38.35150909423828,11.95890998840332,1.180328369140625,2,8541.948829000001,2,0,1580904826.189995,1580903939.50652,372,0.6209624,0.992496,1.702128,385.6992,1,0,1580904816.945688,8539.037045999999,0,2.565704,97.17329
1580904826.357099,7,0,1580904337.000819,41.20701635159924,29.07533761282497,172.748,-1,-1,5.74967098236084,48.00724964208526,-9999,8542.112037000001,0.951873779296875,0.1181640625,-0.227142333984375,8542.106971000001,2.610610714383957,1.335406256777901,-0.1115665958938775,-0.01000133156776428,0.05946004018187523,0.03671179711818695,-0.007547140121459961,0.009978443384170532,0.007518410682678223,2,0.6080481452212557,-0.119963697983123,-0.7474971225852373,-0.2390273972797003,0.9663776755332947,0.1113352924585342,-0.2317723333835602,38.35150909423828,11.95890998840332,1.180328369140625,2,8541.948829000001,2,0,1580904826.189995,1580903939.50652,372,0.6209624,0.992496,1.702128,385.6992,1,0,1580904816.945688,8539.037045999999,0,2.565704,97.17329
1580904826.357859,8,0,1580904337.000819,41.20701635159924,29.07533761282497,172.748,-1,-1,5.74967098236084,48.00724964208526,-9999,8542.122077,0.942840576171875,0.1111297607421875,-0.2350921630859375,8542.117011,2.610806074129608,1.336125948612384,-0.1113678302179094,-0.01473829708993435,0.06947246193885803,0.02403728105127811,-0.01516634225845337,0.006971746683120728,0.003562271595001221,2,0.6083116814223288,-0.1200663647418232,-0.7473219865444932,-0.2388530733591541,0.9665658473968506,0.1111377626657486,-0.2310819327831268,38.18978118896484,11.89407539367676,1.43621826171875,2,8541.948829000001,2,0,1580904826.189995,1580903939.50652,372,0.6209624,0.992496,1.702128,385.6992,1,0,1580904816.945688,8539.037045999999,0,2.565704,97.17329
1580904826.359157,9,0,1580904337.000819,41.20701635159924,29.07533761282497,172.748,-1,-1,5.74967098236084,48.00724964208526,-9999,8542.132118000001,0.9477691650390625,0.1132354736328125,-0.231109619140625,8542.127052,2.6109868238908,1.336963760024182,-0.1112754280989485,-0.01525068841874599,0.08231103420257568,0.01369170099496841,-0.024402916431427,2.932548522949219e-05,-0.005195438861846924,2,0.6086275771629092,-0.1201467737871096,-0.7470981865315388,-0.2387082144085851,0.9667691588401794,0.1110459342598915,-0.2302744537591934,38.18978118896484,11.89407539367676,1.43621826171875,2,8541.948829000001,2,0,1580904826.189995,1580903939.50652,372,0.6209624,0.992496,1.702128,385.6992,1,0,1580904816.945688,8539.037045999999,0,2.565704,97.17329
1580904826.36974,10,0,1580904337.000819,41.20701635159924,29.07533761282497,172.748,-1,-1,5.74967098236084,48.00724964208526,-9999,8542.142158000001,0.9575347900390625,0.115997314453125,-0.22552490234375,8542.137123,2.611160293068467,1.337746872228545,-0.1112634562279731,-0.01705057919025421,0.07780274748802185,0.004432817921042442,-0.01965594291687012,0.002146869897842407,-0.001970410346984863,2,0.6089294777700008,-0.1201919691062265,-0.7468816181376854,-0.238592799543206,0.9669503569602966,0.1110340356826782,-0.2295175641775131,38.37284088134766,11.91233062744141,1.493804931640625,2,8541.948829000001,2,0,1580904826.189995,1580903939.50652,372,0.6209624,0.992496,1.702128,385.6992,1,0,1580904816.945688,8539.037045999999,0,2.565704,97.17329
1580904826.379234,11,0,1580904337.000819,41.20701635159924,29.07533761282497,172.748,-1,-1,5.74967098236084,48.00724964208526,-9999,8542.152198,0.95001220703125,0.1238861083984375,-0.221221923828125,8542.147163,2.611304861215373,1.338370570405533,-0.1112095241226138,-0.01301828771829605,0.06130765751004219,0.009536765515804291,-0.01003926992416382,0.004962354898452759,0.003012299537658691,2,0.6091663990831796,-0.120242984612978,-0.7467145566403794,-0.2384855832884376,0.9670992493629456,0.110980436205864,-0.2289158403873444,38.37284088134766,11.91233062744141,1.493804931640625,2,8541.948829000001,2,0,1580904826.189995,1580903939.50652,372,0.6209624,0.992496,1.702128,385.6992,1,0,1580904816.945688,8539.037045999999,0,2.565704,97.17329
1580904826.38957,12,0,1580904337.000819,41.20701635159924,29.07533761282497,172.748,-1,-1,5.74967098236084,48.00724964208526,-9999,8542.162239000001,0.9351806640625,0.122467041015625,-0.2259674072265625,8542.157203000001,2.611393340303299,1.338968023862897,-0.111092744404994,-0.005186112597584724,0.05883079022169113,0.01398766599595547,-0.01771128177642822,0.01296722888946533,0.006739914417266846,2,0.6093847371245796,-0.1203318870302027,-0.746554940017682,-0.2383823279052448,0.9672483801841736,0.1108643785119057,-0.2283409535884857,38.32416534423828,11.84427833557129,1.521881103515625,2,8541.948829000001,2,0,1580904826.189995,1580903939.50652,372,0.6209624,0.992496,1.702128,385.6992,1,0,1580904816.945688,8539.037045999999,0,2.565704,97.17329
1580904826.413726,13,0,1580904337.000819,41.20701635159924,29.07533761282497,172.748,-1,-1,5.74967098236084,48.00724964208526,-9999,8542.172279,0.92724609375,0.117034912109375,-0.2327880859375,8542.167243,2.611487669613561,1.339752217128174,-0.1109354920153017,-0.005666013807058334,0.07640978693962097,0.01780184544622898,-0.03273868560791016,0.01170453429222107,0.001239538192749023,2,0.609669571600707,-0.1204567089492659,-0.7463433294198291,-0.2382538235525865,0.9674441814422607,0.110708087682724,-0.2275863885879517,38.32416534423828,11.84427833557129,1.521881103515625,2,8541.948829000001,2,0,1580904826.189995,1580903939.50652,372,0.6209624,0.992496,1.702128,385.6992,1,0,1580904816.945688,8539.037045999999,0,2.565704,97.17329
1580904826.415035,14,0,1580904337.000819,41.20701635159924,29.07533761282497,172.748,-1,-1,5.74967098236084,48.00724964208526,-9999,8542.182319000001,0.92645263671875,0.116058349609375,-0.2326507568359375,8542.177284000001,2.611610073441383,1.340836014206367,-0.110731395691598,-0.007477460894733667,0.1063602790236473,0.02438213862478733,-0.04094141721725464,0.006475359201431274,-0.006625056266784668,2,0.610063780407063,-0.1206264375176707,-0.7460482867455339,-0.2380829267690524,0.9677122831344604,0.1105052456259727,-0.2265428900718689,38.34667205810547,11.73678398132324,1.66424560546875,2,8541.948829000001,2,0,1580904826.189995,1580903939.50652,372,0.6209624,0.992496,1.702128,385.6992,1,0,1580904816.945688,8539.037045999999,0,2.565704,97.17329
1580904826.419411,15,0,1580904337.000819,41.20701635159924,29.07533761282497,172.748,-1,-1,5.74967098236084,48.00724964208526,-9999,8542.192359000001,0.94329833984375,0.118194580078125,-0.227386474609375,8542.187324,2.611742065638615,1.342082542180759,-0.1105135836419631,-0.007906230166554451,0.1245355680584908,0.02489666454493999,-0.04203999042510986,0.005715429782867432,-0.007689237594604492,2,0.61051793546925,-0.1208176742101379,-0.7457058422027348,-0.237894449985235,0.9680172801017761,0.1102887690067291,-0.2253418862819672,38.34667205810547,11.73678398132324,1.66424560546875,2,8541.948829000001,2,0,1580904826.189995,1580903939.50652,372,0.6209624,0.992496,1.702128,385.6992,1,0,1580904816.945688,8539.037045999999,0,2.565704,97.17329
1580904826.429405,16,0,1580904337.000819,41.20701635159924,29.07533761282497,172.748,-1,-1,5.74967098236084,48.00724964208526,-9999,8542.2024,0.963348388671875,0.1212158203125,-0.217376708984375,8542.197364,2.611862974794039,1.343229263267632,-0.1103040520399957,-0.007688959129154682,0.1118232309818268,0.02272320911288261,-0.02547454833984375,0.00806000828742981,-0.003530561923980713,2,0.6109347514376461,-0.120997075874131,-0.7453913822724934,-0.237718401782991,0.9682974815368652,0.1100805103778839,-0.2242368757724762,38.40675354003906,11.76309585571289,1.626434326171875,2,8541.948829000001,2,0,1580904826.189995,1580903939.50652,372,0.6209624,0.992496,1.702128,385.6992,1,0,1580904816.945688,8539.037045999999,0,2.565704,97.17329
1580904826.439496,17,0,1580904337.000819,41.20701635159924,29.07533761282497,172.748,-1,-1,5.74967098236084,48.00724964208526,-9999,8542.21247,0.9638519287109375,0.12115478515625,-0.2153167724609375,8542.207405000001,2.611930116769313,1.344193848680423,-0.1101125675783142,-0.001951444894075394,0.096864253282547,0.01926855556666851,-0.005660891532897949,0.01127165555953979,0.00554955005645752,2,0.6112818202347997,-0.1211642629792715,-0.7451242543693291,-0.2375786748230314,0.9685339331626892,0.1098901852965355,-0.2233075201511383,38.40675354003906,11.76309585571289,1.626434326171875,2,8541.948829000001,2,0,1580904826.189995,1580903939.50652,372,0.6209624,0.992496,1.702128,385.6992,1,0,1580904816.945688,8539.037045999999,0,2.565704,97.17329
1580904826.449521,18,0,1580904337.000819,41.20701635159924,29.07533761282497,172.748,-1,-1,5.74967098236084,48.00724964208526,-9999,8542.222511,0.9578704833984375,0.12060546875,-0.2153472900390625,8542.217445,2.611968212128054,1.344957697010292,-0.1099587792019764,-0.0009850934147834778,0.07564590871334076,0.01599595323204994,-0.005344390869140625,0.01136356592178345,0.006872951984405518,2,0.6115554910740667,-0.1213019960030838,-0.744910954800248,-0.2374728905580634,0.9687206149101257,0.109737329185009,-0.2225714176893234,38.38608551025391,11.67613410949707,1.735015869140625,2,8541.948829000001,2,0,1580904826.189995,1580903939.50652,372,0.6209624,0.992496,1.702128,385.6992,1,0,1580904816.945688,8539.037045999999,0,2.565704,97.17329
1580904826.481254,19,0,1580904337.000819,41.20701635159924,29.07533761282497,172.748,-1,-1,5.74967098236084,48.00724964208526,-9999,8542.232551000001,0.9444580078125,0.1186370849609375,-0.218475341796875,8542.227485000001,2.61197951323163,1.345666560174035,-0.1097898340185717,0.001624005846679211,0.07269805669784546,0.0218338705599308,-0.01150143146514893,0.01098224520683289,0.006159424781799316,2,0.6118056816035858,-0.1214471233398108,-0.7447127709124,-0.2373759012646019,0.9688962697982788,0.1095694005489349,-0.2218888103961945,38.38608551025391,11.67613410949707,1.735015869140625,2,8541.948829000001,2,0,1580904826.189995,1580903939.50652,372,0.6209624,0.992496,1.702128,385.6992,1,0,1580904816.945688,8539.037045999999,0,2.565704,97.17329
1580904826.482584,20,0,1580904337.000819,41.20701635159924,29.07533761282497,172.748,-1,-1,5.74967098236084,48.00724964208526,-9999,8542.242591,0.9395751953125,0.119293212890625,-0.21820068359375,8542.237525,2.611977779802083,1.346349966080532,-0.1095812063032474,0.003901883959770203,0.06662531942129135,0.02203781343996525,-0.02508795261383057,0.009221315383911133,0.002373814582824707,2,0.6120421444106068,-0.1216082795058586,-0.7445247394013101,-0.2372735084850567,0.9690698981285095,0.1093620285391808,-0.221231684088707,38.42263793945312,11.71735954284668,1.628662109375,2,8541.948829000001,2,0,1580904826.189995,1580903939.50652,372,0.6209624,0.992496,1.702128,385.6992,1,0,1580904816.945688,8539.037045999999,0,2.565704,97.17329
1580904826.483547,21,0,1580904337.000819,41.20701635159924,29.07533761282497,172.748,-1,-1,5.74967098236084,48.00724964208526,-9999,8542.252632,0.9556427001953125,0.13018798828125,-0.21710205078125,8542.247566,2.611909509323952,1.347135015900399,-0.1093726591937168,0.006798071786761284,0.08398087322711945,0.02748264744877815,-0.03016650676727295,0.01008486747741699,0.001892328262329102,2,0.6123123100483546,-0.1218017951749516,-0.7442977103448082,-0.2371896823064535,0.9692655801773071,0.1091547310352325,-0.2204759120941162,38.42263793945312,11.71735954284668,1.628662109375,2,8541.948829000001,2,0,1580904826.189995,1580903939.50652,372,0.6209624,0.992496,1.702128,385.6992,1,0,1580904816.945688,8539.037045999999,0,2.565704,97.17329
1580904826.489831,22,0,1580904337.000819,41.20701635159924,29.07533761282497,172.748,-1,-1,5.74967098236084,48.00724964208526,-9999,8542.262672000001,0.9260406494140625,0.1085205078125,-0.2123565673828125,8542.257606000001,2.611919648306607,1.347827924033834,-0.1089506053298565,0.002530761063098907,0.0468297116458416,0.05746878683567047,-0.01429665088653564,0.02139934897422791,0.002328872680664062,2,0.6125345953669927,-0.1220416423885909,-0.7441298165598013,-0.2370191336736854,0.9694629311561584,0.1087351888418198,-0.2198144197463989,38.40689086914062,11.61979675292969,1.733306884765625,2,8541.948829000001,2,0,1580904826.189995,1580903939.50652,372,0.6209624,0.992496,1.702128,385.6992,1,0,1580904816.945688,8539.037045999999,0,2.565704,97.17329
1580904826.499675,23,0,1580904337.000819,41.20701635159924,29.07533761282497,172.748,-1,-1,5.74967098236084,48.00724964208526,-9999,8542.272712,0.996673583984375,0.1304168701171875,-0.206146240234375,8542.267677,2.611815144155516,1.348410390568599,-0.1085272625062416,0.0301986075937748,0.05767809972167015,0.01842018216848373,-0.04407143592834473,0.0001529157161712646,0.006519436836242676,2,0.6127086219144988,-0.1223038956743723,-0.7439821309841274,-0.2368974104342573,0.9696354866027832,0.1083143427968025,-0.2192597985267639,38.40689086914062,11.61979675292969,1.733306884765625,2,8542.266456000001,4,1,1580904826.507622,1580903939.50652,372,0.6209624,0.992496,1.702128,385.6992,1,0,1580904816.945688,8539.037045999999,0,2.565704,97.17329
1580904826.509818,24,0,1580904337.000819,41.20701635159924,29.07533761282497,172.748,-1,-1,5.74967098236084,48.00724964208526,-9999,8542.282752000001,0.9516448974609375,0.105194091796875,-0.2155609130859375,8542.277717000001,2.611762819894187,1.348561500718223,-0.1081940340599198,0.007882168516516685,0.01265895552933216,0.02690346539020538,0.02649319171905518,0.02238070964813232,0.01259112358093262,2,0.6127330407998531,-0.1224647274007235,-0.7439636367699389,-0.2368092305743815,0.969703733921051,0.1079830750823021,-0.2191212177276611,38.17665863037109,11.59012603759766,1.677215576171875,2,8542.266456000001,4,1,1580904826.507622,1580903939.50652,372,0.6209624,0.992496,1.702128,385.6992,1,0,1580904816.945688,8539.037045999999,0,2.565704,97.17329
1580904826.535145,25,0,1580904337.000819,41.20701635159924,29.07533761282497,172.748,-1,-1,5.74967098236084,48.00724964208526,-9999,8542.292793000001,0.9459686279296875,0.1241912841796875,-0.2122650146484375,8542.287757,2.611647500720764,1.348783775276746,-0.107825290660287,0.02401852607727051,0.0183850172907114,0.03462130576372147,-0.01862305402755737,-0.002475261688232422,0.002969622611999512,2,0.6127769882833533,-0.1226667966700423,-0.7439195231110397,-0.2367296199506722,0.9697912335395813,0.1076164767146111,-0.2189144343137741,38.17665863037109,11.59012603759766,1.677215576171875,2,8542.266456000001,4,1,1580904826.507622,1580903939.50652,372,0.6209624,0.992496,1.702128,385.6992,1,0,1580904816.945688,8539.037045999999,0,2.565704,97.17329
1580904826.536653,26,0,1580904337.000819,41.20701635159924,29.07533761282497,172.748,-1,-1,5.74967098236084,48.00724964208526,-9999,8542.302833,0.929962158203125,0.10791015625,-0.2272796630859375,8542.297798000001,2.611573396731695,1.34921070187486,-0.107407476686762,0.02329606376588345,0.04190769046545029,0.03279893845319748,-0.02443671226501465,0.01693746447563171,0.005860984325408936,2,0.6128953288862077,-0.1228991000044056,-0.7438225296155233,-0.2366075459251192,0.9699284434318542,0.1072010770440102,-0.2185102552175522,38.46246337890625,11.69819450378418,1.520660400390625,2,8542.266456000001,4,1,1580904826.507622,1580903939.50652,372,0.6209624,0.992496,1.702128,385.6992,1,0,1580904816.945688,8539.037045999999,0,2.565704,97.17329
1580904826.540324,27,0,1580904337.000819,41.20701635159924,29.07533761282497,172.748,-1,-1,5.74967098236084,48.00724964208526,-9999,8542.312873000001,0.910369873046875,0.118621826171875,-0.2256011962890625,8542.307838000001,2.611634502883618,1.350163527698689,-0.1067251994884911,0.01002846285700798,0.09712966531515121,0.06964270770549774,-0.04072219133377075,0.001335084438323975,-0.01006245613098145,2,0.6131947475412957,-0.1232527113173935,-0.7436071994446486,-0.236324526754674,0.9702073335647583,0.1065227091312408,-0.21760194003582,38.46246337890625,11.69819450378418,1.520660400390625,2,8542.266456000001,4,1,1580904826.507622,1580903939.50652,372,0.6209624,0.992496,1.702128,385.6992,1,0,1580904816.945688,8539.037045999999,0,2.565704,97.17329
1580904826.549855,28,0,1580904337.000819,41.20701635159924,29.07533761282497,172.748,-1,-1,5.74967098236084,48.00724964208526,-9999,8542.322914,0.929840087890625,0.111419677734375,-0.221923828125,8542.317878,2.611831304412188,1.351520546194119,-0.1057846650520775,-0.000688452273607254,0.1303067058324814,0.09290335327386856,-0.06070637702941895,0.01298242807388306,-0.009679794311523438,2,0.6136304584796958,-0.1237103339028998,-0.7433098334848814,-0.2358892811051088,0.9705989956855774,0.1055874824523926,-0.2163068205118179,38.44535827636719,11.69913291931152,1.5062255859375,2,8542.266456000001,4,1,1580904826.507622,1580903939.50652,372,0.6209624,0.992496,1.702128,385.6992,1,0,1580904816.945688,8539.037045999999,0,2.565704,97.17329
1580904826.559894,29,0,1580904337.000819,41.20701635159924,29.07533761282497,172.748,-1,-1,5.74967098236084,48.00724964208526,-9999,8542.332954000001,0.9440460205078125,0.1118621826171875,-0.2148590087890625,8542.327918000001,2.611997196855318,1.353008601768994,-0.1048490868102663,0.004897793754935265,0.1474481374025345,0.09401069581508636,-0.04165327548980713,0.006711125373840332,-0.007426440715789795,2,0.6141131481450843,-0.1241904661076833,-0.7429677159278738,-0.2354583193282526,0.9710158705711365,0.1046570837497711,-0.2148835361003876,38.44535827636719,11.69913291931152,1.5062255859375,2,8542.266456000001,4,1,1580904826.507622,1580903939.50652,372,0.6209624,0.992496,1.702128,385.6992,1,0,1580904816.945688,8539.037045999999,0,2.565704,97.17329
1580904826.570441,30,0,1580904337.000819,41.20701635159924,29.07533761282497,172.748,-1,-1,5.74967098236084,48.00724964208526,-9999,8542.343025,0.952545166015625,0.1151123046875,-0.209930419921875,8542.337959,2.612163508330412,1.354537365844174,-0.1039000065981335,0.002204630523920059,0.1520308405160904,0.09852951020002365,-0.02787148952484131,0.008098065853118896,-0.001825690269470215,2,0.6146095620662656,-0.1246798021121406,-0.7426140222306151,-0.2350200248172934,0.9714398384094238,0.1037131696939468,-0.2134200632572174,38.44593811035156,11.63705062866211,1.693084716796875,2,8542.266456000001,4,1,1580904826.507622,1580903939.50652,372,0.6209624,0.992496,1.702128,385.6992,1,0,1580904816.945688,8539.037045999999,0,2.565704,97.17329
1580904826.600469,31,0,1580904337.000819,41.20701635159924,29.07533761282497,172.748,-1,-1,5.74967098236084,48.00724964208526,-9999,8542.353065000001,0.954833984375,0.115936279296875,-0.2106781005859375,8542.347999,2.612463603672993,1.356266518350811,-0.1026294977408842,-0.008459998294711113,0.1795799136161804,0.1582743227481842,-0.01986819505691528,0.01261252164840698,0.001449882984161377,2,0.6151607603631418,-0.125272882606331,-0.7422464170924682,-0.2344233774568757,0.971935510635376,0.102449432015419,-0.2117678821086884,38.44593811035156,11.63705062866211,1.693084716796875,2,8542.266456000001,4,1,1580904826.507622,1580903939.50652,372,0.6209624,0.992496,1.702128,385.6992,1,0,1580904816.945688,8539.037045999999,0,2.565704,97.17329
1580904826.601727,32,0,1580904337.000819,41.20701635159924,29.07533761282497,172.748,-1,-1,5.74967098236084,48.00724964208526,-9999,8542.363105,0.9485626220703125,0.0909423828125,-0.21881103515625,8542.358039000001,2.61265591245304,1.358015301103519,-0.1017268827251094,0.005411236546933651,0.1641510128974915,0.08978650718927383,-0.01803863048553467,0.01433476805686951,-0.0009794235229492188,2,0.6157438964527691,-0.1257609227019837,-0.7418220169341885,-0.2339738702729943,0.9723942875862122,0.1015515252947807,-0.2100872844457626,38.49814605712891,11.63557243347168,1.8035888671875,2,8542.266456000001,4,1,1580904826.507622,1580903939.50652,372,0.6209624,0.992496,1.702128,385.6992,1,0,1580904816.945688,8539.037045999999,0,2.565704,97.17329
1580904826.602851,33,0,1580904337.000819,41.20701635159924,29.07533761282497,172.748,-1,-1,5.74967098236084,48.00724964208526,-9999,8542.373146,0.9647216796875,0.0950775146484375,-0.216766357421875,8542.36808,2.612935056382432,1.36007147345618,-0.1009300824838981,-0.008301113732159138,0.2115717828273773,0.0858924388885498,-0.02481895685195923,-0.009865999221801758,-0.01109623908996582,2,0.6164552248544884,-0.1262173027249118,-0.7413017354677774,-0.2335035934348274,0.9729030728340149,0.1007588058710098,-0.2081042975187302,38.49814605712891,11.63557243347168,1.8035888671875,2,8542.266456000001,4,1,1580904826.507622,1580903939.50652,372,0.6209624,0.992496,1.702128,385.6992,1,0,1580904816.945688,8539.037045999999,0,2.565704,97.17329
1580904826.610235,34,0,1580904337.000819,41.20701635159924,29.07533761282497,172.748,-1,-1,5.74967098236084,48.00724964208526,-9999,8542.383186000001,0.982818603515625,0.1031036376953125,-0.198516845703125,8542.378120000001,2.613272811764269,1.361933214962995,-0.1002896602606908,-0.02121344953775406,0.1801496893167496,0.06910466402769089,-0.009108901023864746,-0.005093395709991455,-0.01085108518600464,2,0.6171112829700166,-0.1265728641123864,-0.7408315025409916,-0.2330697588599302,0.9733515977859497,0.1001216247677803,-0.2063059508800507,38.48967742919922,11.33506011962891,1.826934814453125,2,8542.266456000001,4,1,1580904826.507622,1580903939.50652,372,0.6209624,0.992496,1.702128,385.6992,1,0,1580904816.945688,8539.037045999999,0,2.565704,97.17329
1580904826.62028,35,0,1580904337.000819,41.20701635159924,29.07533761282497,172.748,-1,-1,5.74967098236084,48.00724964208526,-9999,8542.393226,0.9698028564453125,0.113372802734375,-0.19427490234375,8542.388191,2.613595956986115,1.363619192751019,-0.0996200477261061,-0.01680884882807732,0.165923073887825,0.0712176188826561,0.008576095104217529,0.003599345684051514,0.005770266056060791,2,0.617698463588211,-0.1269228901486973,-0.740416268702265,-0.2326433670877986,0.9737635254859924,0.09945535659790039,-0.2046783715486526,38.48967742919922,11.33506011962891,1.826934814453125,2,8542.266456000001,4,1,1580904826.507622,1580903939.50652,372,0.6209624,0.992496,1.702128,385.6992,1,0,1580904816.945688,8539.977418,0,2.565704,97.17329
1580904826.630334,36,0,1580904337.000819,41.20701635159924,29.07533761282497,172.748,-1,-1,5.74967098236084,48.00724964208526,-9999,8542.403266000001,0.952606201171875,0.1099853515625,-0.19329833984375,8542.398231000001,2.613878030280127,1.365111304084805,-0.09888681030671335,-0.01102755218744278,0.146680012345314,0.07706789672374725,-0.004815280437469482,0.01459851861000061,0.008573174476623535,2,0.6182055762053887,-0.1272865094332598,-0.7400618614544948,-0.2322249425656538,0.9741389155387878,0.09872572869062424,-0.2032400220632553,38.66950988769531,11.35795593261719,2.052001953125,2,8542.266456000001,4,1,1580904826.507622,1580903939.50652,372,0.6209624,0.992496,1.702128,385.6992,1,0,1580904816.945688,8539.977418,0,2.565704,97.17329
1580904826.659455,37,0,1580904337.000819,41.20701635159924,29.07533761282497,172.748,-1,-1,5.74967098236084,48.00724964208526,-9999,8542.413307000001,0.92138671875,0.10919189453125,-0.190338134765625,8542.408271,2.614060839317563,1.366545404406176,-0.09805723074550905,-0.0009312424808740616,0.1413800567388535,0.08569014817476273,-0.02238243818283081,0.0120370090007782,0.008168280124664307,2,0.6186764115697755,-0.1277099589413458,-0.739723027133278,-0.2318175991854718,0.9745091795921326,0.09790016710758209,-0.201859325170517,38.66950988769531,11.35795593261719,2.052001953125,2,8542.266456000001,4,1,1580904826.507622,1580903939.50652,372,0.6209624,0.992496,1.702128,385.6992,1,0,1580904816.945688,8539.977418,0,2.565704,97.17329
1580904826.660916,38,0,1580904337.000819,41.20701635159924,29.07533761282497,172.748,-1,-1,5.74967098236084,48.00724964208526,-9999,8542.423347,0.9255218505859375,0.110870361328125,-0.18231201171875,8542.418312,2.614041794357416,1.367928677581787,-0.09715246127382442,0.02137062139809132,0.1410188674926758,0.08662480115890503,-0.05396658182144165,0.01214450597763062,0.00979769229888916,2,0.6191087983820467,-0.1282179235278861,-0.7393838219044297,-0.2314651481715857,0.9748740196228027,0.09699970483779907,-0.2005289196968079,38.64358520507812,11.51771354675293,2.138427734375,2,8542.266456000001,4,1,1580904826.507622,1580903939.50652,372,0.6209624,0.992496,1.702128,385.6992,1,0,1580904816.945688,8539.977418,0,2.565704,97.17329
1580904826.662139,39,0,1580904337.000819,41.20701635159924,29.07533761282497,172.748,-1,-1,5.74967098236084,48.00724964208526,-9999,8542.433387000001,0.9427337646484375,0.1110992431640625,-0.1868896484375,8542.428352000001,2.61400804189207,1.36916679855041,-0.0960357072494516,0.02692118287086487,0.1233386695384979,0.1139096766710281,-0.05018460750579834,0.01493504643440247,0.01663762331008911,2,0.6194680476904392,-0.1287931884708058,-0.7391085557761419,-0.2310631281344603,0.9752269983291626,0.09588815271854401,-0.1993433088064194,38.64358520507812,11.51771354675293,2.138427734375,2,8542.266456000001,4,1,1580904826.507622,1580903939.50652,372,0.6209624,0.992496,1.702128,385.6992,1,0,1580904816.945688,8539.977418,0,2.565704,97.17329
1580904826.670544,40,0,1580904337.000819,41.20701635159924,29.07533761282497,172.748,-1,-1,5.74967098236084,48.00724964208526,-9999,8542.443428,0.9735107421875,0.0933837890625,-0.202606201171875,8542.438392,2.614117043688295,1.3703977645851,-0.09496338392301981,0.00879022479057312,0.1264027655124664,0.1052593067288399,-0.0333176851272583,0.01623189449310303,0.01087921857833862,2,0.6198373971070512,-0.1293061524534967,-0.7388472252558413,-0.2306215330276264,0.975571870803833,0.09482071548700333,-0.1981630474328995,38.69599914550781,11.41742706298828,2.2366943359375,2,8542.266456000001,4,1,1580904826.507622,1580903939.50652,372,0.6209624,0.992496,1.702128,385.6992,1,0,1580904816.945688,8539.977418,0,2.565704,97.17329
1580904826.680473,41,0,1580904337.000819,41.20701635159924,29.07533761282497,172.748,-1,-1,5.74967098236084,48.00724964208526,-9999,8542.453468,1.00701904296875,0.108856201171875,-0.1796112060546875,8542.448432000001,2.614229641094349,1.371222394557546,-0.09393491250879833,0.006641320884227753,0.08979895710945129,0.1008808016777039,-0.002798855304718018,-0.0004591643810272217,-0.005622982978820801,2,0.6200604795368776,-0.1297541700835219,-0.7387074709177995,-0.2302175265178453,0.9758299589157104,0.09379682689905167,-0.1973777115345001,38.69599914550781,11.41742706298828,2.2366943359375,2,8542.266456000001,4,1,1580904826.507622,1580903939.50652,372,0.6209624,0.992496,1.702128,385.6992,1,0,1580904816.945688,8539.977418,0,2.565704,97.17329
1580904826.690774,42,0,1580904337.000819,41.20701635159924,29.07533761282497,172.748,-1,-1,5.74967098236084,48.00724964208526,-9999,8542.463539,1.01348876953125,0.115509033203125,-0.163482666015625,8542.458473000001,2.614166924091323,1.371036441623038,-0.09296026713757605,0.02332437969744205,-0.01365846488624811,0.09748256951570511,0.03065711259841919,0.01598411798477173,0.01757162809371948,2,0.6199034166772578,-0.1301197501056416,-0.7388552138693807,-0.2299598140153797,0.975882351398468,0.09282644093036652,-0.1975772082805634,38.63941955566406,11.41140174865723,2.2811279296875,2,8542.266456000001,4,1,1580904826.507622,1580903939.50652,372,0.6209624,0.992496,1.702128,385.6992,1,0,1580904816.945688,8539.977418,0,2.565704,97.17329
1580904826.715075,43,0,1580904337.000819,41.20701635159924,29.07533761282497,172.748,-1,-1,5.74967098236084,48.00724964208526,-9999,8542.473579000001,0.97454833984375,0.1129913330078125,-0.1709136962890625,8542.468513,2.613882057617911,1.369978379008456,-0.09204321072969551,0.04622410237789154,-0.1081234514713287,0.08422348648309708,0.03725349903106689,0.02355054020881653,0.03474998474121094,2,0.619414376097699,-0.1304322377917329,-0.7392416519792518,-0.2298583939487225,0.9757556915283203,0.09191329777240753,-0.1986265182495117,38.63941955566406,11.41140174865723,2.2811279296875,2,8542.266456000001,4,1,1580904826.507622,1580903939.50652,372,0.6209624,0.992496,1.702128,385.6992,1,0,1580904816.945688,8539.977418,0,2.565704,97.17329
1580904826.716423,44,0,1580904337.000819,41.20701635159924,29.07533761282497,172.748,-1,-1,5.74967098236084,48.00724964208526,-9999,8542.483619000001,0.90509033203125,0.1143341064453125,-0.2016754150390625,8542.478553000001,2.613471959523122,1.368908201054581,-0.09090590554264888,0.06348025798797607,-0.1104100197553635,0.1039787828922272,-0.0015755295753479,0.02216595411300659,0.02838438749313354,2,0.6188929979432513,-0.1308652898931226,-0.7396389793576801,-0.2297383321029618,0.9756442904472351,0.09078074991703033,-0.1996914595365524,38.73758697509766,11.24667358398438,2.127532958984375,2,8542.266456000001,4,1,1580904826.507622,1580903939.50652,372,0.6209624,0.992496,1.702128,385.6992,1,0,1580904816.945688,8539.977418,0,2.565704,97.17329
1580904826.720774,45,0,1580904337.000819,41.20701635159924,29.07533761282497,172.748,-1,-1,5.74967098236084,48.00724964208526,-9999,8542.493659,0.843902587890625,0.1038055419921875,-0.2454071044921875,8542.488594,2.613071632458592,1.368964901605483,-0.08936671543287433,0.07253900170326233,0.007237521931529045,0.1435893028974533,-0.07118064165115356,0.02504244446754456,-0.002404689788818359,2,0.6187533223953268,-0.1315763993744253,-0.7397284631572131,-0.2294205257895285,0.9757915139198303,0.08924780786037445,-0.1996639519929886,38.73758697509766,11.24667358398438,2.127532958984375,2,8542.266456000001,4,1,1580904826.507622,1580903939.50652,372,0.6209624,0.992496,1.702128,385.6992,1,0,1580904816.945688,8539.977418,0,2.565704,97.17329
1580904826.730715,46,0,1580904337.000819,41.20701635159924,29.07533761282497,172.748,-1,-1,5.74967098236084,48.00724964208526,-9999,8542.503700000001,0.8642730712890625,0.09033203125,-0.2553558349609375,8542.498634000001,2.612820185804583,1.370679160382854,-0.08747624485550864,0.06278625875711441,0.1748771965503693,0.185494601726532,-0.1328730583190918,0.0163978636264801,-0.04777717590332031,2,0.6192050551912758,-0.1325634422388768,-0.7393563287439189,-0.228832082669725,0.9762958884239197,0.08736472576856613,-0.1980240643024445,38.7335205078125,11.07986450195312,2.13983154296875,2,8542.266456000001,4,1,1580904826.507622,1580903939.50652,372,0.6209624,0.992496,1.702128,385.6992,1,0,1580904816.945688,8539.977418,0,2.565704,97.17329
1580904826.741239,47,0,1580904337.000819,41.20701635159924,29.07533761282497,172.748,-1,-1,5.74967098236084,48.00724964208526,-9999,8542.51374,0.90325927734375,0.0835418701171875,-0.2349395751953125,8542.508674000001,2.612653832150201,1.373695224480828,-0.0855419764106177,0.05589133501052856,0.3027001619338989,0.1877439022064209,-0.1132595539093018,0.004852384328842163,-0.06063985824584961,2,0.6201385454249702,-0.13368809162651,-0.7385941761284504,-0.2281104632826361,0.9770527482032776,0.08543769270181656,-0.1951113641262054,38.7335205078125,11.07986450195312,2.13983154296875,2,8542.266456000001,4,1,1580904826.507622,1580903939.50652,372,0.6209624,0.992496,1.702128,385.6992,1,0,1580904816.945688,8539.977418,0,2.565704,97.17329
1580904826.750711,48,0,1580904337.000819,41.20701635159924,29.07533761282497,172.748,-1,-1,5.74967098236084,48.00724964208526,-9999,8542.523780000001,0.9153594970703125,0.077667236328125,-0.24761962890625,8542.518745000001,2.612528757215542,1.378010380418891,-0.08364082078960199,0.04651592299342155,0.4275318384170532,0.1879940330982208,-0.07526451349258423,-4.255771636962891e-05,-0.04441314935684204,2,0.621555299199491,-0.1349330533020993,-0.7374278975561496,-0.2272928319076546,0.9780430793762207,0.0835433304309845,-0.1909241676330566,38.78874969482422,10.80117797851562,2.33843994140625,2,8542.266456000001,4,1,1580904826.507622,1580903939.50652,372,0.6209624,0.992496,1.702128,385.6992,1,0,1580904816.945688,8539.977418,0,2.565704,97.17329
1580904826.783669,49,0,1580904337.000819,41.20701635159924,29.07533761282497,172.748,-1,-1,5.74967098236084,48.00724964208526,-9999,8542.533821000001,1.019699096679688,0.0849456787109375,-0.192108154296875,8542.528785,2.612169104264933,1.382936518556061,-0.08200446457486672,0.07383569329977036,0.5096006393432617,0.1486942917108536,-0.06422650814056396,-0.004285663366317749,-0.06189048290252686,2,0.6232014558638296,-0.1362180237192158,-0.7360155484159709,-0.2265958704060866,0.9791048169136047,0.08191258460283279,-0.1861291974782944,38.78874969482422,10.80117797851562,2.33843994140625,2,8542.266456000001,4,1,1580904826.507622,1580903939.50652,372,0.6209624,0.992496,1.702128,385.6992,1,0,1580904816.945688,8539.977418,0,2.565704,97.17329
1580904826.785153,50,0,1580904337.000819,41.20701635159924,29.07533761282497,172.748,-1,-1,5.74967098236084,48.00724964208526,-9999,8542.543861,0.981842041015625,0.0826263427734375,-0.1627044677734375,8542.538825,2.611953779196618,1.387216266610682,-0.08051580851012753,0.04460151493549347,0.4143941402435303,0.1400845646858215,0.03920626640319824,0.00447729229927063,-0.01055103540420532,2,0.6246292669010426,-0.1373268531383408,-0.7348027778667577,-0.2259301343997276,0.9800111651420593,0.0804288387298584,-0.1819592267274857,38.82338714599609,10.74575424194336,2.628875732421875,2,8542.266456000001,4,1,1580904826.507622,1580903939.50652,372,0.6209624,0.992496,1.702128,385.6992,1,0,1580904816.945688,8539.977418,0,2.565704,97.17329
1580904826.786504,51,0,1580904337.000819,41.20701635159924,29.07533761282497,172.748,-1,-1,5.74967098236084,48.00724964208526,-9999,8542.553901000001,0.94171142578125,0.0906524658203125,-0.1987457275390625,8542.548866000001,2.611793096648614,1.391821617592941,-0.0789708423344032,0.0435066893696785,0.4633902013301849,0.1512666344642639,0.0003998875617980957,0.003698766231536865,0.01435720920562744,2,0.6261724931139562,-0.1384739579305806,-0.7334968100433523,-0.2252008844571649,0.980959951877594,0.07888878881931305,-0.177465945482254,38.82338714599609,10.74575424194336,2.628875732421875,2,8542.266456000001,4,1,1580904826.507622,1580903939.50652,372,0.6209624,0.992496,1.702128,385.6992,1,0,1580904816.945688,8539.977418,0,2.565704,97.17329
1580904826.7912,52,0,1580904337.000819,41.20701635159924,29.07533761282497,172.748,-1,-1,5.74967098236084,48.00724964208526,-9999,8542.563941,0.99212646484375,0.090362548828125,-0.164215087890625,8542.558906,2.611683572018887,1.396411659324164,-0.07741924711609298,0.03754951432347298,0.4597736001014709,0.1508318036794662,-0.04065477848052979,0.01327252388000488,-0.02616965770721436,2,0.6277099293954228,-0.1396030167737701,-0.7321984537190702,-0.224447746209217,0.9818836450576782,0.07734192907810211,-0.1729824841022491,38.96892547607422,10.41690444946289,3.012481689453125,2,8542.266456000001,4,1,1580904826.507622,1580903939.50652,372,0.6209624,0.992496,1.702128,385.6992,1,0,1580904816.945688,8539.977418,0,2.565704,97.17329
1580904826.800932,53,0,1580904337.000819,41.20701635159924,29.07533761282497,172.748,-1,-1,5.74967098236084,48.00724964208526,-9999,8542.573982,1.009109497070312,0.0817413330078125,-0.1514739990234375,8542.568946000001,2.611635525354192,1.40050787945019,-0.07596032947253306,0.03012728691101074,0.4130513668060303,0.1450277119874954,0.00894927978515625,0.01443791389465332,0.004354119300842285,2,0.6290763109696355,-0.1406201498651883,-0.7310493981295075,-0.2237310874095161,0.9826939105987549,0.07588730007410049,-0.1689779311418533,38.96892547607422,10.41690444946289,3.012481689453125,2,8542.266456000001,4,1,1580904826.507622,1580903939.50652,372,0.6209624,0.992496,1.702128,385.6992,1,0,1580904816.945688,8539.977418,0,2.565704,97.17329
1580904826.810838,54,0,1580904337.000819,41.20701635159924,29.07533761282497,172.748,-1,-1,5.74967098236084,48.00724964208526,-9999,8542.584022000001,1.016738891601562,0.080230712890625,-0.1425628662109375,8542.578987000001,2.611587303443943,1.403892074033655,-0.07472562046115173,0.02546211332082748,0.3437315821647644,0.1211587488651276,0.02527415752410889,0.007048487663269043,0.0137825608253479,2,0.6302001207048519,-0.1414722891863989,-0.7301000183591081,-0.2231306603033096,0.9833518266677856,0.07465609908103943,-0.1656668037176132,38.89957427978516,10.49112129211426,3.082672119140625,2,8542.266456000001,4,1,1580904826.507622,1580903939.50652,372,0.6209624,0.992496,1.702128,385.6992,1,0,1580904816.945688,8539.977418,0,2.565704,97.17329
1580904826.842784,55,0,1580904337.000819,41.20701635159924,29.07533761282497,172.748,-1,-1,5.74967098236084,48.00724964208526,-9999,8542.594093,1.00860595703125,0.07403564453125,-0.14202880859375,8542.589027,2.611555999027789,1.406563548528132,-0.07369942121095172,0.02003032900393009,0.2700496315956116,0.1031270176172256,0.03238904476165771,0.006561815738677979,0.02007728815078735,2,0.6310819987357752,-0.1421607530941799,-0.7293550158098449,-0.2226367087358577,0.9838660359382629,0.07363272458314896,-0.1630516648292542,38.89957427978516,10.49112129211426,3.082672119140625,2,8542.266456000001,4,1,1580904826.507622,1580903939.50652,372,0.6209624,0.992496,1.702128,385.6992,1,0,1580904816.945688,8539.977418,0,2.565704,97.17329
1580904826.844103,56,0,1580904337.000819,41.20701635159924,29.07533761282497,172.748,-1,-1,5.74967098236084,48.00724964208526,-9999,8542.604133000001,0.9696044921875,0.065338134765625,-0.1637725830078125,8542.599067000001,2.611591448149171,1.409024830593806,-0.07295409742821696,0.007115049287676811,0.243436187505722,0.07365500181913376,0.0238037109375,0.00111040472984314,0.01819694042205811,2,0.6319158395225696,-0.1426995939121547,-0.7286549947510561,-0.2222186301181305,0.9843182563781738,0.07288940250873566,-0.1606383919715881,39.00989532470703,10.33957290649414,3.28192138671875,2,8542.266456000001,4,1,1580904826.507622,1580903939.50652,372,0.6209624,0.992496,1.702128,385.6992,1,0,1580904816.945688,8539.977418,0,2.565704,97.17329
1580904826.845324,57,0,1580904337.000819,41.20701635159924,29.07533761282497,172.748,-1,-1,5.74967098236084,48.00724964208526,-9999,8542.614173,0.93194580078125,0.0751495361328125,-0.1815948486328125,8542.609107,2.611632924412237,1.412045359055791,-0.0723329853929115,0.00523778609931469,0.3052438795566559,0.06200580298900604,-0.01572340726852417,-0.006967395544052124,-0.006515443325042725,2,0.6329637755728271,-0.1432517195214763,-0.7277653073558774,-0.2217956232290358,0.984843373298645,0.07226992398500443,-0.1576716005802155,39.00942230224609,10.21347236633301,3.5030517578125,2,8542.266456000001,4,1,1580904826.507622,1580903939.50652,372,0.6209624,0.992496,1.702128,385.6992,1,0,1580904816.945688,8539.977418,0,2.565704,97.17329
1580904826.851193,58,0,1580904337.000819,41.20701635159924,29.07533761282497,172.748,-1,-1,5.74967098236084,48.00724964208526,-9999,8542.624214000001,0.9441680908203125,0.077239990234375,-0.1716156005859375,8542.619148,2.611618007634508,1.415759878074984,-0.07181255731870506,0.01091921143233776,0.3779398202896118,0.04977720975875854,-0.05399817228317261,0.00336340069770813,-0.02799266576766968,2,0.6342673813776564,-0.1438604383647755,-0.7266381286994554,-0.2213733651764637,0.9854594469070435,0.07175084948539734,-0.1540181189775467,39.00942230224609,10.21347236633301,3.5030517578125,2,8542.266456000001,4,1,1580904826.507622,1580903939.50652,372,0.6209624,0.992496,1.702128,385.6992,1,0,1580904816.945688,8539.977418,0,2.565704,97.17329
1580904826.861271,59,0,1580904337.000819,41.20701635159924,29.07533761282497,172.748,-1,-1,5.74967098236084,48.00724964208526,-9999,8542.634254000001,0.992523193359375,0.0728912353515625,-0.13983154296875,8542.629188000001,2.611577335116463,1.419397785911939,-0.07151543345986788,0.009065918624401093,0.3661356270313263,0.02591102756559849,-0.04235100746154785,0.005750358104705811,-0.02159798145294189,2,0.635558971376405,-0.1443853856006968,-0.7255079398576268,-0.2210337581313416,0.9860342741012573,0.0714544877409935,-0.1504353135824203,39.07106018066406,10.24180793762207,3.5689697265625,2,8542.266456000001,4,1,1580904826.507622,1580903939.50652,372,0.6209624,0.992496,1.702128,385.6992,1,0,1580904816.945688,8539.977418,0,2.565704,97.17329
1580904826.874249,60,0,1580904337.000819,41.20701635159924,29.07533761282497,172.748,-1,-1,5.74967098236084,48.00724964208526,-9999,8542.644294,0.9964599609375,0.074981689453125,-0.1353607177734375,8542.639259000001,2.611564110916956,1.422604276561858,-0.07139634911389513,0.002977349795401096,0.3188424706459045,0.0117377731949091,0.005518138408660889,0.001520425081253052,0.007023215293884277,2,0.6367099028601969,-0.1447876377204534,-0.7244982838068872,-0.220769691958733,0.9865199327468872,0.07133571058511734,-0.1472740769386292,39.07106018066406,10.24180793762207,3.5689697265625,2,8542.266456000001,4,1,1580904826.507622,1580903939.50652,372,0.6209624,0.992496,1.702128,385.6992,1,0,1580904816.945688,8539.977418,0,2.565704,97.17329
1580904826.899809,61,0,1580904337.000819,41.20701635159924,29.07533761282497,172.748,-1,-1,5.74967098236084,48.00724964208526,-9999,8542.654334000001,0.995391845703125,0.0749664306640625,-0.13531494140625,8542.649299000001,2.611541286480765,1.425553137930207,-0.07145263720744288,0.003331284038722515,0.2943603098392487,-0.0083943922072649,0.009028792381286621,0.003554731607437134,0.008582353591918945,2,0.6377807174379789,-0.145099558134254,-0.7235506345145424,-0.2205817765814513,0.9869459271430969,0.07139185070991516,-0.14436374604702,39.06076812744141,10.16592216491699,3.5643310546875,2,8542.266456000001,4,1,1580904826.507622,1580903939.50652,372,0.6209624,0.992496,1.702128,385.6992,1,0,1580904816.945688,8539.977418,0,2.565704,97.17329
1580904826.90101,62,0,1580904337.000819,41.20701635159924,29.07533761282497,172.748,-1,-1,5.74967098236084,48.00724964208526,-9999,8542.664375,1.005706787109375,0.0731353759765625,-0.1216278076171875,8542.659339,2.611513421659266,1.428031621633527,-0.0716490205377884,0.001705261878669262,0.2479698210954666,-0.01905108243227005,0.007619678974151611,0.003343433141708374,0.00617825984954834,2,0.6386920713923185,-0.1453095101473329,-0.7227371812782435,-0.2204731495428724,0.9872866868972778,0.07158773392438889,-0.1419151723384857,39.06076812744141,10.16592216491699,3.5643310546875,2,8542.266456000001,4,1,1580904826.507622,1580903939.50652,372,0.6209624,0.992496,1.702128,385.6992,1,0,1580904816.945688,8539.977418,0,2.565704,97.17329
1580904826.902162,63,0,1580904337.000819,41.20701635159924,29.07533761282497,172.748,-1,-1,5.74967098236084,48.00724964208526,-9999,8542.674415000001,1.003387451171875,0.0733489990234375,-0.1222076416015625,8542.669380000001,2.611546368736539,1.42997694673224,-0.07197577862272922,-0.0102217048406601,0.1929001808166504,-0.03196368366479874,0.01768350601196289,0.001186341047286987,0.01794028282165527,2,0.6394257290145736,-0.1453933612693741,-0.7220869162578422,-0.2204219539928387,0.987537682056427,0.07191365212202072,-0.1399910151958466,39.15309906005859,10.3165111541748,3.83221435546875,2,8542.266456000001,4,1,1580904826.507622,1580903939.50652,372,0.6209624,0.992496,1.702128,385.6992,1,0,1580904816.945688,8539.977418,0,2.565704,97.17329
1580904826.911502,64,0,1580904337.000819,41.20701635159924,29.07533761282497,172.748,-1,-1,5.74967098236084,48.00724964208526,-9999,8542.684455000001,1.005203247070312,0.0761566162109375,-0.1190338134765625,8542.67942,2.611578066366675,1.43150172916018,-0.07234955315609605,-0.007708616554737091,0.1536650955677032,-0.03582765161991119,0.015178382396698,0.00102698802947998,0.01585006713867188,2,0.6400109966552012,-0.1454140694361908,-0.7215657709340181,-0.2204165888829944,0.9877234101295471,0.0722864493727684,-0.1384813487529755,39.15309906005859,10.3165111541748,3.83221435546875,2,8542.266456000001,4,1,1580904826.507622,1580903939.50652,372,0.6209624,0.992496,1.702128,385.6992,1,0,1580904816.945688,8539.977418,0,2.565704,97.17329
1580904826.921518,65,0,1580904337.000819,41.20701635159924,29.07533761282497,172.748,-1,-1,5.74967098236084,48.00724964208526,-9999,8542.694496,1.005752563476562,0.078216552734375,-0.1142425537109375,8542.689460000001,2.611649840945657,1.432480452111203,-0.07276021328638323,-0.0132101746276021,0.09879253804683685,-0.03966978937387466,0.01688849925994873,0.003424793481826782,0.01805251836776733,2,0.6404050573151832,-0.1453482903313603,-0.7212197305189424,-0.2204480877139707,0.9878290295600891,0.0726960301399231,-0.1375104784965515,39.16609954833984,10.19466209411621,3.8590087890625,2,8542.266456000001,4,1,1580904826.507622,1580903939.50652,372,0.6209624,0.992496,1.702128,385.6992,1,0,1580904816.945688,8539.977418,0,2.565704,97.17329
1580904826.93341,66,0,1580904337.000819,41.20701635159924,29.07533761282497,172.748,-1,-1,5.74967098236084,48.00724964208526,-9999,8542.704536000001,0.9922637939453125,0.0828857421875,-0.120513916015625,8542.699500000001,2.611740962800733,1.432992027244238,-0.07316509041539745,-0.01444733142852783,0.05239146575331688,-0.03856976702809334,0.01739668846130371,0.005080759525299072,0.02233386039733887,2,0.6406314147958084,-0.145226962940483,-0.7210257055039353,-0.2205047794558507,0.987869918346405,0.07309982925653458,-0.1370010375976562,39.16609954833984,10.19466209411621,3.8590087890625,2,8542.266456000001,4,1,1580904826.507622,1580903939.50652,372,0.6209624,0.992496,1.702128,385.6992,1,0,1580904816.945688,8539.977418,0,2.565704,97.17329
1580904826.954496,67,0,1580904337.000819,41.20701635159924,29.07533761282497,172.748,-1,-1,5.74967098236084,48.00724964208526,-9999,8542.714607,0.97991943359375,0.082550048828125,-0.1273193359375,8542.709541,2.611822900017467,1.433248223777595,-0.07352715454435733,-0.01295729354023933,0.02436009794473648,-0.03412628173828125,0.003899037837982178,0.009388655424118042,0.01580566167831421,2,0.6407612204082593,-0.1450961748354107,-0.7209167763809861,-0.2205700390139688,0.9878787398338318,0.07346092164516449,-0.1367443203926086,39.08506011962891,10.2987174987793,3.71575927734375,2,8542.266456000001,4,1,1580904826.507622,1580903939.50652,372,0.6209624,0.992496,1.702128,385.6992,1,0,1580904816.945688,8539.977418,0,2.565704,97.17329
1580904826.955773,68,0,1580904337.000819,41.20701635159924,29.07533761282497,172.748,-1,-1,5.74967098236084,48.00724964208526,-9999,8542.724647000001,0.977935791015625,0.081146240234375,-0.1292724609375,8542.719581000001,2.611876339086336,1.433408372778926,-0.07386351778917287,-0.01025342661887407,0.01519162021577358,-0.03230579942464828,-0.008442461490631104,0.008717358112335205,0.008838772773742676,2,0.6408520642858377,-0.1449733517633177,-0.7208379620308746,-0.2206444969149381,0.9878761172294617,0.07379636913537979,-0.1365827172994614,39.08506011962891,10.2987174987793,3.71575927734375,2,8542.266456000001,4,1,1580904826.507622,1580903939.50652,372,0.6209624,0.992496,1.702128,385.6992,1,0,1580904816.945688,8539.977418,0,2.565704,97.17329
1580904826.961744,69,0,1580904337.000819,41.20701635159924,29.07533761282497,172.748,-1,-1,5.74967098236084,48.00724964208526,-9999,8542.734687,0.9806976318359375,0.0801849365234375,-0.12872314453125,8542.729621,2.611910924453916,1.433447491929567,-0.07420483072408689,-0.008464581333100796,0.005078267306089401,-0.03313563764095306,-0.01040655374526978,0.006973028182983398,0.006843388080596924,2,0.6408983304300397,-0.144841387347136,-0.7207952621268229,-0.2207360417732573,0.987856388092041,0.07413674890995026,-0.1365406066179276,38.98984527587891,10.18535804748535,3.89385986328125,2,8542.266456000001,4,1,1580904826.507622,1580903939.50652,372,0.6209624,0.992496,1.702128,385.6992,1,0,1580904816.945688,8539.977418,0,2.565704,97.17329
1580904826.971852,70,0,1580904337.000819,41.20701635159924,29.07533761282497,172.748,-1,-1,5.74967098236084,48.00724964208526,-9999,8542.744728,0.9843292236328125,0.083648681640625,-0.1253509521484375,8542.739662,2.611910398319786,1.433303708794017,-0.07452370968767105,-0.005016840994358063,-0.01317956857383251,-0.0323609858751297,-0.007601499557495117,0.005693554878234863,0.00753176212310791,2,0.6408741465712654,-0.1447087463780375,-0.7208096771962675,-0.2208465409792108,0.987813413143158,0.07445474714040756,-0.1366794109344482,38.98984527587891,10.18535804748535,3.89385986328125,2,8542.266456000001,4,1,1580904826.507622,1580903939.50652,372,0.6209624,0.992496,1.702128,385.6992,1,0,1580904816.945688,8539.977418,0,2.565704,97.17329
1580904826.981848,71,0,1580904337.000819,41.20701635159924,29.07533761282497,172.748,-1,-1,5.74967098236084,48.00724964208526,-9999,8542.754768000001,0.9902801513671875,0.0846099853515625,-0.11962890625,8542.749702000001,2.611887109292312,1.432841248710841,-0.0747621162711536,-0.001450335141271353,-0.04706616327166557,-0.02421410940587521,-0.003888964653015137,0.008919477462768555,0.01135855913162231,2,0.6407264681197973,-0.1445776709015546,-0.7209315693334452,-0.2209630151058468,0.9877325296401978,0.0746924877166748,-0.137133777141571,38.98765563964844,10.30016899108887,3.69305419921875,2,8542.266456000001,4,1,1580904826.507622,1580903939.50652,372,0.6209624,0.992496,1.702128,385.6992,1,0,1580904816.945688,8539.977418,0,2.565704,97.17329
1580904826.994366,72,0,1580904337.000819,41.20701635159924,29.07533761282497,172.748,-1,-1,5.74967098236084,48.00724964208526,-9999,8542.764808,0.976165771484375,0.085540771484375,-0.1295013427734375,8542.759742,2.611866297340318,1.432084529599846,-0.07490862871688725,-0.0002652406692504883,-0.07840437442064285,-0.01400668546557426,0.002177000045776367,0.009734600782394409,0.01782685518264771,2,0.6404648736877455,-0.1444469397866641,-0.721157025975884,-0.2210710182460894,0.987617552280426,0.07483859360218048,-0.1378796547651291,38.98765563964844,10.30016899108887,3.69305419921875,2,8542.266456000001,4,1,1580904826.507622,1580903939.50652,372,0.6209624,0.992496,1.702128,385.6992,1,0,1580904816.945688,8539.977418,0,2.565704,97.17329
1580904827.020848,73,0,1580904337.000819,41.20701635159924,29.07533761282497,172.748,-1,-1,5.74967098236084,48.00724964208526,-9999,8542.774848000001,0.9632415771484375,0.0887908935546875,-0.137969970703125,8542.769813000001,2.611772234232412,1.431335410218917,-0.07497404805319104,0.01006755791604519,-0.07350602000951767,-0.007292323745787144,-0.01182907819747925,0.01060009002685547,0.008693575859069824,2,0.6401936130326655,-0.1443702014067281,-0.7213798934169338,-0.2211794553225495,0.9875090718269348,0.07490383088588715,-0.1386187672615051,39.03805541992188,10.25897979736328,3.680450439453125,2,8542.266456000001,4,1,1580904826.507622,1580903939.50652,372,0.6209624,0.992496,1.702128,385.6992,1,0,1580904816.945688,8539.977418,0,2.565704,97.17329
1580904827.022251,74,0,1580904337.000819,41.20701635159924,29.07533761282497,172.748,-1,-1,5.74967098236084,48.00724964208526,-9999,8542.784889,0.971710205078125,0.08477783203125,-0.1339874267578125,8542.779853,2.611654637852201,1.430581628508803,-0.07496688814902752,0.01154348067939281,-0.07480964064598083,0.0001908931881189346,-0.02464914321899414,0.01385736465454102,0.0009698867797851562,2,0.6399125623358599,-0.1443271168886677,-0.7216089558740005,-0.2212741125717843,0.987405002117157,0.0748966857790947,-0.1393631845712662,39.03805541992188,10.25897979736328,3.680450439453125,2,8542.266456000001,4,1,1580904826.507622,1580903939.50652,372,0.6209624,0.992496,1.702128,385.6992,1,0,1580904816.945688,8539.977418,0,2.565704,97.17329
1580904827.023359,75,0,1580904337.000819,41.20701635159924,29.07533761282497,172.748,-1,-1,5.74967098236084,48.00724964208526,-9999,8542.794929,0.9832305908203125,0.0840301513671875,-0.1301727294921875,8542.789894000001,2.611497047529829,1.429668756294236,-0.07495681412278134,0.01544510945677757,-0.09099468588829041,0.0001913076266646385,-0.01605373620986938,0.009854316711425781,0.00585407018661499,2,0.6395708858906702,-0.1442801986107748,-0.7218845093511669,-0.2213936951657038,0.9872781038284302,0.07488664239645004,-0.1402646154165268,39.08632659912109,10.38235473632812,3.65557861328125,2,8542.266456000001,4,1,1580904826.507622,1580903939.50652,372,0.6209624,0.992496,1.702128,385.6992,1,0,1580904816.945688,8539.977418,0,2.565704,97.17329
1580904827.032409,76,0,1580904337.000819,41.20701635159924,29.07533761282497,172.748,-1,-1,5.74967098236084,48.00724964208526,-9999,8542.804969000001,0.9860687255859375,0.08526611328125,-0.1292724609375,8542.799934000001,2.611229566893772,1.428548725490699,-0.07499026618393878,0.02663489431142807,-0.110177680850029,-0.004940008278936148,-0.004372835159301758,0.00907328724861145,0.01077485084533691,2,0.6391501436919238,-0.1442293852479937,-0.7222096417319227,-0.221581508591137,0.9871179461479187,0.07491999864578247,-0.141369953751564,39.08632659912109,10.38235473632812,3.65557861328125,2,8542.266456000001,4,1,1580904826.507622,1580903939.50652,372,0.6209624,0.992496,1.702128,385.6992,1,0,1580904816.945688,8539.977418,0,2.565704,97.17329
1580904827.042046,77,0,1580904337.000819,41.20701635159924,29.07533761282497,172.748,-1,-1,5.74967098236084,48.00724964208526,-9999,8542.81501,1.005447387695312,0.0793304443359375,-0.1234893798828125,8542.809974,2.610822507675585,1.427082787261463,-0.07517799192270677,0.03975468873977661,-0.1443241983652115,-0.02273445203900337,-0.001312255859375,0.01012197136878967,0.01312065124511719,2,0.6386076728342327,-0.1441278377948293,-0.7226139749103915,-0.2218927122425936,0.9868955016136169,0.07510719448328018,-0.1428148150444031,39.05155181884766,10.40056228637695,3.578826904296875,2,8542.266456000001,4,1,1580904826.507622,1580903939.50652,372,0.6209624,0.992496,1.702128,385.6992,1,0,1580904816.945688,8539.977418,0,2.565704,97.17329
1580904827.075547,78,0,1580904337.000819,41.20701635159924,29.07533761282497,172.748,-1,-1,5.74967098236084,48.00724964208526,-9999,8542.825050000001,1.019439697265625,0.068634033203125,-0.1265411376953125,8542.820014000001,2.610352062242499,1.425189088945589,-0.07574049422516436,0.0383208841085434,-0.1854114383459091,-0.06126953661441803,0.01838070154190063,0.003625094890594482,0.02076709270477295,2,0.6379384378133575,-0.1438607078947456,-0.7231101234068056,-0.2223744101971117,0.9865813851356506,0.0756680965423584,-0.1446772962808609,39.05155181884766,10.40056228637695,3.578826904296875,2,8542.266456000001,4,1,1580904826.507622,1580903939.50652,372,0.6209624,0.992496,1.702128,385.6992,1,0,1580904816.945688,8539.977418,0,2.565704,97.17329
1580904827.077179,79,0,1580904337.000819,41.20701635159924,29.07533761282497,172.748,-1,-1,5.74967098236084,48.00724964208526,-9999,8542.83509,1.015045166015625,0.0706634521484375,-0.1307525634765625,8542.830055,2.609815008930504,1.422853901796625,-0.07680310980271753,0.03925858438014984,-0.2332127839326859,-0.1126083582639694,0.03279393911361694,-0.00813138484954834,0.02000796794891357,2,0.6371480345984381,-0.1433805453226266,-0.7236887544461652,-0.2230670005264111,0.9861606955528259,0.07672762870788574,-0.1469687968492508,38.95743560791016,10.51479530334473,3.430999755859375,2,8542.266456000001,4,1,1580904826.507622,1580903939.50652,372,0.6209624,0.992496,1.702128,385.6992,1,0,1580904816.945688,8539.977418,0,2.565704,97.17329
1580904827.078206,80,0,1580904337.000819,41.20701635159924,29.07533761282497,172.748,-1,-1,5.74967098236084,48.00724964208526,-9999,8542.845161000001,0.9705963134765625,0.0644073486328125,-0.15069580078125,8542.840095000001,2.609369550847888,1.420374212120398,-0.07829699123160026,0.02930551022291183,-0.2502339482307434,-0.1582179516553879,0.02888131141662598,-0.007592082023620605,0.01822507381439209,2,0.6363490164669322,-0.1426945859553396,-0.7242792256943796,-0.2238696516674425,0.9856787323951721,0.07821701467037201,-0.1493963748216629,38.95743560791016,10.51479530334473,3.430999755859375,2,8542.266456000001,4,1,1580904826.507622,1580903939.50652,372,0.6209624,0.992496,1.702128,385.6992,1,0,1580904816.945688,8539.977418,0,2.565704,97.17329
1580904827.082216,81,0,1580904337.000819,41.20701635159924,29.07533761282497,172.748,-1,-1,5.74967098236084,48.00724964208526,-9999,8542.855201,0.903533935546875,0.0755462646484375,-0.19451904296875,8542.850135000001,2.609233682512627,1.418655266935406,-0.07987349084061289,-0.01379961427301168,-0.1775102317333221,-0.1578909158706665,-0.01518619060516357,-0.01542049646377563,-4.1961669921875e-05,2,0.635854207997867,-0.141963405535144,-0.7246530835958255,-0.2245302652323097,0.9852975606918335,0.07978858798742294,-0.1510716378688812,39.06778717041016,10.52022171020508,3.16796875,2,8542.266456000001,4,1,1580904826.507622,1580903939.50652,372,0.6209624,0.992496,1.702128,385.6992,1,0,1580904816.945688,8539.977418,0,2.565704,97.17329
1580904827.092486,82,0,1580904337.000819,41.20701635159924,29.07533761282497,172.748,-1,-1,5.74967098236084,48.00724964208526,-9999,8542.865241000001,0.894073486328125,0.0898590087890625,-0.190032958984375,8542.860176,2.609133622430391,1.41826451925031,-0.08126212254085545,-0.01112488657236099,-0.02940285764634609,-0.136049821972847,-0.08207899332046509,-0.005666434764862061,-0.04349738359451294,2,0.6358264917144041,-0.1414385549729135,-0.7246265860479926,-0.2250244320324483,0.9851278066635132,0.08117271959781647,-0.1514396220445633,39.06778717041016,10.52022171020508,3.16796875,2,8542.266456000001,4,1,1580904826.507622,1580903939.50652,372,0.6209624,0.992496,1.702128,385.6992,1,0,1580904816.945688,8539.977418,0,2.565704,97.17329
1580904827.102221,83,0,1580904337.000819,41.20701635159924,29.07533761282497,172.748,-1,-1,5.74967098236084,48.00724964208526,-9999,8542.875282000001,0.9710235595703125,0.0919952392578125,-0.1405181884765625,8542.870216000001,2.609107682673989,1.418126893644927,-0.08248630331175251,-0.01683417148888111,-0.007680518552660942,-0.1208628863096237,-0.09141945838928223,0.007425636053085327,-0.03889060020446777,2,0.6358811694273873,-0.1409792333666999,-0.7245444058317001,-0.225422798572307,0.985008180141449,0.08239279687404633,-0.1515599936246872,38.83118438720703,10.56093406677246,3.198638916015625,2,8542.266456000001,4,1,1580904826.507622,1580903939.50652,372,0.6209624,0.992496,1.702128,385.6992,1,0,1580904816.945688,8539.977418,0,2.565704,97.17329
1580904827.113959,84,0,1580904337.000819,41.20701635159924,29.07533761282497,172.748,-1,-1,5.74967098236084,48.00724964208526,-9999,8542.8853445,0.9826507568359375,0.0998382568359375,-0.13092041015625,8542.880256,2.60912162828915,1.417439363516886,-0.08353853098688338,-0.01882006600499153,-0.07616545259952545,-0.103447400033474,-0.0142785906791687,0.008512735366821289,0.01128846406936646,2,0.6357243267446411,-0.1405085513765045,-0.7246585584507805,-0.2257919325436914,0.9848175644874573,0.08344139903783798,-0.1522238552570343,38.83118438720703,10.56093406677246,3.198638916015625,2,8542.266456000001,4,1,1580904826.507622,1580903939.50652,372,0.6209624,0.992496,1.702128,385.6992,1,0,1580904816.945688,8539.977418,0,2.565704,97.17329
1580904827.139709,85,0,1580904337.000819,41.20701635159924,29.07533761282497,172.748,-1,-1,5.74967098236084,48.00724964208526,-9999,8542.8953845,0.95465087890625,0.0972747802734375,-0.1529541015625,8542.890349500001,2.609157565921191,1.416614789453526,-0.0843962654685176,-0.01738275960087776,-0.08445294201374054,-0.08365265280008316,-0.002454400062561035,0.01550063490867615,0.02168750762939453,2,0.6355023489749908,-0.1400869829719926,-0.7248380971394274,-0.2261021358297122,0.9846205711364746,0.08429611474275589,-0.1530248075723648,38.97550964355469,10.738037109375,3.2105712890625,2,8542.266456000001,4,1,1580904826.507622,1580903939.50652,372,0.6209624,0.992496,1.702128,385.6992,1,0,1580904816.945688,8539.977418,0,2.565704,97.17329
1580904827.140995,86,0,1580904337.000819,41.20701635159924,29.07533761282497,172.748,-1,-1,5.74967098236084,48.00724964208526,-9999,8542.905425500001,0.9532470703125,0.0971221923828125,-0.157806396484375,8542.900389500001,2.609229037250477,1.415900435096846,-0.08504355814432048,-0.01703500747680664,-0.07592601329088211,-0.06165631860494614,-0.03029066324234009,0.01229184865951538,0.0003488659858703613,2,0.6353044454312203,-0.1397441520538003,-0.7250076910157581,-0.2263263351155,0.9844567775726318,0.0849410817027092,-0.1537196636199951,38.97550964355469,10.738037109375,3.2105712890625,2,8542.266456000001,4,1,1580904826.507622,1580903939.50652,372,0.6209624,0.992496,1.702128,385.6992,1,0,1580904816.945688,8539.977418,0,2.565704,97.17329
1580904827.142317,87,0,1580904337.000819,41.20701635159924,29.07533761282497,172.748,-1,-1,5.74967098236084,48.00724964208526,-9999,8542.9154655,0.9538116455078125,0.0903778076171875,-0.1673583984375,8542.9104295,2.609357715749096,1.415473382878359,-0.08556707533449172,-0.02092375420033932,-0.04407354071736336,-0.0501093864440918,-0.03158473968505859,0.01161739230155945,-0.004089951515197754,2,0.635203875776268,-0.1394613165852134,-0.725104935650562,-0.2264712843215467,0.9843469262123108,0.08546269685029984,-0.1541331559419632,38.90829467773438,10.76138496398926,3.3775634765625,2,8542.266456000001,4,1,1580904826.507622,1580903939.50652,372,0.6209624,0.992496,1.702128,385.6992,1,0,1580904816.945688,8539.977418,0,2.565704,97.17329
1580904827.152418,88,0,1580904337.000819,41.20701635159924,29.07533761282497,172.748,-1,-1,5.74967098236084,48.00724964208526,-9999,8542.925505500001,0.97283935546875,0.08880615234375,-0.15838623046875,8542.920470500001,2.609548347672088,1.415257173000078,-0.08609521948166174,-0.02689962089061737,-0.02318636700510979,-0.04994107037782669,-0.03094220161437988,0.004346549510955811,-0.01343601942062378,2,0.6351843603907513,-0.1391809493514233,-0.7251418896930177,-0.2265804924072099,0.9842689633369446,0.08598889410495758,-0.1543389856815338,38.90829467773438,10.76138496398926,3.3775634765625,2,8542.266456000001,4,1,1580904826.507622,1580903939.50652,372,0.6209624,0.992496,1.702128,385.6992,1,0,1580904816.945688,8539.977418,0,2.565704,97.17329
1580904827.162353,89,0,1580904337.000819,41.20701635159924,29.07533761282497,172.748,-1,-1,5.74967098236084,48.00724964208526,-9999,8542.9355455,0.982696533203125,0.087432861328125,-0.152130126953125,8542.9305105,2.609773835763303,1.415028057765903,-0.08674126747425223,-0.03216362744569778,-0.02466628700494766,-0.06217749416828156,-0.01182413101196289,0.002130895853042603,-0.004247188568115234,2,0.6351726786929551,-0.1388443498383826,-0.7251747932905507,-0.2267142378762655,0.9841784238815308,0.08663253486156464,-0.1545558273792267,38.88600921630859,10.86743545532227,3.220550537109375,2,8542.266456000001,4,1,1580904826.507622,1580903939.50652,372,0.6209624,0.992496,1.702128,385.6992,1,0,1580904816.945688,8539.977418,0,2.565704,97.17329
1580904827.174042,90,0,1580904337.000819,41.20701635159924,29.07533761282497,172.748,-1,-1,5.74967098236084,48.00724964208526,-9999,8542.9455865,0.95819091796875,0.090606689453125,-0.1521759033203125,8542.940550500001,2.609974159452131,1.414708969695943,-0.08749332696364068,-0.03068051114678383,-0.03342648595571518,-0.07291562855243683,-0.001852929592132568,8.016824722290039e-06,0.002312958240509033,2,0.6351356139992428,-0.1384662617800188,-0.7252227069635117,-0.2268960278790128,0.9840644001960754,0.08738174289464951,-0.1548596918582916,38.88600921630859,10.86743545532227,3.220550537109375,2,8542.266456000001,4,1,1580904826.507622,1580903939.50652,372,0.6209624,0.992496,1.702128,385.6992,1,0,1580904816.945688,8539.977418,0,2.565704,97.17329
1580904827.201996,91,0,1580904337.000819,41.20701635159924,29.07533761282497,172.748,-1,-1,5.74967098236084,48.00724964208526,-9999,8542.955626500001,0.9314727783203125,0.095916748046875,-0.1638336181640625,8542.950591500001,2.610182060136083,1.414596634758565,-0.08818879107252449,-0.03284033387899399,-0.01197232864797115,-0.06528434157371521,-0.02628099918365479,0.00248873233795166,0.002368330955505371,2,0.6351690192277438,-0.1381301260124515,-0.7252116120996311,-0.2270432422549117,0.9839869141578674,0.08807452768087387,-0.1549607664346695,38.97425079345703,10.89531135559082,3.620880126953125,2,8542.266456000001,4,1,1580904826.507622,1580903939.50652,372,0.6209624,0.992496,1.702128,385.6992,1,0,1580904816.945688,8539.977418,0,2.565704,97.17329
1580904827.203866,92,0,1580904337.000819,41.20701635159924,29.07533761282497,172.748,-1,-1,5.74967098236084,48.00724964208526,-9999,8542.9656975,0.9151763916015625,0.093536376953125,-0.1760406494140625,8542.9606315,2.610414257215116,1.41502246166885,-0.08875582609004813,-0.02969460934400558,0.03689880669116974,-0.0510188490152359,-0.05301558971405029,0.007233709096908569,-0.009716629981994629,2,0.6353881052409311,-0.137894821710544,-0.7250450642205138,-0.2271047088325043,0.9840031266212463,0.08863934129476547,-0.1545339524745941,38.97425079345703,10.89531135559082,3.620880126953125,2,8542.266456000001,4,1,1580904826.507622,1580903939.50652,372,0.6209624,0.992496,1.702128,385.6992,1,0,1580904816.945688,8539.977418,0,2.565704,97.17329
1580904827.205748,93,0,1580904337.000819,41.20701635159924,29.07533761282497,172.748,-1,-1,5.74967098236084,48.00724964208526,-9999,8542.975737500001,0.910369873046875,0.07940673828125,-0.193878173828125,8542.970671500001,2.610814141350125,1.41635463294824,-0.08934538822927751,-0.04944967478513718,0.1256766021251678,-0.05004306882619858,-0.06946516036987305,0.004265815019607544,-0.02324306964874268,2,0.6359489124997958,-0.1377008614579461,-0.7246073039209938,-0.2270502094322017,0.9841564893722534,0.08922656625509262,-0.1532149016857147,39.07370758056641,10.96442031860352,3.627471923828125,2,8542.266456000001,4,1,1580904826.507622,1580903939.50652,372,0.6209624,0.992496,1.702128,385.6992,1,0,1580904816.945688,8539.977418,0,2.565704,97.17329
1580904827.212684,94,0,1580904337.000819,41.20701635159924,29.07533761282497,172.748,-1,-1,5.74967098236084,48.00724964208526,-9999,8542.9857775,0.9473724365234375,0.0829620361328125,-0.177642822265625,8542.9807115,2.611321046900573,1.41863458905376,-0.09008250665650662,-0.05875076353549957,0.2321700304746628,-0.06294208765029907,-0.07455325126647949,-0.01059833168983459,-0.04333597421646118,2,0.6368723105226063,-0.137525751901017,-0.723864350871727,-0.2269377197768211,0.984437882900238,0.0899607241153717,-0.1509606540203094,39.07370758056641,10.96442031860352,3.627471923828125,2,8542.266456000001,4,1,1580904826.507622,1580903939.50652,372,0.6209624,0.992496,1.702128,385.6992,1,0,1580904816.945688,8539.977418,0,2.565704,97.17329
1580904827.222853,95,0,1580904337.000819,41.20701635159924,29.07533761282497,172.748,-1,-1,5.74967098236084,48.00724964208526,-9999,8542.995818500001,0.9730987548828125,0.0857696533203125,-0.155670166015625,8542.9907525,2.61199965008035,1.421157006097227,-0.09103256372013706,-0.08197376132011414,0.2432132810354233,-0.08420329540967941,-0.03784358501434326,-0.007989704608917236,-0.02959835529327393,2,0.6379120661965714,-0.1372446301444235,-0.7230407505387233,-0.2268132410945352,0.9847306609153748,0.09090688824653625,-0.1484642177820206,39.00113677978516,11.04023361206055,3.635101318359375,2,8542.266456000001,4,1,1580904826.507622,1580903939.50652,372,0.6209624,0,0,385.6992,1,0,1580904827.227494,8539.977418,0,2.565704,97.17329
1580904827.234104,96,0,1580904337.000819,41.20701635159924,29.07533761282497,172.748,-1,-1,5.74967098236084,48.00724964208526,-9999,8543.005858500001,0.9541473388671875,0.0953216552734375,-0.1539154052734375,8543.000792500001,2.612791935905014,1.423893511088897,-0.09205299824462321,-0.09314383566379547,0.267440140247345,-0.09065970033407211,-0.0124276876449585,-0.006198704242706299,-0.01033586263656616,2,0.6390413320989757,-0.1369252795600992,-0.722152889754576,-0.2266559341649189,0.9850409626960754,0.09192305058240891,-0.1457552909851074,39.00113677978516,11.04023361206055,3.635101318359375,2,8542.266456000001,4,1,1580904826.507622,1580903939.50652,372,0.6209624,0,0,385.6992,1,0,1580904827.227494,8539.977418,0,2.565704,97.17329
1580904827.26152,97,0,1580904337.000819,41.20701635159924,29.07533761282497,172.748,-1,-1,5.74967098236084,48.00724964208526,-9999,8543.0158985,0.946929931640625,0.1087799072265625,-0.1479644775390625,8543.0108325,2.61362263526411,1.426793234731166,-0.0929120972401995,-0.09438459575176239,0.2806640565395355,-0.07295820116996765,-0.03171944618225098,0.002497434616088867,-0.01145118474960327,2,0.6402167628738898,-0.1366712563823743,-0.7212317509033164,-0.2264246979268369,0.9853808283805847,0.09277847409248352,-0.1428869217634201,39.07027435302734,11.03086471557617,3.92535400390625,2,8542.266456000001,4,1,1580904826.507622,1580903939.50652,372,0.6209624,0,0,385.6992,1,0,1580904827.227494,8539.977418,0,2.565704,97.17329
1580904827.263087,98,0,1580904337.000819,41.20701635159924,29.07533761282497,172.748,-1,-1,5.74967098236084,48.00724964208526,-9999,8543.025939500001,0.9336395263671875,0.109130859375,-0.1546630859375,8543.020903500001,2.614406269206919,1.430059036556395,-0.09351958861836593,-0.08585717529058456,0.3168411552906036,-0.04978705197572708,-0.03934240341186523,0.01535052061080933,-0.008728563785552979,2,0.641497991281417,-0.136565873862976,-0.7202117879993425,-0.2261082945787734,0.9857861995697021,0.09338332712650299,-0.1396601796150208,39.07027435302734,11.03086471557617,3.92535400390625,2,8542.266456000001,4,1,1580904826.507622,1580903939.50652,372,0.6209624,0,0,385.6992,1,0,1580904827.227494,8539.977418,0,2.565704,97.17329
1580904827.264246,99,0,1580904337.000819,41.20701635159924,29.07533761282497,172.748,-1,-1,5.74967098236084,48.00724964208526,-9999,8543.0359795,0.9473114013671875,0.11151123046875,-0.14459228515625,8543.0309435,2.61510000816879,1.433731459907912,-0.09387089701509679,-0.07356109470129013,0.3628683090209961,-0.02532538399100304,-0.05310678482055664,0.01535153388977051,-0.01905465126037598,2,0.6428960394594709,-0.1366287352134784,-0.7190750290818879,-0.2257174584615669,0.986259937286377,0.09373309463262558,-0.1360345482826233,39.16797637939453,10.92983818054199,4.062591552734375,2,8542.266456000001,4,1,1580904826.507622,1580903939.50652,372,0.6209624,0,0,385.6992,1,0,1580904827.227494,8539.977418,0,2.565704,97.17329
1580904827.273027,100,0,1580904337.000819,41.20701635159924,29.07533761282497,172.748,-1,-1,5.74967098236084,48.00724964208526,-9999,8543.046019500001,0.9583740234375,0.1141357421875,-0.128875732421875,8543.040984500001,2.615682222351365,1.437494155965829,-0.09397048457632022,-0.05896782130002975,0.3692326247692108,-0.001075911801308393,-0.03993093967437744,0.01763269305229187,-0.01269912719726562,2,0.6442958562622554,-0.1368290260524023,-0.7179195502291091,-0.2252821496365658,0.9867554306983948,0.09383224695920944,-0.1323213279247284,39.16797637939453,10.92983818054199,4.062591552734375,2,8542.266456000001,4,1,1580904826.507622,1580903939.50652,372,0.6209624,0,0,385.6992,1,0,1580904827.227494,8539.977418,0,2.565704,97.17329
1580904827.283027,101,0,1580904337.000819,41.20701635159924,29.07533761282497,172.748,-1,-1,5.74967098236084,48.00724964208526,-9999,8543.056059500001,0.9788055419921875,0.1123046875,-0.11529541015625,8543.0510245,2.616103496097187,1.441123927533544,-0.09391576521830895,-0.03962847590446472,0.3617062866687775,0.01159141398966312,-0.02934753894805908,0.02031171321868896,-0.0005661845207214355,2,0.6456220999627192,-0.1371217521570845,-0.7168021617998093,-0.2248653693922387,0.9872344732284546,0.09377776831388474,-0.1287394613027573,38.95811462402344,11.05746078491211,4.4110107421875,2,8542.266456000001,4,1,1580904826.507622,1580903939.50652,372,0.6209624,0,0,385.6992,1,0,1580904827.227494,8539.977418,0,2.565704,97.17329
1580904827.313657,102,0,1580904337.000819,41.20701635159924,29.07533761282497,172.748,-1,-1,5.74967098236084,48.00724964208526,-9999,8543.0661005,0.9757537841796875,0.1144256591796875,-0.1033477783203125,8543.0610645,2.61640492787667,1.44425053239909,-0.09374378520084543,-0.02846824564039707,0.3087352812290192,0.01927671208977699,-0.009330093860626221,0.01865187287330627,0.009927093982696533,2,0.6467484461614749,-0.1374385741301323,-0.7158434716395505,-0.2244887927710544,0.9876481294631958,0.09360654652118683,-0.1256541758775711,38.95811462402344,11.05746078491211,4.4110107421875,2,8542.266456000001,4,1,1580904826.507622,1580903939.50652,372,0.6209624,0,0,385.6992,1,0,1580904827.227494,8539.977418,0,2.565704,97.17329
1580904827.315,103,0,1580904337.000819,41.20701635159924,29.07533761282497,172.748,-1,-1,5.74967098236084,48.00724964208526,-9999,8543.076140500001,0.9452056884765625,0.116485595703125,-0.112060546875,8543.071105500001,2.616557976919967,1.447044750787342,-0.09329472723821611,-0.008759255520999432,0.2775627374649048,0.04713071510195732,-0.01277101039886475,0.02122023701667786,0.01911848783493042,2,0.6477215457583974,-0.1378666603999462,-0.7150025453463186,-0.2241005229353025,0.988037109375,0.09315944463014603,-0.122899167239666,38.98731994628906,11.10199737548828,4.53009033203125,2,8542.266456000001,4,1,1580904826.507622,1580903939.50652,372,0.6209624,0,0,385.6992,1,0,1580904827.227494,8539.977418,0,2.565704,97.17329
1580904827.316054,104,0,1580904337.000819,41.20701635159924,29.07533761282497,172.748,-1,-1,5.74967098236084,48.00724964208526,-9999,8543.0861805,0.9544830322265625,0.1122589111328125,-0.116546630859375,8543.0811455,2.616583824098562,1.449741228496761,-0.0925750850542103,0.006128347478806973,0.2680176794528961,0.07158465683460236,-0.04371321201324463,0.02399703860282898,0.00774770975112915,2,0.6486276332914651,-0.1384229815845169,-0.7142052874907608,-0.2236782301498814,0.9884309768676758,0.09244291484355927,-0.1202425435185432,38.98731994628906,11.10199737548828,4.53009033203125,2,8542.266456000001,4,1,1580904826.507622,1580903939.50652,372,0.6209624,0,0,385.6992,1,0,1580904827.227494,8539.977418,0,2.565704,97.17329
1580904827.323134,105,0,1580904337.000819,41.20701635159924,29.07533761282497,172.748,-1,-1,5.74967098236084,48.00724964208526,-9999,8543.096251500001,0.97283935546875,0.11212158203125,-0.1055908203125,8543.091185500001,2.616473576141767,1.452279264180989,-0.09167237425007412,0.02100796066224575,0.2587850391864777,0.08700942248106003,-0.03482043743133545,0.02066969871520996,0.0007613301277160645,2,0.6494516180541211,-0.1390717062478692,-0.7134620335334891,-0.2232566561315733,0.9888154864311218,0.09154403209686279,-0.1177433133125305,38.96204376220703,10.98460388183594,4.6868896484375,2,8542.266456000001,4,1,1580904826.507622,1580903939.50652,372,0.6209624,0,0,385.6992,1,0,1580904827.227494,8539.977418,0,2.565704,97.17329
1580904827.33325,106,0,1580904337.000819,41.20701635159924,29.07533761282497,172.748,-1,-1,5.74967098236084,48.00724964208526,-9999,8543.1062915,0.9837799072265625,0.1101837158203125,-0.100677490234375,8543.101225500001,2.616202879593857,1.454416550169783,-0.09067695979735245,0.03782954812049866,0.2153227925300598,0.09826233983039856,-0.01680362224578857,0.02152413129806519,0.009613037109375,2,0.6501129242939168,-0.1397608193986313,-0.7128396493661607,-0.222889627842389,0.9891549944877625,0.09055274724960327,-0.1156402006745338,38.96204376220703,10.98460388183594,4.6868896484375,2,8542.266456000001,4,1,1580904826.507622,1580903939.50652,372,0.6209624,0,0,385.6992,1,0,1580904827.227494,8539.977418,0,2.565704,97.17329
1580904827.343266,107,0,1580904337.000819,41.20701635159924,29.07533761282497,172.748,-1,-1,5.74967098236084,48.00724964208526,-9999,8543.1163325,0.995758056640625,0.1004486083984375,-0.103607177734375,8543.1112665,2.615770975478716,1.456250747615446,-0.08976119708155249,0.05285733938217163,0.1885344684123993,0.08772113174200058,-0.006155490875244141,0.02049878239631653,0.01272058486938477,2,0.650660685666988,-0.1404389742491948,-0.7122890282146866,-0.2226252466015554,0.9894474744796753,0.08964070677757263,-0.1138351336121559,38.97323608398438,10.7634220123291,4.901458740234375,2,8542.266456000001,4,1,1580904826.507622,1580903939.50652,372,0.6209624,0,0,385.6992,1,0,1580904827.227494,8539.977418,0,2.565704,97.17329
1580904827.354516,108,0,1580904337.000819,41.20701635159924,29.07533761282497,172.748,-1,-1,5.74967098236084,48.00724964208526,-9999,8543.126372500001,1.002609252929688,0.095550537109375,-0.1001739501953125,8543.121306500001,2.615247702357435,1.457757649800041,-0.08902589623569242,0.06045033037662506,0.1561570763587952,0.06812190264463425,0.005586862564086914,0.01149636507034302,0.008306384086608887,2,0.6510996642937116,-0.141044411822773,-0.7118157699017121,-0.2224725602503798,0.9896830320358276,0.08890834450721741,-0.1123514026403427,39.09979248046875,10.73282814025879,4.957977294921875,2,8542.266456000001,4,1,1580904826.507622,1580903939.50652,372,0.6209624,0,0,385.6992,1,0,1580904827.227494,8539.977418,0,2.565704,97.17329
1580904827.379762,109,0,1580904337.000819,41.20701635159924,29.07533761282497,172.748,-1,-1,5.74967098236084,48.00724964208526,-9999,8543.1364125,1.017562866210938,0.081573486328125,-0.1017303466796875,8543.1313465,2.614819094531804,1.458969250156092,-0.08854217535362606,0.04709591343998909,0.1282029449939728,0.04556279629468918,0.0122600793838501,0.007080405950546265,0.01054477691650391,2,0.6514604998846586,-0.1414945692906798,-0.7114231931982843,-0.2223861357867994,0.9898610711097717,0.08842653036117554,-0.1111570075154305,39.09979248046875,10.73282814025879,4.957977294921875,2,8542.266456000001,4,1,1580904826.507622,1580903939.50652,372,0.6209624,0,0,385.6992,1,0,1580904827.227494,8539.977418,0,2.565704,97.17329
1580904827.381042,110,0,1580904337.000819,41.20701635159924,29.07533761282497,172.748,-1,-1,5.74967098236084,48.00724964208526,-9999,8543.146452500001,1.011856079101562,0.07318115234375,-0.104583740234375,8543.141417500001,2.614544515503069,1.459920676010341,-0.0884179265882012,0.02820021845400333,0.09371722489595413,0.01067578792572021,0.02709758281707764,-0.006772816181182861,0.008047521114349365,2,0.651769130835422,-0.1417349674689297,-0.7110954652862665,-0.2223770186413565,0.9899773597717285,0.08830276876688004,-0.1102164015173912,38.85141754150391,10.49521636962891,5.09759521484375,2,8542.266456000001,4,1,1580904826.507622,1580903939.50652,372,0.6209624,0,0,385.6992,1,0,1580904827.227494,8539.977418,0,2.565704,97.17329
1580904827.383476,111,0,1580904337.000819,41.20701635159924,29.07533761282497,172.748,-1,-1,5.74967098236084,48.00724964208526,-9999,8543.156493500001,1.0052490234375,0.08258056640625,-0.0991058349609375,8543.1514575,2.614363245183099,1.460710496761215,-0.08863130265242046,0.01618882827460766,0.08281370997428894,-0.02396448142826557,0.02132254838943481,-0.01537781953811646,0.004409432411193848,2,0.6520546948328153,-0.1418043882359217,-0.7107959052255867,-0.2224531675598549,0.9900453090667725,0.08851530402898788,-0.1094323843717575,38.85141754150391,10.49521636962891,5.09759521484375,2,8542.266456000001,4,1,1580904826.507622,1580903939.50652,372,0.6209624,0,0,385.6992,1,0,1580904827.227494,8539.977418,0,2.565704,97.17329
1580904827.393637,112,0,1580904337.000819,41.20701635159924,29.07533761282497,172.748,-1,-1,5.74967098236084,48.00724964208526,-9999,8543.1665335,0.99609375,0.0915679931640625,-0.0976409912109375,8543.1614985,2.614263985582174,1.461174430680232,-0.08900337901606266,0.00399097241461277,0.04649202153086662,-0.0387490950524807,0.0146976113319397,-0.00634920597076416,0.009424149990081787,2,0.6522432725114964,-0.141753280165044,-0.7105953250222535,-0.2225736668767988,0.9900631308555603,0.08888591825962067,-0.1089694425463676,38.86673736572266,10.68228149414062,4.96234130859375,2,8542.266456000001,4,1,1580904826.507622,1580903939.50652,372,0.6209624,0,0,385.6992,1,0,1580904827.227494,8539.977418,0,2.565704,97.17329
1580904827.403439,113,0,1580904337.000819,41.20701635159924,29.07533761282497,172.748,-1,-1,5.74967098236084,48.00724964208526,-9999,8543.176573500001,0.982147216796875,0.099639892578125,-0.0940399169921875,8543.171538500001,2.614162646878129,1.461330712821775,-0.08935594557281207,0.006525236181914806,0.02161623537540436,-0.03358576074242592,0.00555652379989624,0.0022868812084198,0.0107305645942688,2,0.6523207492137825,-0.1416757121815385,-0.7104966902929,-0.2227104782304173,0.9900488257408142,0.08923708647489548,-0.108811266720295,38.86673736572266,10.68228149414062,4.96234130859375,2,8542.266456000001,4,1,1580904826.507622,1580903939.50652,372,0.6209624,0,0,385.6992,1,0,1580904827.227494,8539.977418,0,2.565704,97.17329
1580904827.414042,114,0,1580904337.000819,41.20701635159924,29.07533761282497,172.748,-1,-1,5.74967098236084,48.00724964208526,-9999,8543.1866145,0.9982757568359375,0.10235595703125,-0.0829925537109375,8543.1815785,2.614063766602873,1.460827653550461,-0.08967387352159234,0.006045996211469173,-0.05024760961532593,-0.03061285428702831,-0.00830686092376709,0.01004195213317871,0.01482671499252319,2,0.6521612758626426,-0.1415364899158128,-0.7106169868525368,-0.2228821432776743,0.9899656772613525,0.08955373615026474,-0.1093061864376068,38.91286468505859,10.73979949951172,4.946044921875,2,8542.266456000001,4,1,1580904826.507622,1580903939.50652,372,0.6209624,0,0,385.6992,1,0,1580904827.227494,8539.977418,0,2.565704,97.17329
1580904827.439193,115,0,1580904337.000819,41.20701635159924,29.07533761282497,172.748,-1,-1,5.74967098236084,48.00724964208526,-9999,8543.196654500001,0.9986724853515625,0.098114013671875,-0.0910186767578125,8543.191618500001,2.61390003377483,1.459733771086246,-0.09003488155953014,0.01320057734847069,-0.1061644032597542,-0.03423342108726501,0.007974207401275635,0.01239833235740662,0.02695417404174805,2,0.6517907534627899,-0.1413367966767202,-0.7109182106388606,-0.2231322653506785,0.9898134469985962,0.08991328626871109,-0.1103854477405548,38.91286468505859,10.73979949951172,4.946044921875,2,8542.266456000001,4,1,1580904826.507622,1580903939.50652,372,0.6209624,0,0,385.6992,1,0,1580904827.227494,8539.977418,0,2.565704,97.17329
1580904827.4405,116,0,1580904337.000819,41.20701635159924,29.07533761282497,172.748,-1,-1,5.74967098236084,48.00724964208526,-9999,8543.206694500001,1.005706787109375,0.093017578125,-0.0914764404296875,8543.2016595,2.613672542444649,1.458062566496889,-0.09064134257736467,0.01650412753224373,-0.167490229010582,-0.06132400780916214,0.008611321449279785,0.007552057504653931,0.02057671546936035,2,0.6512305641145653,-0.141003882743449,-0.7113746743254777,-0.2235233386879186,0.9895731806755066,0.09051727503538132,-0.1120333150029182,38.83563995361328,10.91730880737305,4.879974365234375,2,8542.266456000001,4,1,1580904826.507622,1580903939.50652,372,0.6209624,0,0,385.6992,1,0,1580904827.227494,8539.977418,0,2.565704,97.17329
1580904827.443733,117,0,1580904337.000819,41.20701635159924,29.07533761282497,172.748,-1,-1,5.74967098236084,48.00724964208526,-9999,8543.216765500001,0.9836883544921875,0.09149169921875,-0.1109161376953125,8543.2116995,2.613450082676346,1.456134132496611,-0.09151867650812266,0.01183241046965122,-0.1936294138431549,-0.09197379648685455,0.01594251394271851,0.001581460237503052,0.0220184326171875,2,0.6506012330996174,-0.140541405870584,-0.7118868583625969,-0.224015971649711,0.9892759919166565,0.09139097481966019,-0.1139322966337204,38.83563995361328,10.91730880737305,4.879974365234375,2,8542.266456000001,4,1,1580904826.507622,1580903939.50652,372,0.6209624,0,0,385.6992,1,0,1580904827.227494,8539.977418,0,2.565704,97.17329
1580904827.453997,118,0,1580904337.000819,41.20701635159924,29.07533761282497,172.748,-1,-1,5.74967098236084,48.00724964208526,-9999,8543.2268055,0.95941162109375,0.1011505126953125,-0.118133544921875,8543.221739500001,2.613263977038907,1.454311263837676,-0.09239573096754547,0.007071638479828835,-0.1804586350917816,-0.08842232078313828,-0.005786597728729248,-0.0008181929588317871,0.004373431205749512,2,0.6500115685334005,-0.1400782635781026,-0.7123682031673214,-0.2244874858954641,0.9889867901802063,0.092264324426651,-0.1157260835170746,38.75862121582031,10.98865699768066,4.78631591796875,2,8542.266456000001,4,1,1580904826.507622,1580903939.50652,372,0.6209624,0,0,385.6992,1,0,1580904827.227494,8539.977418,0,2.565704,97.17329
1580904827.463848,119,0,1580904337.000819,41.20701635159924,29.07533761282497,172.748,-1,-1,5.74967098236084,48.00724964208526,-9999,8543.2368455,0.9658660888671875,0.1028900146484375,-0.1125946044921875,8543.2317805,2.613090453765917,1.45250505474846,-0.09322018740643034,0.007275370880961418,-0.1775083839893341,-0.08415140956640244,-0.02977681159973145,0.008019298315048218,-0.001066267490386963,2,0.6494239840131374,-0.1396312903481789,-0.7128501772330739,-0.2249359582008296,0.9887002110481262,0.09308522939682007,-0.1175031810998917,38.75862121582031,10.98865699768066,4.78631591796875,2,8542.266456000001,4,1,1580904826.507622,1580903939.50652,372,0.6209624,0,0,385.6992,1,0,1580904827.227494,8539.977418,0,2.565704,97.17329
1580904827.474319,120,0,1580904337.000819,41.20701635159924,29.07533761282497,172.748,-1,-1,5.74967098236084,48.00724964208526,-9999,8543.246886500001,0.9738616943359375,0.10101318359375,-0.110931396484375,8543.241820500001,2.61292192500958,1.450552913986182,-0.09405046947059241,0.00641905702650547,-0.1950880438089371,-0.0838409960269928,-0.02301400899887085,0.008931726217269897,0.006394267082214355,2,0.6487847569801269,-0.1391634535660032,-0.7133789470696467,-0.2253940384885782,0.9883919954299927,0.09391187876462936,-0.1194237470626831,38.80561065673828,10.98892021179199,4.84783935546875,2,8542.266456000001,4,1,1580904826.507622,1580903939.50652,372,0.6209624,0,0,385.6992,1,0,1580904827.227494,8539.977418,0,2.565704,97.17329
1580904827.498383,121,0,1580904337.000819,41.20701635159924,29.07533761282497,172.748,-1,-1,5.74967098236084,48.00724964208526,-9999,8543.2569265,0.9720458984375,0.0989990234375,-0.1209259033203125,8543.2518605,2.612755921835118,1.448531579911178,-0.09500379845105612,0.00488161388784647,-0.2056480050086975,-0.09468857944011688,-0.01468539237976074,0.006105393171310425,0.01004505157470703,2,0.6481307117004673,-0.1386412296883416,-0.7139167434538436,-0.2258938938444452,0.9880591630935669,0.09486094862222672,-0.1214103773236275,38.80561065673828,10.98892021179199,4.84783935546875,2,8542.266456000001,4,1,1580904826.507622,1580903939.50652,372,0.6209624,0,0,385.6992,1,0,1580904827.227494,8539.977418,0,2.565704,97.17329
1580904827.49966,122,0,1580904337.000819,41.20701635159924,29.07533761282497,172.748,-1,-1,5.74967098236084,48.00724964208526,-9999,8543.266966500001,0.967010498046875,0.0874176025390625,-0.1367950439453125,8543.2619005,2.612621417518067,1.446834883431503,-0.09618970039784595,-0.001916401088237762,-0.1661773771047592,-0.1190731823444366,-0.0161813497543335,0.00291016697883606,0.001713693141937256,2,0.6476134564071275,-0.138059705414617,-0.7143282141552183,-0.2264323879207712,0.9877395033836365,0.09604143351316452,-0.1230726540088654,38.99728393554688,11.13924407958984,4.5736083984375,2,8542.266456000001,4,1,1580904826.507622,1580903939.50652,372,0.6209624,0,0,385.6992,1,0,1580904827.227494,8539.977418,0,2.565704,97.17329
1580904827.504355,123,0,1580904337.000819,41.20701635159924,29.07533761282497,172.748,-1,-1,5.74967098236084,48.00724964208526,-9999,8543.277007500001,0.98199462890625,0.097930908203125,-0.120574951171875,8543.2719715,2.612528071397282,1.445234107719495,-0.09752230529968181,-0.007024610415101051,-0.1587410271167755,-0.1324409246444702,-0.02089059352874756,-0.009998321533203125,-0.01259011030197144,2,0.6471450119892935,-0.1374211996097294,-0.7146972338694562,-0.2269946404702602,0.987413227558136,0.0973677933216095,-0.1246374920010567,38.99728393554688,11.13924407958984,4.5736083984375,2,8542.266456000001,4,1,1580904826.507622,1580903939.50652,372,0.6209624,0,0,385.6992,1,0,1580904827.227494,8539.977418,0,2.565704,97.17329
1580904827.513895,124,0,1580904337.000819,41.20701635159924,29.07533761282497,172.748,-1,-1,5.74967098236084,48.00724964208526,-9999,8543.2870475,0.974609375,0.1043853759765625,-0.1213531494140625,8543.2820125,2.612454689823935,1.443496842687101,-0.09895365339657385,-0.01216160599142313,-0.174716979265213,-0.142397552728653,-0.005548954010009766,-0.0009101629257202148,0.00532841682434082,2,0.6466368183589044,-0.136723733584103,-0.7151018642469077,-0.2275891413434956,0.9870560765266418,0.09879224002361298,-0.1263348907232285,38.90387725830078,11.3017749786377,4.537506103515625,2,8542.266456000001,4,1,1580904826.507622,1580903939.50652,372,0.6209624,0,0,385.6992,1,0,1580904827.227494,8539.977418,0,2.565704,97.17329
1580904827.524171,125,0,1580904337.000819,41.20701635159924,29.07533761282497,172.748,-1,-1,5.74967098236084,48.00724964208526,-9999,8543.297087500001,0.9749908447265625,0.107147216796875,-0.118743896484375,8543.292052500001,2.61231666319424,1.441654747257382,-0.1004672342243467,-0.004214733373373747,-0.1824800968170166,-0.1515039652585983,-0.01255017518997192,0.004037529230117798,0.006349802017211914,2,0.6460929710782631,-0.1360040662956187,-0.7155236492520233,-0.2282384816056727,0.9866723418235779,0.1002983078360558,-0.1281335353851318,38.90387725830078,11.3017749786377,4.537506103515625,2,8542.266456000001,4,1,1580904826.507622,1580903939.50652,372,0.6209624,0,0,385.6992,1,0,1580904827.227494,8539.977418,0,2.565704,97.17329
1580904827.561095,126,0,1580904337.000819,41.20701635159924,29.07533761282497,172.748,-1,-1,5.74967098236084,48.00724964208526,-9999,8543.3071275,0.9781951904296875,0.10430908203125,-0.12542724609375,8543.3020925,2.612201760850482,1.439636264344781,-0.102097986077127,-0.008839077316224575,-0.2071944177150726,-0.1630834192037582,-0.01174426078796387,0.005176186561584473,0.01092976331710815,2,0.6454966490559587,-0.1352125865183682,-0.715991699415824,-0.2289267341123521,0.9862480163574219,0.1019207015633583,-0.1301032602787018,38.92195129394531,11.20622062683105,4.453277587890625,2,8542.266456000001,4,1,1580904826.507622,1580903939.50652,372,0.6209624,0,0,385.6992,1,0,1580904827.227494,8539.977418,0,2.565704,97.17329
1580904827.562425,127,0,1580904337.000819,41.20701635159924,29.07533761282497,172.748,-1,-1,5.74967098236084,48.00724964208526,-9999,8543.3171685,0.97344970703125,0.1077880859375,-0.1375579833984375,8543.312132500001,2.612068685122288,1.437837583382794,-0.1038932237233673,-0.01187907531857491,-0.1749981343746185,-0.1800384372472763,-0.008121371269226074,0.0005514323711395264,0.005996346473693848,2,0.6449906423901732,-0.1343905105914562,-0.7163686076690127,-0.2296565954047949,0.9858294129371643,0.1037064269185066,-0.1318525224924088,38.92195129394531,11.20622062683105,4.453277587890625,2,8542.266456000001,4,1,1580904826.507622,1580903939.50652,372,0.6209624,0,0,385.6992,1,0,1580904827.227494,8539.977418,0,2.565704,97.17329
1580904827.563517,128,0,1580904337.000819,41.20701635159924,29.07533761282497,172.748,-1,-1,5.74967098236084,48.00724964208526,-9999,8543.327208500001,1.007431030273438,0.1223297119140625,-0.102752685546875,8543.322173500001,2.61182880618556,1.435683105598767,-0.1057874045177377,-0.002056878060102463,-0.213103398680687,-0.1900591850280762,-0.01238381862640381,0.002145737409591675,-0.004036188125610352,2,0.6443574561419031,-0.1335242453309444,-0.7168366387383834,-0.2304779309910063,0.9853468537330627,0.1055902019143105,-0.133949488401413,38.84307861328125,11.14034843444824,4.39984130859375,2,8542.266456000001,4,1,1580904826.507622,1580903939.50652,372,0.6209624,0,0,385.6992,1,0,1580904827.227494,8540.917901000001,0,2.565704,97.1733
1580904827.564664,129,0,1580904337.000819,41.20701635159924,29.07533761282497,172.748,-1,-1,5.74967098236084,48.00724964208526,-9999,8543.3372485,0.9820709228515625,0.12933349609375,-0.1143035888671875,8543.3322135,2.611447592721532,1.433134257592239,-0.1078954452954228,0.006072154268622398,-0.2543933093547821,-0.2093777656555176,0.02216517925262451,0.01459032297134399,0.03325057029724121,2,0.6435902208607446,-0.1325774280630533,-0.7173912258931284,-0.2314407381582292,0.9847795963287354,0.1076862215995789,-0.1364297121763229,38.84307861328125,11.14034843444824,4.39984130859375,2,8542.266456000001,4,1,1580904826.507622,1580903939.50652,372,0.6209624,0,0,385.6992,1,0,1580904827.227494,8540.917901000001,0,2.565704,97.1733
1580904827.574326,130,0,1580904337.000819,41.20701635159924,29.07533761282497,172.748,-1,-1,5.74967098236084,48.00724964208526,-9999,8543.347319500001,0.9601593017578125,0.1067047119140625,-0.1579742431640625,8543.342253500001,2.611006168883673,1.430890871167286,-0.1101121897562138,0.006629303097724915,-0.2187123447656631,-0.2145494818687439,-0.002647340297698975,0.01938942074775696,0.02387595176696777,2,0.6429367133479043,-0.1316430779706146,-0.7178271903965217,-0.2324363869902816,0.9842321872711182,0.1098898127675056,-0.1386049687862396,38.68707275390625,11.57066535949707,4.206298828125,2,8542.266456000001,4,1,1580904826.507622,1580903939.50652,372,0.6209624,0,0,385.6992,1,0,1580904827.227494,8540.917901000001,0,2.565704,97.1733
1580904827.584275,131,0,1580904337.000819,41.20701635159924,29.07533761282497,172.748,-1,-1,5.74967098236084,48.00724964208526,-9999,8543.3573595,0.997283935546875,0.110809326171875,-0.157562255859375,8543.3522935,2.610554258154929,1.428956493443301,-0.112478678198169,0.007829589769244194,-0.1834776550531387,-0.2367200255393982,-0.02402877807617188,-0.005592435598373413,-0.01792758703231812,2,0.6424050166510318,-0.130690795186247,-0.718145002011006,-0.2334598371456187,0.9837020039558411,0.11224165558815,-0.1404714286327362,38.68707275390625,11.57066535949707,4.206298828125,2,8542.266456000001,4,1,1580904826.507622,1580903939.50652,372,0.6209624,0,0,385.6992,1,0,1580904827.227494,8540.917901000001,0,2.565704,97.1733
1580904827.618999,132,0,1580904337.000819,41.20701635159924,29.07533761282497,172.748,-1,-1,5.74967098236084,48.00724964208526,-9999,8543.367400500001,1.048492431640625,0.1297454833984375,-0.1245880126953125,8543.3623345,2.610000610172526,1.426789403084763,-0.1151636615450829,0.01371411792933941,-0.2058856189250946,-0.2731765508651733,0.01370489597320557,-0.004156738519668579,-0.01542693376541138,2,0.6418083831263415,-0.1296243205963754,-0.7184897086888322,-0.2346313603781123,0.9830933213233948,0.1149092689156532,-0.1425590664148331,38.71800994873047,11.73103904724121,4.1474609375,2,8542.266456000001,4,1,1580904826.507622,1580903939.50652,372,0.6209624,0,0,385.6992,1,0,1580904827.227494,8540.917901000001,0,2.565704,97.1733
1580904827.620905,133,0,1580904337.000819,41.20701635159924,29.07533761282497,172.748,-1,-1,5.74967098236084,48.00724964208526,-9999,8543.3774405,1.11614990234375,0.128875732421875,-0.1205596923828125,8543.372374500001,2.609277883033922,1.42374240484645,-0.1183106827710323,0.02418033964931965,-0.2944599390029907,-0.3140888512134552,0.06571537256240845,0.01165235042572021,0.02049022912979126,2,0.6409212216419643,-0.1283350369355284,-0.7190449686594028,-0.2360603640049264,0.9822919964790344,0.1180348694324493,-0.1455002129077911,38.71800994873047,11.73103904724121,4.1474609375,2,8542.266456000001,4,1,1580904826.507622,1580903939.50652,372,0.6209624,0,0,385.6992,1,0,1580904827.227494,8540.917901000001,0,2.565704,97.1733
1580904827.622031,134,0,1580904337.000819,41.20701635159924,29.07533761282497,172.748,-1,-1,5.74967098236084,48.00724964208526,-9999,8543.387480500001,1.134765625,0.131103515625,-0.1081085205078125,8543.3824145,2.608389563514953,1.419694773659986,-0.1223083582661059,0.02510371431708336,-0.3999547064304352,-0.4124209582805634,0.1344444751739502,0.006811767816543579,0.02842265367507935,2,0.6397309924412213,-0.1266605524445071,-0.7198049783141929,-0.2378698549373673,0.981220543384552,0.1220036447048187,-0.1494027227163315,38.68891143798828,12.03182601928711,3.838592529296875,2,8542.266456000001,4,1,1580904826.507622,1580903939.50652,372,0.6209624,0,0,385.6992,1,0,1580904827.227494,8540.917901000001,0,2.565704,97.1733
1580904827.624474,135,0,1580904337.000819,41.20701635159924,29.07533761282497,172.748,-1,-1,5.74967098236084,48.00724964208526,-9999,8543.397521500001,1.090438842773438,0.155303955078125,-0.0743255615234375,8543.3924855,2.607153992115328,1.415078844544054,-0.1267466113342723,0.05271084234118462,-0.444019079208374,-0.4523856937885284,0.1543054580688477,0.004633516073226929,0.04531824588775635,2,0.6383478490559549,-0.1248582543005571,-0.7206509996542902,-0.2399678937061271,0.9799759984016418,0.1264075189828873,-0.153844878077507,38.68891143798828,12.03182601928711,3.838592529296875,2,8542.266456000001,4,1,1580904826.507622,1580903939.50652,372,0.6209624,0,0,385.6992,1,0,1580904827.227494,8540.917901000001,0,2.565704,97.1733
1580904827.634967,136,0,1580904337.000819,41.20701635159924,29.07533761282497,172.748,-1,-1,5.74967098236084,48.00724964208526,-9999,8543.4075615,1.219970703125,0.1302947998046875,-0.110137939453125,8543.4025255,2.605478550380814,1.410082912307057,-0.1321152862679964,0.07778778672218323,-0.4938361942768097,-0.5459238290786743,0.1114440560340881,0.02350753545761108,0.08388644456863403,2,0.6368732270201474,-0.1227946241260671,-0.7214544931607331,-0.2425229557554983,0.9785111546516418,0.1317312866449356,-0.1586279422044754,38.48183441162109,12.26951026916504,3.629608154296875,2,8542.266456000001,4,1,1580904826.507622,1580903939.50652,372,0.6209624,0,0,385.6992,1,0,1580904827.227494,8540.917901000001,0,2.565704,97.1733
1580904827.644514,137,0,1580904337.000819,41.20701635159924,29.07533761282497,172.748,-1,-1,5.74967098236084,48.00724964208526,-9999,8543.417601500001,1.334518432617188,0.09014892578125,-0.2703399658203125,8543.412566500001,2.603745356713695,1.405611108749894,-0.139975883331868,0.07044971734285355,-0.4444377422332764,-0.7759943008422852,0.2427473664283752,-0.009293437004089355,0.05227500200271606,2,0.6357808365488725,-0.1198722019119656,-0.7217961490745192,-0.2458125531370526,0.9767404794692993,0.1395192295312881,-0.1628267616033554,38.48183441162109,12.26951026916504,3.629608154296875,2,8542.266456000001,4,1,1580904826.507622,1580903939.50652,372,0.6209624,0,0,385.6992,1,0,1580904827.227494,8540.917901000001,0,2.565704,97.1733
1580904827.680819,138,0,1580904337.000819,41.20701635159924,29.07533761282497,172.748,-1,-1,5.74967098236084,48.00724964208526,-9999,8543.4276415,1.501068115234375,0.077484130859375,-0.3692474365234375,8543.4226065,2.602479156987974,1.402659932326772,-0.1518203078807734,-0.05715283006429672,-0.249259278178215,-1.186341881752014,0.3594785928726196,-0.06116363406181335,-0.1053323745727539,2,0.6355725337598639,-0.1154874740866407,-0.7212447386655286,-0.2500322157844848,0.9745578765869141,0.1512377560138702,-0.1654203981161118,38.3544921875,12.80827522277832,3.56024169921875,2,8542.266456000001,4,1,1580904826.507622,1580903939.50652,372,0.6209624,0,0,385.6992,1,0,1580904827.227494,8540.917901000001,0,2.565704,97.1733
1580904827.68226,139,0,1580904337.000819,41.20701635159924,29.07533761282497,172.748,-1,-1,5.74967098236084,48.00724964208526,-9999,8543.4376825,1.398284912109375,0.1422576904296875,-0.20654296875,8543.432646500001,2.601402892329391,1.399952329174632,-0.1668189705247383,-0.1646779477596283,-0.2742639482021332,-1.489197731018066,0.5288259983062744,-0.08864432573318481,-0.2020049691200256,2,0.6356885784784815,-0.109877380953792,-0.7202450504321765,-0.2550962961585821,0.9717617034912109,0.1660463213920593,-0.1676539778709412,38.3544921875,12.80827522277832,3.56024169921875,2,8542.266456000001,4,1,1580904826.507622,1580903939.50652,372,0.6209624,0,0,385.6992,1,0,1580904827.227494,8540.917901000001,0,2.565704,97.1733
1580904827.683344,140,0,1580904337.000819,41.20701635159924,29.07533761282497,172.748,-1,-1,5.74967098236084,48.00724964208526,-9999,8543.447722500001,1.450942993164062,0.1690673828125,-0.1580657958984375,8543.442687500001,2.599541331455035,1.397948932133698,-0.1845557322972433,-0.1155192106962204,-0.1367359161376953,-1.777142286300659,0.429436206817627,-0.04134285449981689,-0.03788644075393677,2,0.6361926184458517,-0.1035630330038396,-0.7185480178987913,-0.2611943640246346,0.9683700799942017,0.1835098266601562,-0.169067308306694,37.86392974853516,13.51182556152344,3.09735107421875,2,8542.266456000001,4,1,1580904826.507622,1580903939.50652,372,0.6209624,0,0,385.6992,1,0,1580904827.227494,8540.917901000001,0,2.565704,97.1733
1580904827.684729,141,0,1580904337.000819,41.20701635159924,29.07533761282497,172.748,-1,-1,5.74967098236084,48.00724964208526,-9999,8543.4577625,1.573043823242188,0.1185455322265625,-0.1913909912109375,8543.4527275,2.597227685104543,1.394861145205267,-0.2049168265441365,-0.1292062550783157,-0.2580343782901764,-2.038095235824585,0.4865022301673889,-0.03451898694038391,0.01289129257202148,2,0.6364383877946951,-0.09624290451944435,-0.7167462903297417,-0.2682500171525292,0.96396404504776,0.2034857273101807,-0.171366959810257,37.86392974853516,13.51182556152344,3.09735107421875,2,8542.266456000001,4,1,1580904826.507622,1580903939.50652,372,0.6209624,0,0,385.6992,1,0,1580904827.227494,8540.917901000001,0,2.565704,97.1733
1580904827.69489,142,0,1580904337.000819,41.20701635159924,29.07533761282497,172.748,-1,-1,5.74967098236084,48.00724964208526,-9999,8543.467833500001,1.619293212890625,0.106781005859375,-0.2772216796875,8543.462767500001,2.594921817491944,1.390359728272502,-0.2280721075273489,-0.1913927495479584,-0.4236361682415009,-2.298187494277954,0.614280104637146,-0.1076661944389343,-0.01698696613311768,2,0.6363274506774438,-0.08764383815200398,-0.7149521101481249,-0.276133200443234,0.9582900404930115,0.2260999828577042,-0.1748118698596954,37.17411041259766,14.54732894897461,2.779998779296875,2,8542.266456000001,4,1,1580904826.507622,1580903939.50652,372,0.6209624,0,0,385.6992,1,0,1580904827.227494,8540.917901000001,0,2.565704,97.1733
1580904827.704826,143,0,1580904337.000819,41.20701635159924,29.07533761282497,172.748,-1,-1,5.74967098236084,48.00724964208526,-9999,8543.4778735,1.626663208007812,0.1572113037109375,-0.18829345703125,8543.4728075,2.59223343352328,1.386272547891631,-0.2550389953545378,-0.2331132888793945,-0.3385244905948639,-2.691173791885376,0.6675966382026672,-0.1456269025802612,-0.1000849008560181,2,0.6365411565571033,-0.07774061194804203,-0.7123562112003067,-0.2851670741502975,0.9512262344360352,0.2522831559181213,-0.177543506026268,37.17411041259766,14.54732894897461,2.779998779296875,2,8542.266456000001,4,1,1580904826.507622,1580903939.50652,372,0.6209624,0,0,385.6992,1,0,1580904827.227494,8540.917901000001,0,2.565704,97.1733
1580904827.737821,144,0,1580904337.000819,41.20701635159924,29.07533761282497,172.748,-1,-1,5.74967098236084,48.00724964208526,-9999,8543.487914500001,1.8214111328125,0.1119232177734375,-0.1945037841796875,8543.4828485,2.58868403287467,1.381711799322304,-0.2861463465549528,-0.2366706132888794,-0.3411144912242889,-3.100570678710938,0.683957040309906,-0.1251856684684753,-0.00838172435760498,2,0.6367331451849156,-0.0664253784457724,-0.7090626756856369,-0.2956159005880707,0.9422402381896973,0.2822573781013489,-0.180317148566246,36.10842895507812,15.92976951599121,2.377655029296875,2,8542.266456000001,4,1,1580904826.507622,1580903939.50652,372,0.6209624,0,0,385.6992,1,0,1580904827.227494,8540.917901000001,0,2.565704,97.1733
1580904827.739302,145,0,1580904337.000819,41.20701635159924,29.07533761282497,172.748,-1,-1,5.74967098236084,48.00724964208526,-9999,8543.497954500001,2.008499145507812,0.1465301513671875,-0.0659332275390625,8543.492888500001,2.583885878966272,1.37398596785281,-0.3218586932603633,-0.2407636344432831,-0.6261270642280579,-3.592020034790039,0.8906153440475464,-0.2045635581016541,-0.009405612945556641,2,0.6359386078832517,-0.05321263790278154,-0.7057143696889783,-0.3077625695965722,0.9303357601165771,0.3163303434848785,-0.1855010092258453,36.10842895507812,15.92976951599121,2.377655029296875,2,8542.266456000001,4,1,1580904826.507622,1580903939.50652,372,0.6209624,0,0,385.6992,1,0,1580904827.227494,8540.917901000001,0,2.565704,97.1733
1580904827.740883,146,0,1580904337.000819,41.20701635159924,29.07533761282497,172.748,-1,-1,5.74967098236084,48.00724964208526,-9999,8543.5079945,1.91265869140625,0.08428955078125,0.0458526611328125,8543.5029285,2.57728865867557,1.362309917348834,-0.3613965287366112,-0.1715787053108215,-0.9610483646392822,-3.968924522399902,1.092898368835449,-0.2072256803512573,0.1272770166397095,2,0.6338160418533644,-0.03837440352185602,-0.702472136911083,-0.3214614081382172,0.9151480197906494,0.3535808920860291,-0.1936092674732208,34.74964904785156,17.82563781738281,1.62939453125,2,8542.266456000001,4,1,1580904826.507622,1580903939.50652,372,0.6209624,0,0,385.6992,1,0,1580904827.227494,8540.917901000001,0,2.565704,97.1733
1580904827.744983,147,0,1580904337.000819,41.20701635159924,29.07533761282497,172.748,-1,-1,5.74967098236084,48.00724964208526,-9999,8543.518034500001,1.956924438476562,0.0395660400390625,-0.2582855224609375,8543.512969500001,2.569109521871201,1.348516672349778,-0.4053641145301919,-0.2053678035736084,-1.072284579277039,-4.448860168457031,1.015865087509155,-0.3102589845657349,0.2480459809303284,2,0.6310546884665293,-0.0218178137318384,-0.6985622515468605,-0.33660758941716,0.8963500261306763,0.3943533897399902,-0.2025879323482513,34.74964904785156,17.82563781738281,1.62939453125,2,8542.266456000001,4,1,1580904826.507622,1580903939.50652,372,0.6209624,0,0,385.6992,1,0,1580904827.227494,8540.917901000001,0,2.565704,97.1733
1580904827.756005,148,0,1580904337.000819,41.20701635159924,29.07533761282497,172.748,-1,-1,5.74967098236084,48.00724964208526,-9999,8543.5280755,2.332672119140625,0.0299835205078125,-0.402587890625,8543.5230395,2.559291189390299,1.332683932222175,-0.4535105687666803,-0.2122069448232651,-1.154488325119019,-4.830226421356201,1.082940816879272,-0.3987745940685272,-0.04664945602416992,2,0.6276735761399177,-0.003602269049659115,-0.6938387614925055,-0.3529881880115662,0.873551607131958,0.4381239414215088,-0.2120258063077927,32.91714477539062,19.51565933227539,0.770263671875,2,8542.266456000001,4,1,1580904826.507622,1580903939.50652,372,0.6209624,0,0,385.6992,1,0,1580904827.227494,8540.917901000001,0,2.565704,97.1733
1580904827.765332,149,0,1580904337.000819,41.20701635159924,29.07533761282497,172.748,-1,-1,5.74967098236084,48.00724964208526,-9999,8543.538115500001,2.400344848632812,0.1190185546875,-0.1853485107421875,8543.533080500001,2.548098037243693,1.314395176721052,-0.5069087800032407,-0.3641552031040192,-1.340057373046875,-5.420606136322021,1.486584544181824,-0.4557337760925293,-0.1812626123428345,2,0.6235852722850038,0.01691625117986861,-0.6881234653307975,-0.3705957751582061,0.845669150352478,0.4854770600795746,-0.2217105031013489,32.91714477539062,19.51565933227539,0.770263671875,2,8542.266456000001,4,1,1580904826.507622,1580903939.50652,372,0.6209624,0,0,385.6992,1,0,1580904827.227494,8540.917901000001,0,2.565704,97.1733
1580904827.798619,150,0,1580904337.000819,41.20701635159924,29.07533761282497,172.748,-1,-1,5.74967098236084,48.00724964208526,-9999,8543.548155500001,2.50018310546875,0.2618408203125,0.0099334716796875,8543.5431205,2.532978494718357,1.294952080730942,-0.5644581339221224,-0.2589677572250366,-1.143586874008179,-5.870150566101074,1.5870041847229,-0.4162042140960693,0.04438114166259766,2,0.6192530433493403,0.03834548608164542,-0.6805234751760062,-0.3897987113755925,0.8129384517669678,0.5349580645561218,-0.2301105856895447,30.26686859130859,22.00078773498535,-0.615936279296875,2,8542.266456000001,4,1,1580904826.507622,1580903939.50652,372,0.6209624,0,0,385.6992,1,0,1580904827.227494,8540.917901000001,0,2.565704,97.1733
1580904827.80093,151,0,1580904337.000819,41.20701635159924,29.07533761282497,172.748,-1,-1,5.74967098236084,48.00724964208526,-9999,8543.5581965,2.74444580078125,0.0856781005859375,0.1146240234375,8543.5531605,2.512654321954495,1.270704235558479,-0.6259924936532937,-0.137667179107666,-1.288824677467346,-6.360105514526367,1.725634813308716,-0.3243508338928223,0.2491129636764526,2,0.6135942994831484,0.06102663965426431,-0.67168505381001,-0.410630034640776,0.7741655111312866,0.5859018564224243,-0.2395555675029755,30.26686859130859,22.00078773498535,-0.615936279296875,2,8542.266456000001,4,1,1580904826.507622,1580903939.50652,372,0.6209624,0,0,385.6992,1,0,1580904827.227494,8540.917901000001,0,2.565704,97.1733
1580904827.802429,152,0,1580904337.000819,41.20701635159924,29.07533761282497,172.748,-1,-1,5.74967098236084,48.00724964208526,-9999,8543.568236500001,2.86041259765625,0.0372772216796875,0.0580596923828125,8543.563200500001,2.485696371082039,1.238633716339116,-0.6912269479394227,0.01723974570631981,-1.58962619304657,-6.853153705596924,2.015735149383545,-0.5521202683448792,0.3654928207397461,2,0.6059001822031747,0.08523671878352693,-0.6619532459290284,-0.4329405664821583,0.7283503413200378,0.6374830007553101,-0.2512393295764923,27.16196441650391,24.32376861572266,-1.871246337890625,2,8542.266456000001,4,1,1580904826.507622,1580903939.50652,372,0.6209624,0,0,385.6992,1,0,1580904827.227494,8540.917901000001,0,2.565704,97.1733
1580904827.805978,153,0,1580904337.000819,41.20701635159924,29.07533761282497,172.748,-1,-1,5.74967098236084,48.00724964208526,-9999,8543.5782765,2.83587646484375,0.0335845947265625,0.2510833740234375,8543.5732415,2.450286749380707,1.200024713041538,-0.7586520128173897,0.1789998710155487,-1.471992254257202,-7.169757843017578,2.18363094329834,-0.6510068774223328,0.3206644654273987,2,0.5970369468430549,0.1098277036872755,-0.6504739359878047,-0.4564739546955323,0.6764469742774963,0.6879437565803528,-0.2629695236682892,27.16196441650391,24.32376861572266,-1.871246337890625,2,8542.266456000001,4,1,1580904826.507622,1580903939.50652,372,0.6209624,0,0,385.6992,1,0,1580904827.227494,8540.917901000001,0,2.565704,97.1733
1580904827.815529,154,0,1580904337.000819,41.20701635159924,29.07533761282497,172.748,-1,-1,5.74967098236084,48.00724964208526,-9999,8543.588316500001,2.927902221679688,0.0683135986328125,0.30023193359375,8543.583281500001,2.403428326761879,1.152602872497839,-0.8284545702124615,0.2968814671039581,-1.409957766532898,-7.711555480957031,2.217811584472656,-0.7036676406860352,0.5252611041069031,2,0.5869956491485546,0.134787691538188,-0.6367590674320627,-0.4814626381745237,0.617759108543396,0.736887514591217,-0.2745367586612701,23.13228607177734,26.70266914367676,-3.654052734375,2,8542.266456000001,4,1,1580904826.507622,1580903939.50652,372,0.6209624,0,0,385.6992,1,0,1580904827.227494,8540.917901000001,0,2.565704,97.1733
1580904827.825735,155,0,1580904337.000819,41.20701635159924,29.07533761282497,172.748,-1,-1,5.74967098236084,48.00724964208526,-9999,8543.5983875,2.977142333984375,0.003631591796875,0.6949310302734375,8543.5933215,2.342239452321843,1.092986137706159,-0.8969048074853786,0.6218244433403015,-1.30449390411377,-7.872257232666016,2.373485565185547,-0.7134722471237183,0.5868310332298279,2,0.5755368728757153,0.15900100242111,-0.6215187005365972,-0.5071395010945292,0.5541424751281738,0.781399130821228,-0.2869519889354706,23.13228607177734,26.70266914367676,-3.654052734375,2,8542.266456000001,4,1,1580904826.507622,1580903939.50652,372,0.6209624,0,0,385.6992,1,0,1580904827.227494,8540.917901000001,0,2.565704,97.1733
1580904827.854257,156,0,1580904337.000819,41.20701635159924,29.07533761282497,172.748,-1,-1,5.74967098236084,48.00724964208526,-9999,8543.6084285,2.80108642578125,-0.2929840087890625,0.92510986328125,8543.6033625,2.26346152629644,1.01684095494666,-0.96104916711722,0.9033487439155579,-1.270442008972168,-7.871024608612061,2.489882230758667,-0.816567063331604,0.9958359003067017,2,0.5623685325539105,0.1819786437856639,-0.6054661312943831,-0.532950360907864,0.4870190322399139,0.8197928071022034,-0.3012508153915405,18.38189697265625,28.1030445098877,-5.577850341796875,2,8542.266456000001,4,1,1580904826.507622,1580903939.50652,372,0.6209624,0,0,385.6992,1,0,1580904827.227494,8540.917901000001,0,2.565704,97.1733
1580904827.855896,157,0,1580904337.000819,41.20701635159924,29.07533761282497,172.748,-1,-1,5.74967098236084,48.00724964208526,-9999,8543.618468500001,2.492279052734375,-1.17926025390625,0.7956085205078125,8543.613402500001,2.164010301324786,0.9174489673180986,-1.015823161982361,1.541463851928711,-1.556613326072693,-7.622062683105469,2.382476329803467,-1.143319368362427,1.245060682296753,2,0.546361956988316,0.2033344440287215,-0.590567902037786,-0.5580082770614387,0.4184030592441559,0.8499146103858948,-0.3202874362468719,13.5904541015625,28.91287040710449,-7.850128173828125,2,8542.266456000001,4,1,1580904826.507622,1580903939.50652,372,0.6209624,0,0,385.6992,1,0,1580904827.227494,8540.917901000001,0,2.565704,97.1733
1580904827.856901,158,0,1580904337.000819,41.20701635159924,29.07533761282497,172.748,-1,-1,5.74967098236084,48.00724964208526,-9999,8543.6285085,1.274276733398438,-1.530044555664062,0.4623565673828125,8543.6234425,2.075058800488049,0.8143567299299559,-1.055385229175659,0.8083904385566711,-2.802526950836182,-6.200384140014648,2.133628606796265,-2.049781084060669,1.133571147918701,2,0.5296894776724457,0.2242409041729524,-0.5818097008365184,-0.5750152946138049,0.3584730625152588,0.8700901865959167,-0.3382901549339294,13.5904541015625,28.91287040710449,-7.850128173828125,2,8542.266456000001,4,1,1580904826.507622,1580903939.50652,372,0.6209624,0,0,385.6992,1,0,1580904827.227494,8540.917901000001,0,2.565704,97.1733
1580904827.865347,159,0,1580904337.000819,41.20701635159924,29.07533761282497,172.748,-1,-1,5.74967098236084,48.00724964208526,-9999,8543.638548500001,0.158843994140625,-1.561141967773438,0.3801727294921875,8543.633482500001,2.032730288966084,0.7468534657235253,-1.06796973293239,0.5472092032432556,-3.044234037399292,-2.239869832992554,0.9467412233352661,-2.406702041625977,0.8156726360321045,2,0.5164656556182087,0.2375821603677767,-0.583653040630034,-0.579799265953076,0.3273735642433167,0.8762239217758179,-0.3536358773708344,10.27172088623047,28.63641357421875,-9.910919189453125,2,8542.266456000001,4,1,1580904826.507622,1580903939.50652,372,0.6209624,0,0,385.6992,1,0,1580904827.227494,8540.917901000001,0,2.565704,97.1733
1580904827.875586,160,0,1580904337.000819,41.20701635159924,29.07533761282497,172.748,-1,-1,5.74967098236084,48.00724964208526,-9999,8543.648589500001,0.3876953125,-1.605697631835938,0.633636474609375,8543.6435535,2.034141402790973,0.7184163345093632,-1.062554712552814,0.361471027135849,-2.979137182235718,0.5049927830696106,-0.1616188287734985,-2.435175895690918,0.7462266683578491,2,0.5072043494241556,0.2440489495367939,-0.5928695047815615,-0.5759248741146507,0.320304274559021,0.8736015558242798,-0.3663677275180817,10.27172088623047,28.63641357421875,-9.910919189453125,2,8542.266456000001,4,1,1580904826.507622,1580903939.50652,372,0.6209624,0,0,385.6992,1,0,1580904827.227494,8540.917901000001,0,2.565704,97.1733
1580904827.885584,161,0,1580904337.000819,41.20701635159924,29.07533761282497,172.748,-1,-1,5.74967098236084,48.00724964208526,-9999,8543.6586295,0.5771026611328125,-1.134124755859375,0.8341827392578125,8543.653594500001,2.061656870405843,0.7209329005107126,-1.047114406704898,0.253762423992157,-2.149841785430908,2.087686777114868,0.05744165182113647,-2.472110271453857,1.008976459503174,2,0.5025206660844331,0.2442303088758767,-0.6044304011425621,-0.5678805071464317,0.3300902843475342,0.8659838438034058,-0.3756490647792816,10.10921478271484,28.36100387573242,-12.0125732421875,2,8542.266456000001,4,1,1580904826.507622,1580903939.50652,372,0.6209624,0,0,385.6992,1,0,1580904827.227494,8540.917901000001,0,2.565704,97.1733
