loggingTime,loggingSample,identifierForVendor,locationTimestamp_since1970,locationLatitude,locationLongitude,locationAltitude,locationSpeed,locationCourse,locationVerticalAccuracy,locationHorizontalAccuracy,locationFloor,accelerometerTimestamp_sinceReboot,accelerometerAccelerationX,accelerometerAccelerationY,accelerometerAccelerationZ,motionTimestamp_sinceReboot,motionYaw,motionRoll,motionPitch,motionRotationRateX,motionRotationRateY,motionRotationRateZ,motionUserAccelerationX,motionUserAccelerationY,motionUserAccelerationZ,motionAttitudeReferenceFrame,motionQuaternionX,motionQuaternionY,motionQuaternionZ,motionQuaternionW,motionGravityX,motionGravityY,motionGravityZ,motionMagneticFieldX,motionMagneticFieldY,motionMagneticFieldZ,motionMagneticFieldCalibrationAccuracy,activityTimestamp_sinceReboot,activity,activityActivityConfidence,activityActivityStartDate,pedometerStartDate,pedometerNumberofSteps,pedometerAverageActivePace,pedometerCurrentPace,pedometerCurrentCadence,pedometerDistance,pedometerFloorAscended,pedometerFloorDescended,pedometerEndDate,altimeterTimestamp_sinceReboot,altimeterReset,altimeterRelativeAltitude,altimeterPressure
1580905858.563482,1,0,1580904337.000819,41.20701635159924,29.07533761282497,172.748,-1,-1,5.74967098236084,48.00724964208526,-9999,9574.290318916666,0.975433349609375,0.085479736328125,-0.1638336181640625,9574.285283916668,0.777655472906675,1.403480217886833,-0.09090812904081498,-0.00655155535787344,0.04258137196302414,0.002319649793207645,-0.01911789178848267,-0.009863898158073425,-0.004879236221313477,2,0.2765887032351917,-0.5835874029939183,-0.2620871121956792,-0.7171016663035397,0.9819636940956116,0.09078296273946762,-0.1658488661050797,23.49519348144531,-10.72257232666016,8.34906005859375,2,9573.947178916667,2,2,1580905858.188345,1580903939.50652,1577,0.4102195,0,0,2131.439,1,0,1580905796.492468,9571.261397,0,12.49023,97.05811
1580905858.56541,2,0,1580904337.000819,41.20701635159924,29.07533761282497,172.748,-1,-1,5.74967098236084,48.00724964208526,-9999,9574.300358916667,0.9738616943359375,0.090301513671875,-0.1628570556640625,9574.295323916667,0.7777235175859214,1.40357579588922,-0.0909558907124805,-0.008022951893508434,0.002255786210298538,-0.008699978701770306,-0.008173823356628418,-0.005501776933670044,0.0005341768264770508,2,0.2766377067692837,-0.5836046987832225,-0.2620837190955196,-0.7170698356148026,0.9819751381874084,0.09083052724599838,-0.1657542735338211,23.46219635009766,-10.90409088134766,8.466339111328125,2,9573.947178916667,2,2,1580905858.188345,1580903939.50652,1577,0.4102195,0,0,2131.439,1,0,1580905796.492468,9571.261397,0,12.49023,97.05811
1580905858.589635,3,0,1580904337.000819,41.20701635159924,29.07533761282497,172.748,-1,-1,5.74967098236084,48.00724964208526,-9999,9574.310399916667,0.951446533203125,0.086761474609375,-0.173858642578125,9574.305363916666,0.7777684502062918,1.403767617818846,-0.09093269415538131,-0.001537086442112923,0.02191180735826492,0.001617962494492531,-0.009779274463653564,-0.0006568431854248047,0.001322567462921143,2,0.2766678751566554,-0.583670929528243,-0.262080372909912,-0.7170055771259609,0.9820090532302856,0.09080743044614792,-0.1655662655830383,23.46219635009766,-10.90409088134766,8.466339111328125,2,9573.947178916667,2,2,1580905858.188345,1580903939.50652,1577,0.4102195,0,0,2131.439,1,0,1580905796.492468,9571.261397,0,12.49023,97.05811
1580905858.590883,4,0,1580904337.000819,41.20701635159924,29.07533761282497,172.748,-1,-1,5.74967098236084,48.00724964208526,-9999,9574.320469916667,0.960174560546875,0.0825958251953125,-0.1629791259765625,9574.315404916668,0.7778064696214871,1.403981061763026,-0.09093666343313261,-0.004762973636388779,0.02287480607628822,-0.001616180408746004,-0.03222948312759399,-0.004200831055641174,-0.009889066219329834,2,0.2767083183450423,-0.5837415586427119,-0.2620632630523799,-0.7169387241196535,0.9820440411567688,0.09081137925386429,-0.1653565913438797,23.56451416015625,-10.90782928466797,8.51953125,2,9573.947178916667,2,2,1580905858.188345,1580903939.50652,1577,0.4102195,0,0,2131.439,1,0,1580905796.492468,9571.261397,0,12.49023,97.05811
1580905858.591963,5,0,1580904337.000819,41.20701635159924,29.07533761282497,172.748,-1,-1,5.74967098236084,48.00724964208526,-9999,9574.330510916667,0.97259521484375,0.0811004638671875,-0.1697845458984375,9574.325444916667,0.7778435907387033,1.40409126677197,-0.09089448383576816,-0.003022863995283842,0.01113319769501686,0.006690751761198044,-0.02352344989776611,-0.008324414491653442,0.0008828043937683105,2,0.2767189371417146,-0.5837826003335317,-0.2620741894196782,-0.7168972322634473,0.9820660352706909,0.09076938033103943,-0.1652490049600601,23.56451416015625,-10.90782928466797,8.51953125,2,9573.947178916667,2,2,1580905858.188345,1580903939.50652,1577,0.4102195,0,0,2131.439,1,0,1580905796.492468,9571.261397,0,12.49023,97.05811
1580905858.592946,6,0,1580904337.000819,41.20701635159924,29.07533761282497,172.748,-1,-1,5.74967098236084,48.00724964208526,-9999,9574.340550916668,0.9579010009765625,0.0865631103515625,-0.170379638671875,9574.335484916668,0.777872937991779,1.404216066695173,-0.09087932454837007,-0.002414598129689693,0.01346452906727791,0.001441128551959991,-0.01112473011016846,-0.009804651141166687,-0.006045222282409668,2,0.2767386123322706,-0.5838256663655215,-0.2620720612871349,-0.7168552814412683,0.9820879697799683,0.09075427800416946,-0.1651266664266586,23.56250762939453,-11.07875823974609,8.50250244140625,2,9573.947178916667,2,2,1580905858.188345,1580903939.50652,1577,0.4102195,0,0,2131.439,1,0,1580905796.492468,9571.261397,0,12.49023,97.05811
1580905858.593939,7,0,1580904337.000819,41.20701635159924,29.07533761282497,172.748,-1,-1,5.74967098236084,48.00724964208526,-9999,9574.350590916667,0.9674835205078125,0.09088134765625,-0.1716156005859375,9574.345524916667,0.7778884936361206,1.404289575125618,-0.09090241246465093,-0.001508324407041073,0.009171448647975922,-0.003388093318790197,-0.02582907676696777,-0.004365041851997375,-0.006712913513183594,2,0.2767607667937292,-0.583846216716973,-0.2620604286007301,-0.7168343562863738,0.9820981621742249,0.09077727049589157,-0.1650541424751282,23.56250762939453,-11.07875823974609,8.50250244140625,2,9573.947178916667,2,2,1580905858.188345,1580903939.50652,1577,0.4102195,0,0,2131.439,1,0,1580905796.492468,9571.261397,0,12.49023,97.05811
1580905858.594975,8,0,1580904337.000819,41.20701635159924,29.07533761282497,172.748,-1,-1,5.74967098236084,48.00724964208526,-9999,9574.360631916667,0.965972900390625,0.0838165283203125,-0.171875,9574.355565916667,0.7778776032972992,1.404334169965063,-0.09087327088605698,0.002106118015944958,0.005493089556694031,0.002873264253139496,-0.01625674962997437,-1.771748065948486e-05,-0.00799262523651123,2,0.2767533283180035,-0.5838683128410252,-0.2620592415138043,-0.7168196100256836,0.9821080565452576,0.09074825048446655,-0.1650107800960541,23.50688934326172,-10.6945915222168,8.462890625,2,9573.947178916667,2,2,1580905858.188345,1580903939.50652,1577,0.4102195,0,0,2131.439,1,0,1580905796.492468,9571.261397,0,12.49023,97.05811
1580905858.595923,9,0,1580904337.000819,41.20701635159924,29.07533761282497,172.748,-1,-1,5.74967098236084,48.00724964208526,-9999,9574.370671916668,0.96881103515625,0.07781982421875,-0.164093017578125,9574.365636916667,0.7778959640177195,1.40437438958062,-0.09085113533015798,-0.002527623437345028,0.006903020665049553,0.001306524500250816,-0.01777595281600952,-0.007060497999191284,-0.008291184902191162,2,0.2767562874161382,-0.5838836848767365,-0.2620670068041281,-0.7168030580940741,0.9821165800094604,0.09072620421648026,-0.1649716049432755,23.50688934326172,-10.6945915222168,8.462890625,2,9573.947178916667,2,2,1580905858.188345,1580903939.50652,1577,0.4102195,0,0,2131.439,1,0,1580905796.492468,9571.261397,0,12.49023,97.05811
1580905858.604083,10,0,1580904337.000819,41.20701635159924,29.07533761282497,172.748,-1,-1,5.74967098236084,48.00724964208526,-9999,9574.380711916667,0.9691009521484375,0.0842132568359375,-0.1644439697265625,9574.375676916667,0.7779170635544769,1.404318833364505,-0.09085861502558332,-0.002634415868669748,-0.00731373205780983,-0.000906029250472784,-0.01492798328399658,-0.01306462287902832,-0.0004547238349914551,2,0.2767577742114778,-0.5838596683952781,-0.2620799730601842,-0.7168172771343703,0.9821067452430725,0.09073365479707718,-0.1650260388851166,23.53343200683594,-10.73365783691406,8.51409912109375,2,9573.947178916667,2,2,1580905858.188345,1580903939.50652,1577,0.4102195,0,0,2131.439,1,0,1580905796.492468,9571.261397,0,12.49023,97.05811
1580905858.614416,11,0,1580904337.000819,41.20701635159924,29.07533761282497,172.748,-1,-1,5.74967098236084,48.00724964208526,-9999,9574.390751916668,0.961883544921875,0.091796875,-0.1652374267578125,9574.385716916668,0.7779283586422643,1.404237119556429,-0.09089130401322627,-0.001835762057453394,-0.006252627819776535,-0.003194587770849466,-0.0146215558052063,-0.006703823804855347,-0.0007256865501403809,2,0.2767617232932056,-0.5838236454580912,-0.2620853551033663,-0.7168431027987501,0.9820902943611145,0.09076620638370514,-0.1651058048009872,23.53343200683594,-10.73365783691406,8.51409912109375,2,9573.947178916667,2,2,1580905858.188345,1580903939.50652,1577,0.4102195,0,0,2131.439,1,0,1580905796.492468,9571.261397,0,12.49023,97.05811
1580905858.624152,12,0,1580904337.000819,41.20701635159924,29.07533761282497,172.748,-1,-1,5.74967098236084,48.00724964208526,-9999,9574.400792916667,0.9651031494140625,0.0919647216796875,-0.171600341796875,9574.395756916667,0.7779292622794531,1.404070775817864,-0.09091013292016654,-0.001571576111018658,-0.01608581840991974,-0.002226528711616993,-0.02180981636047363,0.0008610039949417114,-0.001355767250061035,2,0.2767467198717696,-0.5837609201068343,-0.2621029548419635,-0.71689356528492,0.9820611476898193,0.0907849594950676,-0.1652688831090927,23.64023590087891,-10.72600936889648,8.607269287109375,2,9573.947178916667,2,2,1580905858.188345,1580903939.50652,1577,0.4102195,0,0,2131.439,1,0,1580905796.492468,9571.261397,0,12.49023,97.05811
1580905858.646647,13,0,1580904337.000819,41.20701635159924,29.07533761282497,172.748,-1,-1,5.74967098236084,48.00724964208526,-9999,9574.410832916667,0.9589691162109375,0.08453369140625,-0.170166015625,9574.405797916666,0.7779114628768171,1.403996083512164,-0.09089401671491842,0.001798919402062893,-0.006289346143603325,0.001863077282905579,-0.01857924461364746,0.001044929027557373,-0.007645070552825928,2,0.27672614465726,-0.5837391576278114,-0.2621118244035707,-0.716915966155357,0.9820502400398254,0.09076891094446182,-0.1653424799442291,23.64023590087891,-10.72600936889648,8.607269287109375,2,9573.947178916667,2,2,1580905858.188345,1580903939.50652,1577,0.4102195,0,0,2131.439,1,0,1580905796.492468,9571.261397,0,12.49023,97.05811
1580905858.647896,14,0,1580904337.000819,41.20701635159924,29.07533761282497,172.748,-1,-1,5.74967098236084,48.00724964208526,-9999,9574.420872916668,0.967498779296875,0.0772247314453125,-0.168182373046875,9574.415837916667,0.777891351141622,1.403912668418359,-0.09090045478621912,0.002433816902339458,-0.007179108448326588,-0.001930861733853817,-0.02469903230667114,-0.006392493844032288,-0.006128847599029541,2,0.2767115520144132,-0.5837110261107022,-0.262114197672266,-0.7169437175986738,0.9820359349250793,0.09077532589435577,-0.1654243171215057,23.52819061279297,-10.90628433227539,8.61962890625,2,9573.947178916667,2,2,1580905858.188345,1580903939.50652,1577,0.4102195,0,0,2131.439,1,0,1580905796.492468,9571.261397,0,12.49023,97.05811
1580905858.654496,15,0,1580904337.000819,41.20701635159924,29.07533761282497,172.748,-1,-1,5.74967098236084,48.00724964208526,-9999,9574.430943916666,0.9688720703125,0.08331298828125,-0.168548583984375,9574.425877916667,0.7778823253738787,1.403806793177993,-0.09090732781462768,0.0005915965884923935,-0.008639301173388958,0.000699218362569809,-0.0161510705947876,-0.01370835304260254,-0.004041075706481934,2,0.276697453766733,-0.5836732281127004,-0.2621235092763683,-0.7169764519705203,0.9820177555084229,0.09078216552734375,-0.1655281633138657,23.52819061279297,-10.90628433227539,8.61962890625,2,9573.947178916667,2,2,1580905858.188345,1580903939.50652,1577,0.4102195,0,0,2131.439,1,0,1580905796.492468,9571.261397,0,12.49023,97.05811
1580905858.664344,16,0,1580904337.000819,41.20701635159924,29.07533761282497,172.748,-1,-1,5.74967098236084,48.00724964208526,-9999,9574.440983916667,0.9581146240234375,0.0918426513671875,-0.1680755615234375,9574.435917916668,0.7778780316556148,1.403702433165457,-0.09095630419911993,-0.000326128676533699,-0.008918667212128639,-0.004190612118691206,-0.01475620269775391,-0.007668927311897278,-0.004305243492126465,2,0.2766994828708672,-0.5836286719308452,-0.2621214810301677,-0.7170128424803234,0.9819962382316589,0.09083094447851181,-0.1656299382448196,23.58449554443359,-10.93135070800781,8.479034423828125,2,9573.947178916667,2,2,1580905858.188345,1580903939.50652,1577,0.4102195,0,0,2131.439,1,0,1580905796.492468,9571.261397,0,12.49023,97.05811
1580905858.674407,17,0,1580904337.000819,41.20701635159924,29.07533761282497,172.748,-1,-1,5.74967098236084,48.00724964208526,-9999,9574.451024916667,0.9627685546875,0.091644287109375,-0.1727752685546875,9574.445958916667,0.7778594363030293,1.403598060496567,-0.09099405953828214,0.001557108946144581,-0.009991642087697983,-0.005164415575563908,-0.02549296617507935,0.0008230656385421753,-0.003730297088623047,2,0.2766935135240357,-0.583587847180287,-0.2621177359146687,-0.7170496812674776,0.9819754958152771,0.09086854010820389,-0.1657318472862244,23.47884368896484,-11.25817108154297,8.615631103515625,2,9573.947178916667,2,2,1580905858.188345,1580903939.50652,1577,0.4102195,0,0,2131.439,1,0,1580905796.492468,9571.261397,0,12.49023,97.05811
1580905858.68449,18,0,1580904337.000819,41.20701635159924,29.07533761282497,172.748,-1,-1,5.74967098236084,48.00724964208526,-9999,9574.461064916668,0.9617919921875,0.083953857421875,-0.1739349365234375,9574.455998916666,0.7778514169595045,1.403561481749391,-0.09097163192925758,0.001524352468550205,-0.002566749230027199,0.0008524637669324875,-0.02083492279052734,0.0006470829248428345,-0.008393704891204834,2,0.2766786035995691,-0.5835793875132446,-0.2621267578258641,-0.7170589747434631,0.9819713830947876,0.09084620326757431,-0.165768101811409,23.47884368896484,-11.25817108154297,8.615631103515625,2,9573.947178916667,2,2,1580905858.188345,1580903939.50652,1577,0.4102195,0,0,2131.439,1,0,1580905796.492468,9571.261397,0,12.49023,97.05811
1580905858.711349,19,0,1580904337.000819,41.20701635159924,29.07533761282497,172.748,-1,-1,5.74967098236084,48.00724964208526,-9999,9574.471104916667,0.959564208984375,0.0759124755859375,-0.1718292236328125,9574.466038916667,0.7778536763566581,1.403553781750411,-0.09094167110573446,0.001788537949323654,0.000200541689991951,0.003233596682548523,-0.02181273698806763,-0.007013469934463501,-0.009545326232910156,2,0.2766678774201082,-0.5835810479533841,-0.2621377637266175,-0.7170576406419903,0.9819726943969727,0.09081637114286423,-0.1657760888338089,23.54135894775391,-11.15909194946289,8.546630859375,2,9573.947178916667,2,2,1580905858.188345,1580903939.50652,1577,0.4102195,0,0,2131.439,1,0,1580905796.492468,9571.261397,0,12.49023,97.05811
1580905858.712729,20,0,1580904337.000819,41.20701635159924,29.07533761282497,172.748,-1,-1,5.74967098236084,48.00724964208526,-9999,9574.481145916667,0.9656524658203125,0.0805511474609375,-0.171966552734375,9574.476109916668,0.7778797556982455,1.403554926380222,-0.09095482316804877,-0.003675736021250486,-0.001088161021471024,-0.001708431635051966,-0.024039626121521,-0.01506796479225159,-0.00744098424911499,2,0.2766801918002884,-0.5835757726622567,-0.2621429475017238,-0.7170553311342261,0.9819717407226562,0.09082946926355362,-0.1657747775316238,23.54135894775391,-11.15909194946289,8.546630859375,2,9573.947178916667,2,2,1580905858.188345,1580903939.50652,1577,0.4102195,0,0,2131.439,1,0,1580905796.492468,9571.261397,0,12.49023,97.05811
1580905858.714597,21,0,1580904337.000819,41.20701635159924,29.07533761282497,172.748,-1,-1,5.74967098236084,48.00724964208526,-9999,9574.491185916668,0.9693145751953125,0.0890045166015625,-0.171844482421875,9574.486149916667,0.7779005486697229,1.403615364737818,-0.09095858412205142,-0.002698878291994333,0.007871106266975403,0.0002871211618185043,-0.01796120405197144,-0.01043304800987244,-0.007637739181518555,2,0.276695457248318,-0.5835939759084109,-0.262140899713854,-0.7170354656425575,0.9819815754890442,0.09083320945501328,-0.1657153964042664,23.60586547851562,-11.22088623046875,8.571807861328125,2,9573.947178916667,2,2,1580905858.188345,1580903939.50652,1577,0.4102195,0,0,2131.439,1,0,1580905796.492468,9571.261397,0,12.49023,97.05811
1580905858.724611,22,0,1580904337.000819,41.20701635159924,29.07533761282497,172.748,-1,-1,5.74967098236084,48.00724964208526,-9999,9574.501225916667,0.9627227783203125,0.0886688232421875,-0.1675872802734375,9574.496190916667,0.7779068229180003,1.403628944045801,-0.09096989995037784,-0.001455448567867279,0.001918409019708633,-0.001926764845848083,-0.01430022716522217,-0.001990959048271179,-0.007529258728027344,2,0.2767030195614423,-0.5835961813573971,-0.2621378156040782,-0.7170318167452403,0.9819827079772949,0.09084448218345642,-0.1657018661499023,23.60586547851562,-11.22088623046875,8.571807861328125,2,9573.947178916667,2,2,1580905858.188345,1580903939.50652,1577,0.4102195,0,0,2131.439,1,0,1580905796.492468,9571.261397,0,12.49023,97.05811
1580905858.734733,23,0,1580904337.000819,41.20701635159924,29.07533761282497,172.748,-1,-1,5.74967098236084,48.00724964208526,-9999,9574.511265916668,0.9619903564453125,0.08831787109375,-0.1676788330078125,9574.506230916668,0.777897633969987,1.403591714509385,-0.0909759038626481,0.001453522592782974,-0.004134422168135643,-0.002804542891681194,-0.02088552713394165,-0.0023326575756073,-0.003235697746276855,2,0.2766975380631147,-0.5835831564714913,-0.2621378421121249,-0.7170445422134205,0.9819760322570801,0.09085045754909515,-0.1657383441925049,23.75459289550781,-11.26597595214844,8.50946044921875,2,9573.947178916667,2,2,1580905858.188345,1580903939.50652,1577,0.4102195,0,0,2131.439,1,0,1580905796.492468,9571.261397,0,12.49023,97.05811
1580905858.744727,24,0,1580904337.000819,41.20701635159924,29.07533761282497,172.748,-1,-1,5.74967098236084,48.00724964208526,-9999,9574.521306916668,0.9632720947265625,0.0838470458984375,-0.168670654296875,9574.516270916667,0.7778895844813081,1.403552869942239,-0.09095137994906745,0.002418918535113335,-0.002508830279111862,0.003236305899918079,-0.02161365747451782,-0.002659156918525696,-0.003288686275482178,2,0.2766815800828337,-0.5835742234370628,-0.2621478085289662,-0.7170543216088342,0.981971800327301,0.09082603454589844,-0.165776863694191,23.75459289550781,-11.26597595214844,8.50946044921875,2,9573.947178916667,2,2,1580905858.188345,1580903939.50652,1577,0.4102195,0,0,2131.439,1,0,1580905796.492468,9571.261397,0,12.49023,97.05811
1580905858.77195,25,0,1580904337.000819,41.20701635159924,29.07533761282497,172.748,-1,-1,5.74967098236084,48.00724964208526,-9999,9574.531346916667,0.9685821533203125,0.081207275390625,-0.1699066162109375,9574.526311916667,0.7778833606247669,1.403459847774868,-0.09096149019633974,0.0005028257146477699,-0.01043475233018398,-0.0006129210814833641,-0.02031552791595459,-0.007140085101127625,-0.004189074039459229,2,0.2766710980409404,-0.5835401299191741,-0.2621553597619319,-0.7170833066647609,0.9819554090499878,0.09083610773086548,-0.1658680438995361,23.62063598632812,-11.22893524169922,8.55499267578125,2,9573.947178916667,2,2,1580905858.188345,1580903939.50652,1577,0.4102195,0,0,2131.439,1,0,1580905796.492468,9571.261397,0,12.49023,97.05811
1580905858.773713,26,0,1580904337.000819,41.20701635159924,29.07533761282497,172.748,-1,-1,5.74967098236084,48.00724964208526,-9999,9574.541417916667,0.9616241455078125,0.0860443115234375,-0.169189453125,9574.536351916668,0.7778938715650849,1.403379089627125,-0.09099425984717939,-0.002446624916046858,-0.007489562965929508,-0.003021217416971922,-0.01498925685882568,-0.009812518954277039,-0.005346119403839111,2,0.2766749346091397,-0.5835045409071757,-0.2621603132593645,-0.7171090641942339,0.9819391369819641,0.09086874127388,-0.1659468561410904,23.62063598632812,-11.22893524169922,8.55499267578125,2,9573.947178916667,2,2,1580905858.188345,1580903939.50652,1577,0.4102195,0,0,2131.439,1,0,1580905796.492468,9571.261397,0,12.49023,97.05811
1580905858.775159,27,0,1580904337.000819,41.20701635159924,29.07533761282497,172.748,-1,-1,5.74967098236084,48.00724964208526,-9999,9574.551457916667,0.9687042236328125,0.085357666015625,-0.1720428466796875,9574.546391916667,0.7779099052640054,1.403319144024688,-0.09098788493958263,-0.002645209431648254,-0.00470927357673645,0.0004566041752696037,-0.02193790674209595,-0.004969120025634766,-0.004569947719573975,2,0.2766695261327035,-0.5834818405769475,-0.2621763013010346,-0.7171238175571842,0.9819298386573792,0.09086239337921143,-0.1660058349370956,23.55281829833984,-10.91423034667969,8.5687255859375,2,9573.947178916667,2,2,1580905858.188345,1580903939.50652,1577,0.4102195,0,0,2131.439,1,0,1580905796.492468,9571.261397,0,12.49023,97.05811
1580905858.784988,28,0,1580904337.000819,41.20701635159924,29.07533761282497,172.748,-1,-1,5.74967098236084,48.00724964208526,-9999,9574.561497916668,0.9665679931640625,0.086883544921875,-0.1727294921875,9574.556431916668,0.7779077358245569,1.403238520159563,-0.09096092648104089,0.001411051489412785,-0.007560454308986664,0.001478458754718304,-0.01484668254852295,-0.005628898739814758,-0.007343590259552002,2,0.2766489827329496,-0.5834574924805832,-0.2621948911262887,-0.7171446799215003,0.9819187521934509,0.09083554148674011,-0.1660853922367096,23.55281829833984,-10.91423034667969,8.5687255859375,2,9573.947178916667,2,2,1580905858.188345,1580903939.50652,1577,0.4102195,0,0,2131.439,1,0,1580905796.492468,9571.261397,0,12.49023,97.05811
1580905858.794961,29,0,1580904337.000819,41.20701635159924,29.07533761282497,172.748,-1,-1,5.74967098236084,48.00724964208526,-9999,9574.571538916667,0.9574737548828125,0.0853729248046875,-0.168426513671875,9574.566472916667,0.7779148881681959,1.403176185200813,-0.09096918631705958,-0.00019098911434412,-0.004676075652241707,-0.001701672561466694,-0.0169718861579895,-0.004111245274543762,-0.007969081401824951,2,0.2766457550774147,-0.5834328466514299,-0.2622035620847673,-0.7171628419586649,0.9819077253341675,0.09084376692771912,-0.1661464720964432,23.49830627441406,-11.06290435791016,8.5155029296875,2,9573.947178916667,2,2,1580905858.188345,1580903939.50652,1577,0.4102195,0,0,2131.439,1,0,1580905796.492468,9571.261397,0,12.49023,97.05811
1580905858.804981,30,0,1580904337.000819,41.20701635159924,29.07533761282497,172.748,-1,-1,5.74967098236084,48.00724964208526,-9999,9574.581578916668,0.964080810546875,0.087860107421875,-0.1692657470703125,9574.576512916667,0.7779139986117657,1.403131253271686,-0.09098019172507084,7.319636642932892e-05,-0.003984717652201653,-0.001180491875857115,-0.02605772018432617,-0.00563281774520874,-0.003622114658355713,2,0.2766434257863171,-0.58341511671633,-0.262206103391414,-0.7171772439420863,0.9818992614746094,0.09085473418235779,-0.166190430521965,23.49830627441406,-11.06290435791016,8.5155029296875,2,9573.947178916667,2,2,1580905858.188345,1580903939.50652,1577,0.4102195,0,0,2131.439,1,0,1580905796.492468,9571.261397,0,12.49023,97.05811
1580905858.833268,31,0,1580904337.000819,41.20701635159924,29.07533761282497,172.748,-1,-1,5.74967098236084,48.00724964208526,-9999,9574.591618916667,0.965667724609375,0.0845489501953125,-0.1664886474609375,9574.586583916667,0.7779000028014301,1.403105487862611,-0.09097462439798101,0.002547137439250946,-0.0005817823112010956,0.001257370226085186,-0.0194469690322876,-0.00314013659954071,-0.004436135292053223,2,0.2766340753070931,-0.5834086849931599,-0.262206337428642,-0.7171858614695757,0.9818953275680542,0.09084918349981308,-0.166215792298317,23.51428985595703,-10.99312973022461,8.5460205078125,2,9573.947178916667,2,2,1580905858.188345,1580903939.50652,1577,0.4102195,0,0,2131.439,1,0,1580905796.492468,9571.261397,0,12.49023,97.05811
1580905858.835357,32,0,1580904337.000819,41.20701635159924,29.07533761282497,172.748,-1,-1,5.74967098236084,48.00724964208526,-9999,9574.601658916667,0.9689178466796875,0.0888671875,-0.166534423828125,9574.596623916666,0.777892964066294,1.403018831167617,-0.09098527559034351,0.0004648119211196899,-0.007900682277977467,-0.0001146895810961723,-0.01784461736679077,-0.006461918354034424,-0.001573860645294189,2,0.2766243387479586,-0.5833769027480973,-0.2622125563978595,-0.7172132668308587,0.9818800687789917,0.0908597931265831,-0.1663007289171219,23.51428985595703,-10.99312973022461,8.5460205078125,2,9573.947178916667,2,2,1580905858.188345,1580903939.50652,1577,0.4102195,0,0,2131.439,1,0,1580905796.492468,9571.261397,0,12.49023,97.05811
1580905858.837393,33,0,1580904337.000819,41.20701635159924,29.07533761282497,172.748,-1,-1,5.74967098236084,48.00724964208526,-9999,9574.611699916668,0.9591064453125,0.086761474609375,-0.1681365966796875,9574.606663916667,0.7778655871300167,1.402876821327429,-0.09101794439447661,0.003311062231659889,-0.01160661410540342,-0.004307466559112072,-0.0145677924156189,-0.002176240086555481,-0.001480281352996826,2,0.2766090525181644,-0.5833245987622293,-0.2622124270778148,-0.717261855635245,0.9818536043167114,0.09089232981204987,-0.1664396822452545,23.67938995361328,-11.06272506713867,8.67999267578125,2,9573.947178916667,2,2,1580905858.188345,1580903939.50652,1577,0.4102195,0,0,2131.439,1,0,1580905796.492468,9572.20291,0,12.51666,97.05779
1580905858.845199,34,0,1580904337.000819,41.20701635159924,29.07533761282497,172.748,-1,-1,5.74967098236084,48.00724964208526,-9999,9574.621739916667,0.9677276611328125,0.0842437744140625,-0.174530029296875,9574.616704916667,0.7778410490212201,1.40272482265586,-0.09099822434931508,0.00205298513174057,-0.01718353852629662,0.00109022855758667,-0.02435559034347534,-0.004262268543243408,-0.00293278694152832,2,0.2765751492372763,-0.5832765928702298,-0.2622306521275775,-0.7173071988831597,0.9818299412727356,0.09087269008159637,-0.1665892004966736,23.67938995361328,-11.06272506713867,8.67999267578125,2,9573.947178916667,2,2,1580905858.188345,1580903939.50652,1577,0.4102195,0,0,2131.439,1,0,1580905796.492468,9572.20291,0,12.51666,97.05779
1580905858.855181,35,0,1580904337.000819,41.20701635159924,29.07533761282497,172.748,-1,-1,5.74967098236084,48.00724964208526,-9999,9574.631779916666,0.9484100341796875,0.081939697265625,-0.169403076171875,9574.626744916668,0.7778055874538564,1.402696882944668,-0.09094109079340733,0.004721219651401043,0.001408318057656288,0.006234237924218178,-0.01573479175567627,-0.006722971796989441,-0.009297847747802734,2,0.2765412964084628,-0.5832805162832273,-0.2622392105158639,-0.7173139067440083,0.9818304181098938,0.09081578999757767,-0.1666174978017807,23.60649871826172,-11.11276245117188,8.601409912109375,2,9573.947178916667,2,2,1580905858.188345,1580903939.50652,1577,0.4102195,0,0,2131.439,1,0,1580905796.492468,9572.20291,0,12.51666,97.05779
1580905858.865112,36,0,1580904337.000819,41.20701635159924,29.07533761282497,172.748,-1,-1,5.74967098236084,48.00724964208526,-9999,9574.641820916668,0.9600982666015625,0.0867156982421875,-0.17156982421875,9574.636784916667,0.7778150513025403,1.402657542473062,-0.09087355610407544,-0.001316966023296118,-0.00417792797088623,0.006804686971008778,-0.03505188226699829,-0.008959710597991943,-0.004131078720092773,2,0.2765154160074634,-0.5832757880614614,-0.2622686308908913,-0.7173170050420353,0.9818299412727356,0.09074853360652924,-0.1666571646928787,23.60649871826172,-11.11276245117188,8.601409912109375,2,9573.947178916667,2,2,1580905858.188345,1580903939.50652,1577,0.4102195,0,0,2131.439,1,0,1580905796.492468,9572.20291,0,12.51666,97.05779
1580905858.897399,37,0,1580904337.000819,41.20701635159924,29.07533761282497,172.748,-1,-1,5.74967098236084,48.00724964208526,-9999,9574.651890916668,0.9556884765625,0.0904998779296875,-0.1809539794921875,9574.646824916666,0.7778272907581233,1.402781763903022,-0.09073339646013898,0.001711703836917877,0.01481921412050724,0.01597628369927406,-0.02339696884155273,-0.004043906927108765,-0.00641787052154541,2,0.2764865549460171,-0.5833408284828301,-0.2622985696494193,-0.7172643225013827,0.9818632006645203,0.09060895442962646,-0.1665373295545578,23.56679534912109,-10.95498657226562,8.4874267578125,2,9573.947178916667,2,2,1580905858.188345,1580903939.50652,1577,0.4102195,0,0,2131.439,1,0,1580905796.492468,9572.20291,0,12.51666,97.05779
1580905858.89869,38,0,1580904337.000819,41.20701635159924,29.07533761282497,172.748,-1,-1,5.74967098236084,48.00724964208526,-9999,9574.661931916668,0.9538726806640625,0.0855560302734375,-0.173431396484375,9574.656865916668,0.7778546021487559,1.403070689919113,-0.09062704624701955,-0.0009301519021391869,0.03064158745110035,0.01060841605067253,-0.02786445617675781,-0.0001536160707473755,-0.01608467102050781,2,0.2764954576776739,-0.5834574896213347,-0.2623008392157979,-0.7171651599465918,0.9819207191467285,0.0905030369758606,-0.1662552356719971,23.56679534912109,-10.95498657226562,8.4874267578125,2,9573.947178916667,2,2,1580905858.188345,1580903939.50652,1577,0.4102195,0,0,2131.439,1,0,1580905796.492468,9572.20291,0,12.51666,97.05779
1580905858.900111,39,0,1580904337.000819,41.20701635159924,29.07533761282497,172.748,-1,-1,5.74967098236084,48.00724964208526,-9999,9574.671971916667,0.96392822265625,0.079986572265625,-0.168609619140625,9574.666905916667,0.7778997281168968,1.403389960362263,-0.09051573275283085,-0.002561071887612343,0.03142568469047546,0.01140907406806946,-0.0297432541847229,-0.00498645007610321,-0.008874475955963135,2,0.2765118375842205,-0.5835833312790204,-0.2623068123271768,-0.7170542007199504,0.9819836616516113,0.09039217978715897,-0.1659433990716934,23.62567138671875,-10.74529266357422,8.651611328125,2,9573.947178916667,2,2,1580905858.188345,1580903939.50652,1577,0.4102195,0,0,2131.439,1,0,1580905796.492468,9572.20291,0,12.51666,97.05779
1580905858.905494,40,0,1580904337.000819,41.20701635159924,29.07533761282497,172.748,-1,-1,5.74967098236084,48.00724964208526,-9999,9574.682011916668,0.9667510986328125,0.078704833984375,-0.1702880859375,9574.676945916668,0.7779667990545367,1.403724208896988,-0.09039537007242103,-0.004610640928149223,0.03306938707828522,0.01219736970961094,-0.01975399255752563,-0.01043581962585449,-0.004379510879516602,2,0.2765334156389175,-0.5837129258223559,-0.262321347343303,-0.716935118813499,0.982049822807312,0.09027231484651566,-0.165616974234581,23.62567138671875,-10.74529266357422,8.651611328125,2,9573.947178916667,2,2,1580905858.188345,1580903939.50652,1577,0.4102195,0,0,2131.439,1,0,1580905796.492468,9572.20291,0,12.51666,97.05779
1580905858.915478,41,0,1580904337.000819,41.20701635159924,29.07533761282497,172.748,-1,-1,5.74967098236084,48.00724964208526,-9999,9574.692052916667,0.9676513671875,0.0894012451171875,-0.17132568359375,9574.686986916668,0.7780202044738432,1.404060938396129,-0.09030166023966803,-0.002573582343757153,0.0326320007443428,0.009979056194424629,-0.01699525117874146,-0.0116240531206131,-0.006387829780578613,2,0.2765606105008672,-0.5838410589813253,-0.2623225087121801,-0.7168198795345794,0.9821138978004456,0.09017898142337799,-0.1652876883745193,23.64023590087891,-10.60382080078125,8.689178466796875,2,9573.947178916667,2,2,1580905858.188345,1580903939.50652,1577,0.4102195,0,0,2131.439,1,0,1580905796.492468,9572.20291,0,12.51666,97.05779
1580905858.925469,42,0,1580904337.000819,41.20701635159924,29.07533761282497,172.748,-1,-1,5.74967098236084,48.00724964208526,-9999,9574.702092916667,0.9665679931640625,0.08966064453125,-0.170257568359375,9574.697056916668,0.7780675637923359,1.404380363823101,-0.09022250007484449,-0.003848171327263117,0.03186208009719849,0.007686607539653778,-0.01615506410598755,-0.0008486807346343994,-0.007738709449768066,2,0.2765888542765618,-0.583961499834689,-0.2623194510052,-0.7167119363064252,0.9821736216545105,0.09010014683008194,-0.1649751514196396,23.64023590087891,-10.60382080078125,8.689178466796875,2,9573.947178916667,2,2,1580905858.188345,1580903939.50652,1577,0.4102195,0,0,2131.439,1,0,1580905796.492468,9572.20291,0,12.51666,97.05779
1580905858.953032,43,0,1580904337.000819,41.20701635159924,29.07533761282497,172.748,-1,-1,5.74967098236084,48.00724964208526,-9999,9574.712132916668,0.9680938720703125,0.0836944580078125,-0.167938232421875,9574.707097916667,0.7781103371387601,1.404662384078024,-0.09013685567748017,-0.003655900247395039,0.03007916174829006,0.007796440273523331,-0.01729273796081543,-0.0005038827657699585,-0.006946802139282227,2,0.276608573259769,-0.5840701853151105,-0.262321904820513,-0.7166149128918393,0.9822278022766113,0.09001485258340836,-0.1646994352340698,23.61002349853516,-10.59344863891602,8.666595458984375,2,9573.947178916667,2,2,1580905858.188345,1580903939.50652,1577,0.4102195,0,0,2131.439,1,0,1580905796.492468,9572.20291,0,12.51666,97.05779
1580905858.954544,44,0,1580904337.000819,41.20701635159924,29.07533761282497,172.748,-1,-1,5.74967098236084,48.00724964208526,-9999,9574.722172916667,0.967742919921875,0.0803680419921875,-0.1638336181640625,9574.717137916667,0.778141863020181,1.404895997600089,-0.09003378533126991,-0.001347471959888935,0.02525697462260723,0.01124150492250919,-0.01581454277038574,-0.00636725127696991,-0.004855751991271973,2,0.2766126305492158,-0.5841658190616654,-0.2623323365486488,-0.7165315724109663,0.9822753667831421,0.08991219848394394,-0.1644714921712875,23.61002349853516,-10.59344863891602,8.666595458984375,2,9573.947178916667,2,2,1580905858.188345,1580903939.50652,1577,0.4102195,0,0,2131.439,1,0,1580905796.492468,9572.20291,0,12.51666,97.05779
1580905858.9557,45,0,1580904337.000819,41.20701635159924,29.07533761282497,172.748,-1,-1,5.74967098236084,48.00724964208526,-9999,9574.732213916668,0.9735260009765625,0.0829925537109375,-0.160614013671875,9574.727177916668,0.7781792972238957,1.404976759339563,-0.0899623752444431,-0.003929670434445143,0.007557636126875877,0.007922463119029999,-0.0161852240562439,-0.009622424840927124,-0.0008298158645629883,2,0.2766094022794272,-0.5842008540098251,-0.2623563586792109,-0.7164953377948926,0.9822948575019836,0.0898410752415657,-0.1643932014703751,23.36031341552734,-10.73201370239258,8.713714599609375,2,9573.947178916667,2,2,1580905858.188345,1580903939.50652,1577,0.4102195,0,0,2131.439,1,0,1580905796.492468,9572.20291,0,12.51666,97.05779
1580905858.965577,46,0,1580904337.000819,41.20701635159924,29.07533761282497,172.748,-1,-1,5.74967098236084,48.00724964208526,-9999,9574.742253916667,0.96868896484375,0.088897705078125,-0.16619873046875,9574.737218916667,0.7782176769886059,1.404900838223547,-0.08993191655782916,-0.004878288134932518,-0.008716141805052757,0.003457940183579922,-0.01039218902587891,-0.006967529654502869,0.002465248107910156,2,0.2766000422855254,-0.5841731689439661,-0.2623899081143528,-0.716509343361638,0.98228520154953,0.08981074392795563,-0.1644682437181473,23.36031341552734,-10.73201370239258,8.713714599609375,2,9573.947178916667,2,2,1580905858.188345,1580903939.50652,1577,0.4102195,0,0,2131.439,1,0,1580905796.492468,9572.20291,0,12.51666,97.05779
1580905858.975755,47,0,1580904337.000819,41.20701635159924,29.07533761282497,172.748,-1,-1,5.74967098236084,48.00724964208526,-9999,9574.752293916667,0.963470458984375,0.0916290283203125,-0.1681671142578125,9574.747258916666,0.778242651464507,1.40481800645515,-0.08991222317940203,-0.003205789718776941,-0.006288560107350349,0.002001183107495308,-0.01521724462509155,-0.00104270875453949,-0.003037810325622559,2,0.2765896633645891,-0.58414314571046,-0.2624163130560855,-0.7165280575826788,0.9822731614112854,0.08979112654924393,-0.1645498871803284,23.53152465820312,-10.79868698120117,8.61871337890625,2,9573.947178916667,2,2,1580905858.188345,1580903939.50652,1577,0.4102195,0,0,2131.439,1,0,1580905796.492468,9572.20291,0,12.51666,97.05779
1580905858.985834,48,0,1580904337.000819,41.20701635159924,29.07533761282497,172.748,-1,-1,5.74967098236084,48.00724964208526,-9999,9574.762364916667,0.9678955078125,0.0834503173828125,-0.1664581298828125,9574.757298916667,0.7782366977029203,1.404694114838088,-0.08987241761067614,0.0009335614740848541,-0.01022844016551971,0.003914664499461651,-0.02041888236999512,0.001728296279907227,-0.004883646965026855,2,0.2765578418969051,-0.5841058749610083,-0.2624434568116636,-0.7165607918701149,0.9822563529014587,0.0897514820098877,-0.1646721810102463,23.53152465820312,-10.79868698120117,8.61871337890625,2,9573.947178916667,2,2,1580905858.188345,1580903939.50652,1577,0.4102195,0,0,2131.439,1,0,1580905796.492468,9572.20291,0,12.51666,97.05779
1580905859.013672,49,0,1580904337.000819,41.20701635159924,29.07533761282497,172.748,-1,-1,5.74967098236084,48.00724964208526,-9999,9574.772404916666,0.9653167724609375,0.0818939208984375,-0.1663970947265625,9574.767338916667,0.7782442309774762,1.404511897250148,-0.08981780050230931,-0.001412852667272091,-0.0171867348253727,0.004829838871955872,-0.01596850156784058,-0.006395891308784485,-0.002994358539581299,2,0.2765171212907455,-0.584048188278056,-0.2624880190316043,-0.7166073255966871,0.9822312593460083,0.08969708532094955,-0.1648519933223724,23.51810455322266,-10.74801635742188,8.860626220703125,2,9573.947178916667,2,2,1580905858.188345,1580903939.50652,1577,0.4102195,0,0,2131.439,1,0,1580905796.492468,9572.20291,0,12.51666,97.05779
1580905859.01508,50,0,1580904337.000819,41.20701635159924,29.07533761282497,172.748,-1,-1,5.74967098236084,48.00724964208526,-9999,9574.782445916668,0.96343994140625,0.0792083740234375,-0.1724853515625,9574.777379916668,0.7782523854172811,1.404368857556297,-0.0897616328026444,0.0001275194808840752,-0.0113799786195159,0.00638485886156559,-0.0185285210609436,-0.007896259427070618,-0.002791643142700195,2,0.2764812124741785,-0.5840046883981491,-0.2625278492653296,-0.7166420644843474,0.9822126626968384,0.08964114636182785,-0.1649933308362961,23.51810455322266,-10.74801635742188,8.860626220703125,2,9573.947178916667,2,2,1580905858.188345,1580903939.50652,1577,0.4102195,0,0,2131.439,1,0,1580905796.492468,9572.20291,0,12.51666,97.05779
1580905859.016185,51,0,1580904337.000819,41.20701635159924,29.07533761282497,172.748,-1,-1,5.74967098236084,48.00724964208526,-9999,9574.792485916667,0.960906982421875,0.085693359375,-0.171142578125,9574.787419916667,0.7782915573938695,1.404222294058724,-0.08969965656828524,-0.003424066584557295,-0.01775166392326355,0.008387180976569653,-0.02038675546646118,-0.01051999628543854,-0.008735120296478271,2,0.2764519304001224,-0.5839565426240745,-0.2625810383535829,-0.716672962537703,0.9821938276290894,0.08957941830158234,-0.1651381701231003,23.41625213623047,-10.82468414306641,8.7274169921875,2,9573.947178916667,2,2,1580905858.188345,1580903939.50652,1577,0.4102195,0,0,2131.439,1,0,1580905796.492468,9572.20291,0,12.51666,97.05779
1580905859.025962,52,0,1580904337.000819,41.20701635159924,29.07533761282497,172.748,-1,-1,5.74967098236084,48.00724964208526,-9999,9574.802525916668,0.956939697265625,0.084228515625,-0.1732940673828125,9574.797459916666,0.7783089804250154,1.404203263467679,-0.08961505471989183,0.001541930250823498,0.001791678369045258,0.006660919636487961,-0.02292394638061523,-0.003950551152229309,-0.007372140884399414,2,0.276425100158501,-0.58396069551754,-0.2626157182306042,-0.7166673177668096,0.9821982383728027,0.08949515223503113,-0.1651581376791,23.41625213623047,-10.82468414306641,8.7274169921875,2,9573.947178916667,2,2,1580905858.188345,1580903939.50652,1577,0.4102195,0,0,2131.439,1,0,1580905796.492468,9572.20291,0,12.51666,97.05779
1580905859.036046,53,0,1580904337.000819,41.20701635159924,29.07533761282497,172.748,-1,-1,5.74967098236084,48.00724964208526,-9999,9574.812565916667,0.9650421142578125,0.0818023681640625,-0.1679840087890625,9574.807530916667,0.7783416336104018,1.404209457689203,-0.08949114045251287,-0.00227792514488101,-0.0004458893090486526,0.01094802282750607,-0.02690315246582031,-0.005291789770126343,-0.009527921676635742,2,0.276392417375249,-0.5839779863143999,-0.2626643481825062,-0.7166479738207183,0.9822101593017578,0.08937174081802368,-0.1651538908481598,23.4578857421875,-10.6567268371582,8.794677734375,2,9573.947178916667,2,2,1580905858.188345,1580903939.50652,1577,0.4102195,0,0,2131.439,1,0,1580905796.492468,9572.20291,0,12.51666,97.05779
1580905859.046044,54,0,1580904337.000819,41.20701635159924,29.07533761282497,172.748,-1,-1,5.74967098236084,48.00724964208526,-9999,9574.822606916667,0.964874267578125,0.0855560302734375,-0.1620941162109375,9574.817570916668,0.7783694891485884,1.404221061657703,-0.08940658549689202,-0.0007093232125043869,0.002260681241750717,0.006541822105646133,-0.0188102126121521,-0.007633566856384277,-0.004227936267852783,2,0.2763726563851874,-0.5839916693790308,-0.2626985192254064,-0.7166320636857462,0.9822196960449219,0.08928751945495605,-0.1651437729597092,23.4578857421875,-10.6567268371582,8.794677734375,2,9573.947178916667,2,2,1580905858.188345,1580903939.50652,1577,0.4102195,0,0,2131.439,1,0,1580905796.492468,9572.20291,0,12.51666,97.05779
1580905859.073483,55,0,1580904337.000819,41.20701635159924,29.07533761282497,172.748,-1,-1,5.74967098236084,48.00724964208526,-9999,9574.832646916668,0.9659423828125,0.08880615234375,-0.1653289794921875,9574.827611916668,0.7784153445059415,1.404133175131443,-0.08931835771970248,-0.003516455180943012,-0.01197319850325584,0.009644350036978722,-0.01897126436233521,-0.003791898488998413,0.001749634742736816,2,0.2763438975561395,-0.5839677767629912,-0.2627539890092344,-0.7166421512752379,0.9822127819061279,0.08919964730739594,-0.1652313768863678,23.32386016845703,-10.68051910400391,8.734161376953125,2,9573.947178916667,2,2,1580905858.188345,1580903939.50652,1577,0.4102195,0,0,2131.439,1,0,1580905796.492468,9572.20291,0,12.51666,97.05779
1580905859.074992,56,0,1580904337.000819,41.20701635159924,29.07533761282497,172.748,-1,-1,5.74967098236084,48.00724964208526,-9999,9574.842686916667,0.9620361328125,0.0850677490234375,-0.1728973388671875,9574.837651916667,0.7784539920840347,1.404134567423177,-0.08921556073736749,-0.002353186253458261,0.002637701109051704,0.009821450337767601,-0.01791250705718994,-0.0004392266273498535,-0.001485228538513184,2,0.2763196722414479,-0.5839791790546794,-0.2627989857522335,-0.7166256493736142,0.9822219610214233,0.08909725397825241,-0.1652315109968185,23.32386016845703,-10.68051910400391,8.734161376953125,2,9573.947178916667,2,2,1580905858.188345,1580903939.50652,1577,0.4102195,0,0,2131.439,1,0,1580905796.492468,9572.20291,0,12.51666,97.05779
1580905859.076602,57,0,1580904337.000819,41.20701635159924,29.07533761282497,172.748,-1,-1,5.74967098236084,48.00724964208526,-9999,9574.852720125,0.9632720947265625,0.08184814453125,-0.1731414794921875,9574.847691916668,0.7785040885811374,1.404157250466497,-0.08910717675558333,-0.003071690443903208,0.001345505937933922,0.01051568426191807,-0.02183198928833008,-0.004069492220878601,-0.009074032306671143,2,0.2762995759678688,-0.583997525914307,-0.2628468590009054,-0.7166010535082825,0.9822354316711426,0.08898930251598358,-0.1652108728885651,23.50077819824219,-10.64649200439453,8.849456787109375,2,9573.947178916667,2,2,1580905858.188345,1580903939.50652,1577,0.4102195,0,0,2131.439,1,0,1580905796.492468,9572.20291,0,12.51666,97.05779
1580905859.086431,58,0,1580904337.000819,41.20701635159924,29.07533761282497,172.748,-1,-1,5.74967098236084,48.00724964208526,-9999,9574.862760125001,0.9673919677734375,0.079864501953125,-0.171539306640625,9574.857724125,0.7785627836740804,1.404168297882819,-0.08899857802885069,-0.004526308737695217,0.001226728782057762,0.01136762835085392,-0.02060741186141968,-0.007180795073509216,-0.00932765007019043,2,0.2762804976884413,-0.5840105258132444,-0.2628994641889785,-0.7165783457308034,0.9822465777397156,0.08888113498687744,-0.1652015894651413,23.50077819824219,-10.64649200439453,8.849456787109375,2,9573.947178916667,2,2,1580905858.188345,1580903939.50652,1577,0.4102195,0,0,2131.439,1,0,1580905796.492468,9572.20291,0,12.51666,97.05779
1580905859.096321,59,0,1580904337.000819,41.20701635159924,29.07533761282497,172.748,-1,-1,5.74967098236084,48.00724964208526,-9999,9574.872831125,0.975341796875,0.0787811279296875,-0.167510986328125,9574.867765125,0.7785860890205726,1.404105458321801,-0.08888125257394892,0.001066206023097038,-0.004245154559612274,0.01077012345194817,-0.01648753881454468,-0.009047374129295349,-0.007661938667297363,2,0.2762382581366272,-0.5840033375671294,-0.2629522698740637,-0.7165811910943044,0.9822465777397156,0.08876427263021469,-0.1652650535106659,23.23967742919922,-10.7513427734375,8.9676513671875,2,9573.947178916667,2,2,1580905858.188345,1580903939.50652,1577,0.4102195,0,0,2131.439,1,0,1580905796.492468,9572.20291,0,12.51666,97.05779
1580905859.106277,60,0,1580904337.000819,41.20701635159924,29.07533761282497,172.748,-1,-1,5.74967098236084,48.00724964208526,-9999,9574.882871125001,0.974456787109375,0.088531494140625,-0.16314697265625,9574.877805125001,0.7786280806933215,1.403927628291514,-0.08876872389365632,-0.003126674331724644,-0.01753938943147659,0.01200849376618862,-0.00851815938949585,-0.01001845300197601,-0.003456950187683105,2,0.276188022594684,-0.5839516075311622,-0.2630261833639166,-0.7166156411353366,0.982227087020874,0.08865218609571457,-0.1654413938522339,23.23967742919922,-10.7513427734375,8.9676513671875,2,9573.947178916667,2,2,1580905858.188345,1580903939.50652,1577,0.4102195,0,0,2131.439,1,0,1580905796.492468,9572.20291,0,12.51666,97.05779
1580905859.129683,61,0,1580904337.000819,41.20701635159924,29.07533761282497,172.748,-1,-1,5.74967098236084,48.00724964208526,-9999,9574.892911125,0.966888427734375,0.0908660888671875,-0.1624298095703125,9574.887845125,0.7786397082555626,1.403661250627532,-0.08865196751114136,0.001398788765072823,-0.02469547092914581,0.01231811195611954,-0.009369134902954102,-0.0001516342163085938,0.001170814037322998,2,0.2761158262137731,-0.5838729993738689,-0.2631027157811802,-0.7166793739063448,0.9821931123733521,0.08853588998317719,-0.1657047420740128,23.34054565429688,-10.84805297851562,8.816864013671875,2,9573.947178916667,2,2,1580905858.188345,1580903939.50652,1577,0.4102195,0,0,2131.439,1,0,1580905796.492468,9572.20291,0,12.51666,97.05779
1580905859.131332,62,0,1580904337.000819,41.20701635159924,29.07533761282497,172.748,-1,-1,5.74967098236084,48.00724964208526,-9999,9574.902951125001,0.9723968505859375,0.0888214111328125,-0.1648406982421875,9574.897886125,0.7786236536328751,1.403306803780511,-0.08851192197504315,0.004600174725055695,-0.03629752993583679,0.0131631325930357,-0.01689088344573975,0.002322688698768616,0.002238631248474121,2,0.2760158697474897,-0.5837703174952413,-0.263188559774238,-0.7167698969984539,0.9821464419364929,0.08839639276266098,-0.1660549193620682,23.34054565429688,-10.84805297851562,8.816864013671875,2,9573.947178916667,2,2,1580905858.188345,1580903939.50652,1577,0.4102195,0,0,2131.439,1,0,1580905796.492468,9572.20291,0,12.51666,97.05779
1580905859.136895,63,0,1580904337.000819,41.20701635159924,29.07533761282497,172.748,-1,-1,5.74967098236084,48.00724964208526,-9999,9574.912992125001,0.9582366943359375,0.0781707763671875,-0.1631011962890625,9574.907926125001,0.7786179703083331,1.402924614642049,-0.08834753269926256,0.005111776292324066,-0.03658311814069748,0.016754150390625,-0.01133304834365845,0.0004420727491378784,0.0002062320709228516,2,0.2759067591385079,-0.5836600993569667,-0.2632893441539278,-0.7168646731988122,0.9820972084999084,0.08823265135288239,-0.1664326936006546,23.62358093261719,-10.6957893371582,9.007171630859375,2,9573.947178916667,2,2,1580905858.188345,1580903939.50652,1577,0.4102195,0,0,2131.439,1,0,1580905796.492468,9572.20291,0,12.51666,97.05779
1580905859.146399,64,0,1580904337.000819,41.20701635159924,29.07533761282497,172.748,-1,-1,5.74967098236084,48.00724964208526,-9999,9574.923032125,0.9558868408203125,0.07635498046875,-0.1740570068359375,9574.917997125001,0.7786999098823333,1.40252935862127,-0.08819426409849558,-0.008371807634830475,-0.04284926876425743,0.01558955106884241,-0.02544063329696655,-0.01005564630031586,0.002336800098419189,2,0.2758253456549634,-0.583531333498046,-0.2634199177889791,-0.7169528363900909,0.9820446968078613,0.08807997405529022,-0.1668231189250946,23.52161407470703,-10.7787971496582,8.869140625,2,9573.947178916667,2,2,1580905858.188345,1580903939.50652,1577,0.4102195,0,0,2131.439,1,0,1580905796.492468,9572.20291,0,12.51666,97.05779
1580905859.156657,65,0,1580904337.000819,41.20701635159924,29.07533761282497,172.748,-1,-1,5.74967098236084,48.00724964208526,-9999,9574.933072125001,0.9533233642578125,0.0807342529296875,-0.1820526123046875,9574.928037125001,0.7787758342545118,1.40235644010886,-0.08801133083402135,-0.004288364667445421,-0.0137637872248888,0.01806537061929703,-0.02777743339538574,-0.01168891787528992,-0.008446156978607178,2,0.2757610918746098,-0.5834877871321115,-0.2635266920422694,-0.7169738166803494,0.9820317625999451,0.08789775520563126,-0.166995644569397,23.52161407470703,-10.7787971496582,8.869140625,2,9573.947178916667,2,2,1580905858.188345,1580903939.50652,1577,0.4102195,0,0,2131.439,1,0,1580905796.492468,9572.20291,0,12.51666,97.05779
1580905859.169685,66,0,1580904337.000819,41.20701635159924,29.07533761282497,172.748,-1,-1,5.74967098236084,48.00724964208526,-9999,9574.943113125,0.966400146484375,0.0814208984375,-0.1807403564453125,9574.938077125,0.7788604046164066,1.402310748481438,-0.08781890758356468,-0.005750173702836037,-0.005518639460206032,0.02003371343016624,-0.03035008907318115,-0.007117658853530884,-0.01639401912689209,2,0.2757128209044122,-0.5834901560151809,-0.2636219021072783,-0.7169554909817684,0.9820408225059509,0.0877060741186142,-0.1670433580875397,23.51708221435547,-10.59975433349609,8.977508544921875,2,9573.947178916667,2,2,1580905858.188345,1580903939.50652,1577,0.4102195,0,0,2131.439,1,0,1580905796.492468,9572.20291,0,12.51666,97.05779
1580905859.194223,67,0,1580904337.000819,41.20701635159924,29.07533761282497,172.748,-1,-1,5.74967098236084,48.00724964208526,-9999,9574.953153125001,0.9627532958984375,0.0745697021484375,-0.17315673828125,9574.948118125001,0.7789239490067027,1.40234682829299,-0.08766682451143837,-0.002670596819370985,0.005513854324817657,0.01654236391186714,-0.0172925591468811,-0.006279259920120239,-0.01511502265930176,2,0.2756832321271404,-0.5835183594643885,-0.2636860129637729,-0.716920340987677,0.9820600152015686,0.08755457401275635,-0.1670101583003998,23.51708221435547,-10.59975433349609,8.977508544921875,2,9573.947178916667,2,2,1580905858.188345,1580903939.50652,1577,0.4102195,0,0,2131.439,1,0,1580905796.492468,9572.20291,0,12.51666,97.05779
1580905859.195492,68,0,1580904337.000819,41.20701635159924,29.07533761282497,172.748,-1,-1,5.74967098236084,48.00724964208526,-9999,9574.963193125001,0.971038818359375,0.0839691162109375,-0.170501708984375,9574.958158125,0.7789683673632799,1.402363279300918,-0.08759829481731719,-0.0040237489156425,0.001953206956386566,0.006675885058939457,-0.02094805240631104,-0.01306204497814178,-0.007546603679656982,2,0.2756745353046963,-0.5835289601770991,-0.2637205318539094,-0.7169023472955155,0.982068657875061,0.08748630434274673,-0.1669950038194656,23.56263732910156,-10.46537780761719,8.91546630859375,2,9573.947178916667,2,2,1580905858.188345,1580903939.50652,1577,0.4102195,0,0,2131.439,1,0,1580905796.492468,9572.20291,0,12.51666,97.05779
1580905859.196839,69,0,1580904337.000819,41.20701635159924,29.07533761282497,172.748,-1,-1,5.74967098236084,48.00724964208526,-9999,9574.973233125,0.9644317626953125,0.083404541015625,-0.168548583984375,9574.968198125001,0.778985106498098,1.402385910217905,-0.08758767852576409,-0.001697499305009842,0.002160431817173958,0.002016737125813961,-0.01266705989837646,-0.003652051091194153,-0.004913687705993652,2,0.275678743691941,-0.5835364354954573,-0.2637266390269957,-0.716892300655554,0.982073187828064,0.0874757319688797,-0.1669729202985764,23.56263732910156,-10.46537780761719,8.91546630859375,2,9573.947178916667,2,2,1580905858.188345,1580903939.50652,1577,0.4102195,0,0,2131.439,1,0,1580905796.492468,9572.20291,0,12.51666,97.05779
1580905859.206756,70,0,1580904337.000819,41.20701635159924,29.07533761282497,172.748,-1,-1,5.74967098236084,48.00724964208526,-9999,9574.983304125,0.96942138671875,0.0792694091796875,-0.1686859130859375,9574.978238125001,0.7790010903757431,1.402384683180196,-0.08763905606719101,-0.001571265514940023,-0.001880114898085594,-0.005215875338762999,-0.01926964521408081,-0.004267886281013489,-0.002960085868835449,2,0.2757010665544647,-0.5835256840995932,-0.263716902637033,-0.7168961827136872,0.9820687174797058,0.08752691000699997,-0.1669733971357346,23.53297424316406,-10.63104629516602,8.932373046875,2,9573.947178916667,2,2,1580905858.188345,1580903939.50652,1577,0.4102195,0,0,2131.439,1,0,1580905796.492468,9572.20291,0,12.51666,97.05779
1580905859.216776,71,0,1580904337.000819,41.20701635159924,29.07533761282497,172.748,-1,-1,5.74967098236084,48.00724964208526,-9999,9574.993345125,0.9597320556640625,0.084869384765625,-0.16827392578125,9574.988279125,0.7790066692746977,1.402412513039243,-0.08773388714954214,-0.001147978473454714,0.004006411880254745,-0.008905889466404915,-0.01427638530731201,-0.008497640490531921,-0.003126204013824463,2,0.2757393621715317,-0.5835199012447243,-0.263686187232584,-0.7168973842207984,0.9820650815963745,0.08762137591838837,-0.1669446527957916,23.53297424316406,-10.63104629516602,8.932373046875,2,9573.947178916667,2,2,1580905858.188345,1580903939.50652,1577,0.4102195,0,0,2131.439,1,0,1580905796.492468,9572.20291,0,12.51666,97.05779
1580905859.226779,72,0,1580904337.000819,41.20701635159924,29.07533761282497,172.748,-1,-1,5.74967098236084,48.00724964208526,-9999,9575.003385125001,0.966766357421875,0.0885772705078125,-0.1706085205078125,9574.998319125001,0.7790134069306048,1.402432260230951,-0.08781764129280253,-0.001390592660754919,0.001858038827776909,-0.007556199096143246,-0.02396178245544434,-0.002981230616569519,-0.002734899520874023,2,0.2757730567465415,-0.5835128148445985,-0.2636603767956104,-0.7168996723094292,0.9820611476898193,0.08770480751991272,-0.1669240295886993,23.66127777099609,-10.46582412719727,8.9398193359375,2,9573.947178916667,2,2,1580905858.188345,1580903939.50652,1577,0.4102195,0,0,2131.439,1,0,1580905796.492468,9572.20291,0,12.51666,97.05779
1580905859.253619,73,0,1580904337.000819,41.20701635159924,29.07533761282497,172.748,-1,-1,5.74967098236084,48.00724964208526,-9999,9575.013425125,0.96087646484375,0.08270263671875,-0.17694091796875,9575.008359125,0.7790117642316696,1.40250798743793,-0.08786222218488178,-0.0004805056378245354,0.009296160191297531,-0.004945028573274612,-0.01693618297576904,0.0006821602582931519,-0.005144596099853516,2,0.2757980657858313,-0.5835331392548752,-0.2636357698696149,-0.7168825413670783,0.9820699095726013,0.08774922043085098,-0.1668490022420883,23.66127777099609,-10.46582412719727,8.9398193359375,2,9573.947178916667,2,2,1580905858.188345,1580903939.50652,1577,0.4102195,0,0,2131.439,1,0,1580905796.492468,9572.20291,0,12.51666,97.05779
1580905859.254895,74,0,1580904337.000819,41.20701635159924,29.07533761282497,172.748,-1,-1,5.74967098236084,48.00724964208526,-9999,9575.023465125001,0.9609832763671875,0.0786285400390625,-0.1721649169921875,9575.018399125001,0.7790199106191306,1.402651210777795,-0.08792350438368575,-0.003388410899788141,0.0171988271176815,-0.008081699721515179,-0.02284461259841919,-0.005253642797470093,-0.01161849498748779,2,0.2758405802843379,-0.583573676940138,-0.2636002847032876,-0.7168463751695237,0.9820886850357056,0.08781026303768158,-0.1667074710130692,23.61491394042969,-10.84357833862305,9.02850341796875,2,9573.947178916667,2,2,1580905858.188345,1580903939.50652,1577,0.4102195,0,0,2131.439,1,0,1580905796.492468,9572.20291,0,12.51666,97.05779
1580905859.257031,75,0,1580904337.000819,41.20701635159924,29.07533761282497,172.748,-1,-1,5.74967098236084,48.00724964208526,-9999,9575.033506125001,0.9650421142578125,0.080474853515625,-0.170166015625,9575.028470125,0.7790219610262545,1.402826222082615,-0.08795497621732364,-0.001975960563868284,0.02170841954648495,-0.002297836355865002,-0.02276420593261719,-0.009359106421470642,-0.0070151686668396,2,0.2758752098064073,-0.5836311413103397,-0.2635672909612069,-0.7167983190657456,0.9821150302886963,0.08784161508083344,-0.1665351241827011,23.61491394042969,-10.84357833862305,9.02850341796875,2,9573.947178916667,2,2,1580905858.188345,1580903939.50652,1577,0.4102195,0,0,2131.439,1,0,1580905796.492468,9572.20291,0,12.51666,97.05779
1580905859.267048,76,0,1580904337.000819,41.20701635159924,29.07533761282497,172.748,-1,-1,5.74967098236084,48.00724964208526,-9999,9575.043546125,0.972625732421875,0.0860748291015625,-0.171051025390625,9575.038511125,0.7790076004985198,1.402931434307093,-0.08796769102588803,-3.132037818431854e-05,0.008807266131043434,-0.001612871419638395,-0.01872187852859497,-0.007525473833084106,-0.005120038986206055,2,0.2758893085019702,-0.583668819172243,-0.2635437575910565,-0.7167708510286405,0.9821314215660095,0.08785428106784821,-0.1664315909147263,23.72743988037109,-10.5797004699707,9.027801513671875,2,9573.947178916667,2,2,1580905858.188345,1580903939.50652,1577,0.4102195,0,0,2131.439,1,0,1580905796.492468,9572.20291,0,12.51666,97.05779
1580905859.276999,77,0,1580904337.000819,41.20701635159924,29.07533761282497,172.748,-1,-1,5.74967098236084,48.00724964208526,-9999,9575.053586125001,0.9623565673828125,0.0895233154296875,-0.1664886474609375,9575.048551125001,0.778945712931241,1.403002687055205,-0.08798789790443055,0.007520057260990143,0.01121948286890984,-0.004929152317345142,-0.01114833354949951,-0.001945674419403076,-0.00607532262802124,2,0.2758876482592411,-0.5836997013467676,-0.2635055963783416,-0.7167604065347907,0.9821415543556213,0.08787441253662109,-0.1663613319396973,23.72743988037109,-10.5797004699707,9.027801513671875,2,9573.947178916667,2,2,1580905858.188345,1580903939.50652,1577,0.4102195,0,0,2131.439,1,0,1580905796.492468,9572.20291,0,12.51666,97.05779
1580905859.28688,78,0,1580904337.000819,41.20701635159924,29.07533761282497,172.748,-1,-1,5.74967098236084,48.00724964208526,-9999,9575.063627125,0.96795654296875,0.0821533203125,-0.167938232421875,9575.058591125,0.7788762226809013,1.402942465764569,-0.0879750316942953,0.007070249877870083,-0.008233310654759407,-0.0003083022311329842,-0.02140849828720093,0.001515656709671021,-0.001453578472137451,2,0.2758549931404328,-0.583689730199932,-0.2634929118218153,-0.7167856602927507,0.9821325540542603,0.08786159008741379,-0.1664206385612488,23.65822601318359,-10.66616821289062,8.94036865234375,2,9573.947178916667,2,2,1580905858.188345,1580903939.50652,1577,0.4102195,0,0,2131.439,1,0,1580905796.492468,9572.20291,0,12.51666,97.05779
1580905859.315846,79,0,1580904337.000819,41.20701635159924,29.07533761282497,172.748,-1,-1,5.74967098236084,48.00724964208526,-9999,9575.073667125,0.96514892578125,0.0741729736328125,-0.1737213134765625,9575.068631125001,0.7787856213305884,1.402925121803229,-0.08793129290666429,0.01122651435434818,0.0001445133239030838,0.002467771992087364,-0.01580923795700073,-0.0058106929063797,-0.002885282039642334,2,0.2758110511592716,-0.5837029220762586,-0.2634761573673742,-0.7167980182592124,0.9821334481239319,0.08781802654266357,-0.1664383262395859,23.65822601318359,-10.66616821289062,8.94036865234375,2,9573.947178916667,2,2,1580905858.188345,1580903939.50652,1577,0.4102195,0,0,2131.439,1,0,1580905796.492468,9572.20291,0,12.51666,97.05779
1580905859.317853,80,0,1580904337.000819,41.20701635159924,29.07533761282497,172.748,-1,-1,5.74967098236084,48.00724964208526,-9999,9575.083707125001,0.956298828125,0.07611083984375,-0.1750946044921875,9575.078672125001,0.7787233491659494,1.402973397293094,-0.08791644837043466,0.007741769775748253,0.004429273307323456,0.001247778534889221,-0.01862621307373047,-0.01377618312835693,-0.008715569972991943,2,0.2757940600946912,-0.5837311595346693,-0.2634517064844952,-0.7167905950354063,0.9821428656578064,0.08780323714017868,-0.166391134262085,23.61756134033203,-10.67213821411133,9.0733642578125,2,9573.947178916667,2,2,1580905858.188345,1580903939.50652,1577,0.4102195,0,0,2131.439,1,0,1580905796.492468,9572.20291,0,12.51666,97.05779
1580905859.319562,81,0,1580904337.000819,41.20701635159924,29.07533761282497,172.748,-1,-1,5.74967098236084,48.00724964208526,-9999,9575.093778125001,0.948486328125,0.08380126953125,-0.1789703369140625,9575.088712125,0.7787025540459593,1.403190453520706,-0.08797286799917521,1.526717096567154e-05,0.02109418995678425,-0.005263435654342175,-0.02750760316848755,-0.01189465820789337,-0.01030325889587402,2,0.2758361847468905,-0.5838029057283709,-0.2633971343736735,-0.7167360283706491,0.9821740984916687,0.08785943686962128,-0.1661771386861801,23.61756134033203,-10.67213821411133,9.0733642578125,2,9573.947178916667,2,2,1580905858.188345,1580903939.50652,1577,0.4102195,0,0,2131.439,1,0,1580905796.492468,9572.20291,0,12.51666,97.05779
1580905859.327237,82,0,1580904337.000819,41.20701635159924,29.07533761282497,172.748,-1,-1,5.74967098236084,48.00724964208526,-9999,9575.103818125001,0.967437744140625,0.0860595703125,-0.1770782470703125,9575.098752125001,0.7786721400348221,1.403570138604437,-0.08799045152513948,0.003325044177472591,0.04127935320138931,-0.001489736139774323,-0.03538185358047485,-0.004221752285957336,-0.01455312967300415,2,0.2758834392556503,-0.5839403753449639,-0.2633285038513472,-0.7166309902375353,0.9822354912757874,0.08787695318460464,-0.1658039391040802,23.81580352783203,-10.53739166259766,8.995697021484375,2,9573.947178916667,2,2,1580905858.188345,1580903939.50652,1577,0.4102195,0,0,2131.439,1,0,1580905796.492468,9572.20291,0,12.51666,97.05779
1580905859.337207,83,0,1580904337.000819,41.20701635159924,29.07533761282497,172.748,-1,-1,5.74967098236084,48.00724964208526,-9999,9575.113858125,0.9596405029296875,0.0832061767578125,-0.1630096435546875,9575.108793125,0.778669058409205,1.403972155160783,-0.0880039804769041,0.001112380996346474,0.0421251580119133,-0.003768004942685366,-0.01649600267410278,-0.00197698175907135,-0.01305675506591797,2,0.2759401684066581,-0.584082700569348,-0.263267815714391,-0.7165154428419176,0.982300877571106,0.08789043128490448,-0.1654088497161865,23.81580352783203,-10.53739166259766,8.995697021484375,2,9573.947178916667,2,2,1580905858.188345,1580903939.50652,1577,0.4102195,0,0,2131.439,1,0,1580905796.492468,9572.20291,0,12.51666,97.05779
1580905859.34965,84,0,1580904337.000819,41.20701635159924,29.07533761282497,172.748,-1,-1,5.74967098236084,48.00724964208526,-9999,9575.123899125001,0.9694061279296875,0.0854034423828125,-0.1663360595703125,9575.118833125001,0.7786738090443892,1.40434954908314,-0.0880282769910077,-0.001324145123362541,0.03928356617689133,-0.002993024885654449,-0.02435356378555298,-0.004854589700698853,0.0006401538848876953,2,0.2759996763238347,-0.58421340126187,-0.2632100355346697,-0.7164071681533806,0.9823610782623291,0.08791463077068329,-0.1650377660989761,23.68620300292969,-10.77146911621094,9.025115966796875,2,9573.947178916667,2,2,1580905858.188345,1580903939.50652,1577,0.4102195,0,0,2131.439,1,0,1580905796.492468,9572.20291,0,12.51666,97.05779
1580905859.376549,85,0,1580904337.000819,41.20701635159924,29.07533761282497,172.748,-1,-1,5.74967098236084,48.00724964208526,-9999,9575.133939125,0.9663543701171875,0.084503173828125,-0.167205810546875,9575.128873125001,0.778655099709938,1.404698616436832,-0.08805998056348519,0.0003632763400673866,0.03461501002311707,-0.003503249492496252,-0.01464283466339111,-0.002688989043235779,-0.003030061721801758,2,0.2760511337349196,-0.5843360116288038,-0.2631454968568783,-0.7163111204896421,0.9824159741401672,0.08794621378183365,-0.1646943986415863,23.68620300292969,-10.77146911621094,9.025115966796875,2,9573.947178916667,2,2,1580905858.188345,1580903939.50652,1577,0.4102195,0,0,2131.439,1,0,1580905796.492468,9572.20291,0,12.51666,97.05779
1580905859.377789,86,0,1580904337.000819,41.20701635159924,29.07533761282497,172.748,-1,-1,5.74967098236084,48.00724964208526,-9999,9575.143979125001,0.96124267578125,0.07733154296875,-0.16949462890625,9575.138944125001,0.778619182217662,1.405052110381743,-0.08813454647965425,0.003008327446877956,0.0372811034321785,-0.009355545975267887,-0.01774632930755615,-0.003663644194602966,-0.004248857498168945,2,0.2761130555307895,-0.5844557924706248,-0.2630610949450436,-0.7162204826335501,0.9824676513671875,0.08802048861980438,-0.1643460094928741,23.69464111328125,-10.53654861450195,9.183837890625,2,9573.947178916667,2,2,1580905858.188345,1580903939.50652,1577,0.4102195,0,0,2131.439,1,0,1580905796.492468,9572.20291,0,12.51666,97.05779
1580905859.378824,87,0,1580904337.000819,41.20701635159924,29.07533761282497,172.748,-1,-1,5.74967098236084,48.00724964208526,-9999,9575.154020125001,0.9597015380859375,0.0750274658203125,-0.1707916259765625,9575.148984125,0.77859106586285,1.405385174727401,-0.08822165804660988,0.001420074142515659,0.03206150978803635,-0.009917574003338814,-0.02290511131286621,-0.01092220842838287,-0.006866455078125,2,0.2761788678065395,-0.5845651949638913,-0.2629784731407822,-0.7161362335028535,0.9825147986412048,0.08810726553201675,-0.164017528295517,23.69464111328125,-10.53654861450195,9.183837890625,2,9573.947178916667,2,2,1580905858.188345,1580903939.50652,1577,0.4102195,0,0,2131.439,1,0,1580905796.492468,9572.20291,0,12.51666,97.05779
1580905859.387714,88,0,1580904337.000819,41.20701635159924,29.07533761282497,172.748,-1,-1,5.74967098236084,48.00724964208526,-9999,9575.164060125,0.9591064453125,0.0822906494140625,-0.1747894287109375,9575.159024125001,0.7785737521345563,1.405783814896006,-0.08830858731969358,-0.0006009987555444241,0.04200628399848938,-0.008992391638457775,-0.02450400590896606,-0.01331301033496857,-0.008557021617889404,2,0.276256412289886,-0.5846965912850016,-0.2628906943487401,-0.716031234908148,0.9825724959373474,0.0881938561797142,-0.1636245846748352,23.77231597900391,-10.6330451965332,9.162353515625,2,9573.947178916667,2,2,1580905858.188345,1580903939.50652,1577,0.4102195,0,0,2131.439,1,0,1580905796.492468,9572.20291,0,12.51666,97.05779
1580905859.397528,89,0,1580904337.000819,41.20701635159924,29.07533761282497,172.748,-1,-1,5.74967098236084,48.00724964208526,-9999,9575.174100125001,0.9635772705078125,0.083099365234375,-0.17041015625,9575.169065125001,0.7785432155555765,1.406162707138706,-0.08840605071005608,0.001618778333067894,0.04042810946702957,-0.01178514864295721,-0.02515262365341187,-0.006147056818008423,-0.01292914152145386,2,0.2763311066445066,-0.5848210681352065,-0.2627976784678224,-0.7159349166245328,0.9826260209083557,0.08829093724489212,-0.1632508784532547,23.77231597900391,-10.6330451965332,9.162353515625,2,9573.947178916667,2,2,1580905858.188345,1580903939.50652,1577,0.4102195,0,0,2131.439,1,0,1580905796.492468,9572.20291,0,12.51666,97.05779
1580905859.40945,90,0,1580904337.000819,41.20701635159924,29.07533761282497,172.748,-1,-1,5.74967098236084,48.00724964208526,-9999,9575.184140125,0.9714202880859375,0.0804290771484375,-0.16778564453125,9575.179105125,0.7785047552625964,1.406495124285335,-0.08849667687748158,0.002610539086163044,0.03619501367211342,-0.008548875339329243,-0.02072811126708984,-0.00542876124382019,-0.008878469467163086,2,0.2763950092960125,-0.5849310623529751,-0.2627103112931281,-0.7158523834910683,0.9826722145080566,0.08838120847940445,-0.1629229038953781,23.63217163085938,-10.49154281616211,9.131439208984375,2,9573.947178916667,2,2,1580905858.188345,1580903939.50652,1577,0.4102195,0,0,2131.439,1,0,1580905796.492468,9572.20291,0,12.51666,97.05779
1580905859.432174,91,0,1580904337.000819,41.20701635159924,29.07533761282497,172.748,-1,-1,5.74967098236084,48.00724964208526,-9999,9575.194181125,0.968109130859375,0.08306884765625,-0.1612548828125,9575.189145125001,0.7784691876163471,1.406765454686093,-0.08863053262520898,-0.0001691551879048347,0.02837618999183178,-0.01431914418935776,-0.01291739940643311,-0.008232548832893372,-0.006521761417388916,2,0.2764665404546975,-0.5850116124159593,-0.2626193558296311,-0.7157923803886576,0.9827046394348145,0.088514544069767,-0.1626553237438202,23.63217163085938,-10.49154281616211,9.131439208984375,2,9573.947178916667,2,2,1580905858.188345,1580903939.50652,1577,0.4102195,0,0,2131.439,1,0,1580905796.492468,9572.20291,0,12.51666,97.05779
1580905859.43349,92,0,1580904337.000819,41.20701635159924,29.07533761282497,172.748,-1,-1,5.74967098236084,48.00724964208526,-9999,9575.204252125,0.9656524658203125,0.082427978515625,-0.16259765625,9575.199186125001,0.7784452773431716,1.407045590177485,-0.08875550537533425,0.0007509663701057434,0.0291165467351675,-0.01300141215324402,-0.01626312732696533,-0.005717501044273376,-0.0002685189247131348,2,0.2765397006394005,-0.5850954473883995,-0.2625339064317495,-0.7157269065819288,0.9827392101287842,0.0886390209197998,-0.1623782217502594,23.75677490234375,-10.37634658813477,9.15338134765625,2,9573.947178916667,2,2,1580905858.188345,1580903939.50652,1577,0.4102195,0,0,2131.439,1,0,1580905796.492468,9572.20291,0,12.51666,97.05779
1580905859.437886,93,0,1580904337.000819,41.20701635159924,29.07533761282497,172.748,-1,-1,5.74967098236084,48.00724964208526,-9999,9575.214292125,0.9580841064453125,0.08856201171875,-0.161224365234375,9575.209226125,0.7784361975657061,1.407385854840066,-0.08887256015656131,-0.0003020428121089935,0.03580610454082489,-0.01041899807751179,-0.01876485347747803,-0.006475120782852173,-0.001948058605194092,2,0.2766223059557311,-0.5851999923563139,-0.2624478526707355,-0.7156410921112368,0.9827842116355896,0.08875561505556107,-0.1620421409606934,23.75677490234375,-10.37634658813477,9.15338134765625,2,9573.947178916667,2,2,1580905858.188345,1580903939.50652,1577,0.4102195,0,0,2131.439,1,0,1580905796.492468,9572.20291,0,12.51666,97.05779
1580905859.4477,94,0,1580904337.000819,41.20701635159924,29.07533761282497,172.748,-1,-1,5.74967098236084,48.00724964208526,-9999,9575.224332125001,0.9571075439453125,0.0919647216796875,-0.159698486328125,9575.219266125001,0.778434349426205,1.407738608412729,-0.08896629896281784,-0.002017651218920946,0.03669426590204239,-0.008514038287103176,-0.0263824462890625,-0.0004346370697021484,-0.0009235739707946777,2,0.276700567128182,-0.5853116684123013,-0.2623697583450512,-0.7155481286044044,0.9828330874443054,0.08884898573160172,-0.1616940945386887,23.63803100585938,-10.53327178955078,9.09918212890625,2,9573.947178916667,2,2,1580905858.188345,1580903939.50652,1577,0.4102195,0,0,2131.439,1,0,1580905796.492468,9572.20291,0,12.51666,97.05779
1580905859.457823,95,0,1580904337.000819,41.20701635159924,29.07533761282497,172.748,-1,-1,5.74967098236084,48.00724964208526,-9999,9575.234372125,0.9682464599609375,0.0913238525390625,-0.1638336181640625,9575.229306125,0.778426855319987,1.408017777032435,-0.08898661821832182,0.0002499474212527275,0.0284949466586113,-0.00316353514790535,-0.02740228176116943,0.002947762608528137,0.0003272294998168945,2,0.2767420553607718,-0.5854093693996476,-0.2623222400857723,-0.7154695310867079,0.9828763008117676,0.08886922150850296,-0.1614194065332413,23.63803100585938,-10.53327178955078,9.09918212890625,2,9573.947178916667,2,2,1580905858.188345,1580903939.50652,1577,0.4102195,0,0,2131.439,1,0,1580905796.492468,9572.20291,0,12.51666,97.05779
1580905859.469265,96,0,1580904337.000819,41.20701635159924,29.07533761282497,172.748,-1,-1,5.74967098236084,48.00724964208526,-9999,9575.244413125001,0.9641876220703125,0.0814208984375,-0.1665496826171875,9575.239347125,0.7784194456779439,1.408255534524626,-0.08896858752917024,0.001472604461014271,0.02713647112250328,-0.000217280350625515,-0.01630330085754395,0.002324908971786499,-0.004041492938995361,2,0.2767647830342412,-0.5854982969496697,-0.2622922057112937,-0.7153990812286857,0.9829163551330566,0.08885126560926437,-0.1611859947443008,23.90549468994141,-10.59801483154297,9.28564453125,2,9573.947178916667,2,2,1580905858.188345,1580903939.50652,1577,0.4102195,0,0,2131.439,1,0,1580905796.492468,9572.20291,0,12.51666,97.05779
1580905859.492657,97,0,1580904337.000819,41.20701635159924,29.07533761282497,172.748,-1,-1,5.74967098236084,48.00724964208526,-9999,9575.254453125001,0.9698486328125,0.0769500732421875,-0.166534423828125,9575.249418125,0.7783844038604606,1.408419375114989,-0.08896571393031165,0.004536664113402367,0.01809578202664852,-0.0005179527215659618,-0.02038872241973877,-0.007575154304504395,-0.006918847560882568,2,0.2767750357036973,-0.5855621985820744,-0.2622578725606882,-0.7153553303092657,0.9829429388046265,0.08884840458631516,-0.1610249876976013,23.90549468994141,-10.59801483154297,9.28564453125,2,9573.947178916667,2,2,1580905858.188345,1580903939.50652,1577,0.4102195,0,0,2131.439,1,0,1580905796.492468,9572.20291,0,12.51666,97.05779
1580905859.49389,98,0,1580904337.000819,41.20701635159924,29.07533761282497,172.748,-1,-1,5.74967098236084,48.00724964208526,-9999,9575.264493125,0.9735260009765625,0.079498291015625,-0.16693115234375,9575.259458125001,0.7783524927516035,1.408516656822597,-0.08902327876743181,0.0003475118428468704,0.01197104342281818,-0.006647750735282898,-0.01473832130432129,-0.01210343837738037,-0.007000148296356201,2,0.2767984112963898,-0.5855923275456231,-0.262215400306231,-0.7153371827766352,0.9829535484313965,0.08890573680400848,-0.1609285324811935,23.57389068603516,-10.37394714355469,9.2474365234375,2,9573.947178916667,2,2,1580905858.188345,1580903939.50652,1577,0.4102195,0,0,2131.439,1,0,1580905796.492468,9572.20291,0,12.51666,97.05779
1580905859.497986,99,0,1580904337.000819,41.20701635159924,29.07533761282497,172.748,-1,-1,5.74967098236084,48.00724964208526,-9999,9575.274534125001,0.9673004150390625,0.0863800048828125,-0.167816162109375,9575.269498125001,0.7783231054381006,1.408534889057597,-0.08909632542950754,0.001133707351982594,0.00133112445473671,-0.009325931780040264,-0.01105743646621704,-0.00962810218334198,-0.007415890693664551,2,0.2768175259425083,-0.5855913914689926,-0.2621800377182407,-0.7153435107130909,0.9829500913619995,0.08897849917411804,-0.1609095633029938,23.57389068603516,-10.37394714355469,9.2474365234375,2,9573.947178916667,2,2,1580905858.188345,1580903939.50652,1577,0.4102195,0,0,2131.439,1,0,1580905796.492468,9572.20291,0,12.51666,97.05779
1580905859.508071,100,0,1580904337.000819,41.20701635159924,29.07533761282497,172.748,-1,-1,5.74967098236084,48.00724964208526,-9999,9575.284574125,0.95465087890625,0.087860107421875,-0.16986083984375,9575.279538125,0.7782890362535668,1.408612750879348,-0.08917664967874743,0.0006990795955061913,0.01031290180981159,-0.009424468502402306,-0.01728856563568115,-0.002826526761054993,-0.008378803730010986,2,0.2768456047280318,-0.5856112837332573,-0.2621325215778138,-0.7153337799083467,0.9829555153846741,0.08905850350856781,-0.1608318686485291,23.54396057128906,-10.44982147216797,9.31842041015625,2,9573.947178916667,2,2,1580905858.188345,1580903939.50652,1577,0.4102195,0,0,2131.439,1,0,1580905796.492468,9572.20291,0,12.51666,97.05779
1580905859.518046,101,0,1580904337.000819,41.20701635159924,29.07533761282497,172.748,-1,-1,5.74967098236084,48.00724964208526,-9999,9575.294614125001,0.9613037109375,0.0814971923828125,-0.16650390625,9575.289579125001,0.7782269004257479,1.408776396445125,-0.08926517415993683,0.004182182252407074,0.01827698200941086,-0.00974084809422493,-0.02995669841766357,-0.00143471360206604,-0.01058590412139893,2,0.2768795479299901,-0.5856644483080667,-0.2620605813887072,-0.7153034736591197,0.9829740524291992,0.08914667367935181,-0.16066974401474,23.54396057128906,-10.44982147216797,9.31842041015625,2,9573.947178916667,2,2,1580905858.188345,1580903939.50652,1577,0.4102195,0,0,2131.439,1,0,1580905796.492468,9572.20291,0,12.51666,97.05779
1580905859.529665,102,0,1580904337.000819,41.20701635159924,29.07533761282497,172.748,-1,-1,5.74967098236084,48.00724964208526,-9999,9575.304654125001,0.9593658447265625,0.0785980224609375,-0.16424560546875,9575.299619125,0.7781901864070958,1.408994066229551,-0.08934045005951985,0.001329404301941395,0.02124267816543579,-0.006236660294234753,-0.02333217859268188,-0.007872730493545532,-0.007444381713867188,2,0.2769234051398144,-0.5857355041589354,-0.2619942996054599,-0.7152526079609176,0.9830024242401123,0.08922164887189865,-0.1604546904563904,23.56211853027344,-10.64511871337891,9.277618408203125,2,9573.947178916667,2,2,1580905858.188345,1580903939.50652,1577,0.4102195,0,0,2131.439,1,0,1580905796.492468,9572.20291,0,12.51666,97.05779
1580905859.549207,103,0,1580904337.000819,41.20701635159924,29.07533761282497,172.748,-1,-1,5.74967098236084,48.00724964208526,-9999,9575.314725125001,0.9633941650390625,0.0833282470703125,-0.16180419921875,9575.309659125001,0.7781442060951267,1.409260136597851,-0.08943795545329673,0.002390407957136631,0.02984042838215828,-0.01106497179716825,-0.02530437707901001,-0.01086923480033875,-0.005449593067169189,2,0.2769785915305732,-0.5858216379413337,-0.2619111937779424,-0.7151911129811377,0.9830364584922791,0.08931876718997955,-0.1601917296648026,23.56211853027344,-10.64511871337891,9.277618408203125,2,9573.947178916667,2,2,1580905858.188345,1580903939.50652,1577,0.4102195,0,0,2131.439,1,0,1580905796.492468,9572.20291,0,12.51666,97.05779
1580905859.550599,104,0,1580904337.000819,41.20701635159924,29.07533761282497,172.748,-1,-1,5.74967098236084,48.00724964208526,-9999,9575.324765125,0.9695892333984375,0.08941650390625,-0.1603851318359375,9575.319700125001,0.7780951372339135,1.40944490619375,-0.0895357157701421,0.002147793769836426,0.01791559159755707,-0.0110135730355978,-0.02129703760147095,-0.006236493587493896,-0.003191530704498291,2,0.2770222998506604,-0.5858790825448588,-0.2618381557446071,-0.7151538549771579,0.9830573797225952,0.08941613137722015,-0.1600086987018585,23.65102386474609,-10.66738891601562,9.53814697265625,2,9573.947178916667,2,2,1580905858.188345,1580903939.50652,1577,0.4102195,0,0,2131.439,1,0,1580905796.492468,9572.20291,0,12.51666,97.05779
1580905859.558365,105,0,1580904337.000819,41.20701635159924,29.07533761282497,172.748,-1,-1,5.74967098236084,48.00724964208526,-9999,9575.334806125,0.9648284912109375,0.085693359375,-0.1651153564453125,9575.329740125,0.7780514832881579,1.409593189127625,-0.08962088922966394,0.002320235595107079,0.01557421870529652,-0.009681941941380501,-0.01511824131011963,-0.0002332478761672974,-0.001919746398925781,2,0.2770584372949429,-0.5859247161855071,-0.2617759533170121,-0.7151252503121003,0.9830735921859741,0.08950096368789673,-0.1598616987466812,23.65102386474609,-10.66738891601562,9.53814697265625,2,9573.947178916667,2,2,1580905858.188345,1580903939.50652,1577,0.4102195,0,0,2131.439,1,0,1580905796.492468,9572.20291,0,12.51666,97.05779
1580905859.568769,106,0,1580904337.000819,41.20701635159924,29.07533761282497,172.748,-1,-1,5.74967098236084,48.00724964208526,-9999,9575.344846125001,0.96307373046875,0.0819854736328125,-0.1692352294921875,9575.339780125001,0.7780102659622088,1.409791263173277,-0.08968141135507096,0.002904799766838551,0.02094581536948681,-0.007624649908393621,-0.0199054479598999,-0.004016771912574768,-0.00684589147567749,2,0.2770932309290126,-0.5859917071735626,-0.2617152650602954,-0.7150791703102396,0.9830999970436096,0.08956124633550644,-0.159666121006012,23.60729217529297,-10.48778915405273,9.38214111328125,2,9573.947178916667,2,2,1580905858.188345,1580903939.50652,1577,0.4102195,0,0,2131.439,1,0,1580905796.492468,9572.20291,0,12.51666,97.05779
1580905859.578325,107,0,1580904337.000819,41.20701635159924,29.07533761282497,172.748,-1,-1,5.74967098236084,48.00724964208526,-9999,9575.354886125,0.962646484375,0.08251953125,-0.168914794921875,9575.349820125,0.777973601719709,1.410075782552445,-0.0896945342083233,0.003699366003274918,0.03098681382834911,-0.001910519786179066,-0.02170449495315552,-0.007737740874290466,-0.01124602556228638,2,0.2771242539005423,-0.586096440658826,-0.2616587218024804,-0.7150020270206917,0.983144223690033,0.08957431465387344,-0.1593862175941467,23.60729217529297,-10.48778915405273,9.38214111328125,2,9573.947178916667,2,2,1580905858.188345,1580903939.50652,1577,0.4102195,0,0,2131.439,1,0,1580905796.492468,9572.20291,0,12.51666,97.05779
1580905859.58898,108,0,1580904337.000819,41.20701635159924,29.07533761282497,172.748,-1,-1,5.74967098236084,48.00724964208526,-9999,9575.364927125001,0.9675750732421875,0.0853729248046875,-0.1645050048828125,9575.359891125001,0.7779532076372845,1.410359636816039,-0.08970905013050072,0.001235409639775753,0.02823017351329327,-0.002728642895817757,-0.02217590808868408,-0.00721818208694458,-0.01120561361312866,2,0.2771604696103419,-0.5861984432630715,-0.2616076492138404,-0.7149229597335638,0.9831880331039429,0.08958877623081207,-0.1591069251298904,23.54562377929688,-10.38201522827148,9.483184814453125,2,9573.947178916667,2,2,1580905858.188345,1580903939.50652,1577,0.4102195,0,0,2131.439,1,0,1580905796.492468,9572.20291,0,12.51666,97.05779
1580905859.611994,109,0,1580904337.000819,41.20701635159924,29.07533761282497,172.748,-1,-1,5.74967098236084,48.00724964208526,-9999,9575.374967125001,0.973602294921875,0.0867462158203125,-0.1629638671875,9575.369931125,0.7779139467927176,1.410598461201537,-0.08972009417298105,0.004685877822339535,0.0255594365298748,-0.002016724552959204,-0.0172843337059021,-0.004375830292701721,-0.007031142711639404,2,0.277184009996937,-0.5862875124624267,-0.2615571401725087,-0.7148593147000222,0.9832251071929932,0.08959977328777313,-0.1588719487190247,23.54562377929688,-10.38201522827148,9.483184814453125,2,9573.947178916667,2,2,1580905858.188345,1580903939.50652,1577,0.4102195,0,0,2131.439,1,0,1580905796.492468,9572.20291,0,12.51666,97.05779
1580905859.613466,110,0,1580904337.000819,41.20701635159924,29.07533761282497,172.748,-1,-1,5.74967098236084,48.00724964208526,-9999,9575.385007125,0.95794677734375,0.08428955078125,-0.161285400390625,9575.379972125,0.7778822804143266,1.410790616806531,-0.08973045427978091,0.003573475405573845,0.01967757940292358,-0.002932585310190916,-0.01128673553466797,-0.00301283597946167,-0.00567936897277832,2,0.2772034463947424,-0.5863589467681437,-0.2615160179491196,-0.7148082211619384,0.9832546710968018,0.08961009234189987,-0.1586828678846359,23.53160095214844,-10.28098297119141,9.292327880859375,2,9573.947178916667,2,2,1580905858.188345,1580903939.50652,1577,0.4102195,0,0,2131.439,1,0,1580905796.492468,9572.20291,0,12.51666,97.05779
1580905859.618617,111,0,1580904337.000819,41.20701635159924,29.07533761282497,172.748,-1,-1,5.74967098236084,48.00724964208526,-9999,9575.395047125001,0.9555816650390625,0.083221435546875,-0.1653594970703125,9575.390012125001,0.7778804091927098,1.410990486356786,-0.08969761090212194,2.725422382354736e-05,0.01902594231069088,0.001610393635928631,-0.0269770622253418,-0.005436748266220093,-0.004197299480438232,2,0.2772176282055799,-0.5864358212944961,-0.2614977063053207,-0.7147464371901823,0.983289361000061,0.08957737684249878,-0.1584868282079697,23.53160095214844,-10.28098297119141,9.292327880859375,2,9573.947178916667,2,2,1580905858.188345,1580903939.50652,1577,0.4102195,0,0,2131.439,1,0,1580905796.492468,9572.20291,0,12.51666,97.05779
1580905859.62843,112,0,1580904337.000819,41.20701635159924,29.07533761282497,172.748,-1,-1,5.74967098236084,48.00724964208526,-9999,9575.405088125,0.9567718505859375,0.0830841064453125,-0.164093017578125,9575.400052125,0.7778641977274912,1.41131318649768,-0.08957436472173412,0.004169801250100136,0.03513913601636887,0.0118771456182003,-0.02940422296524048,-0.00638192892074585,-0.008587539196014404,2,0.2772123935172873,-0.5865728088217739,-0.2614849184754732,-0.7146406941134609,0.9833512902259827,0.08945462852716446,-0.1581712514162064,23.73149871826172,-10.40422821044922,9.419830322265625,2,9573.947178916667,2,2,1580905858.188345,1580903939.50652,1577,0.4102195,0,0,2131.439,1,0,1580905796.492468,9572.20291,0,12.51666,97.05779
1580905859.638427,113,0,1580904337.000819,41.20701635159924,29.07533761282497,172.748,-1,-1,5.74967098236084,48.00724964208526,-9999,9575.415128125,0.966766357421875,0.084381103515625,-0.1576385498046875,9575.410093125001,0.7778378893897858,1.411631009863502,-0.08946913120486395,0.004334727302193642,0.03348381817340851,0.009481633082032204,-0.02827358245849609,-0.006414234638214111,-0.007632613182067871,2,0.2772097879132431,-0.5867065956940556,-0.2614636924470291,-0.7145396363871678,0.9834108352661133,0.08934981375932693,-0.157860204577446,23.83411407470703,-10.47761535644531,9.590606689453125,2,9573.947178916667,2,2,1580905858.188345,1580903939.50652,1577,0.4102195,0,0,2131.439,1,0,1580905796.492468,9572.20291,0,12.51666,97.05779
1580905859.649468,114,0,1580904337.000819,41.20701635159924,29.07533761282497,172.748,-1,-1,5.74967098236084,48.00724964208526,-9999,9575.425199125,0.9836578369140625,0.08612060546875,-0.1557464599609375,9575.420133125001,0.7778268485280706,1.411758409744554,-0.08942945564309886,0.0004156194627285004,0.01329439133405685,0.003547045402228832,-0.01830273866653442,-0.005077660083770752,-0.001303136348724365,2,0.2772094784115468,-0.5867598895324047,-0.2614542387059425,-0.7144994141258476,0.9834343791007996,0.08931029587984085,-0.1577354669570923,23.83411407470703,-10.47761535644531,9.590606689453125,2,9573.947178916667,2,2,1580905858.188345,1580903939.50652,1577,0.4102195,0,0,2131.439,1,0,1580905796.492468,9572.20291,0,12.51666,97.05779
1580905859.671422,115,0,1580904337.000819,41.20701635159924,29.07533761282497,172.748,-1,-1,5.74967098236084,48.00724964208526,-9999,9575.435239125001,0.977020263671875,0.08770751953125,-0.158843994140625,9575.430173125,0.7778050932658201,1.411711679516444,-0.08946369609426719,0.001641944050788879,-0.004381239414215088,-0.004924778826534748,-0.001400768756866455,-0.003372326493263245,0.0006344914436340332,2,0.2772088619511448,-0.5867408111952981,-0.2614424529056177,-0.7145195755407256,0.9834239482879639,0.08934440463781357,-0.1577809303998947,23.60647583007812,-10.43186187744141,9.52606201171875,2,9573.947178916667,2,2,1580905858.188345,1580903939.50652,1577,0.4102195,0,0,2131.439,1,0,1580905796.492468,9572.20291,0,12.51666,97.05779
1580905859.672854,116,0,1580904337.000819,41.20701635159924,29.07533761282497,172.748,-1,-1,5.74967098236084,48.00724964208526,-9999,9575.445279125001,0.9644317626953125,0.08526611328125,-0.1615447998046875,9575.440213125001,0.7777791598641954,1.4116192085206,-0.08951970964406573,0.002550614066421986,-0.008980252780020237,-0.006094971671700478,-0.008018732070922852,-0.001841321587562561,-0.00237274169921875,2,0.2772085757743759,-0.5867025397596194,-0.2614288467609801,-0.7145560485867938,0.9834043383598328,0.08940019458532333,-0.1578710675239563,23.60647583007812,-10.43186187744141,9.52606201171875,2,9573.947178916667,2,2,1580905858.188345,1580903939.50652,1577,0.4102195,0,0,2131.439,1,0,1580905796.492468,9572.20291,0,12.51666,97.05779
1580905859.678788,117,0,1580904337.000819,41.20701635159924,29.07533761282497,172.748,-1,-1,5.74967098236084,48.00724964208526,-9999,9575.455320125,0.9539337158203125,0.0804595947265625,-0.1650848388671875,9575.450254125,0.7777663202290052,1.411659427204166,-0.08958309740521263,0.0002142144367098808,0.006170833483338356,-0.006369822658598423,-0.02060788869857788,-0.004345923662185669,-0.005113840103149414,2,0.2772319741152327,-0.5867087096271159,-0.2613992789048461,-0.7145528480840516,0.9834052324295044,0.08946332335472107,-0.1578306406736374,23.53623199462891,-10.30191421508789,9.55035400390625,2,9573.947178916667,2,2,1580905858.188345,1580903939.50652,1577,0.4102195,0,0,2131.439,1,0,1580905796.492468,9572.20291,0,12.51666,97.05779
1580905859.688799,118,0,1580904337.000819,41.20701635159924,29.07533761282497,172.748,-1,-1,5.74967098236084,48.00724964208526,-9999,9575.465360125001,0.9639892578125,0.0811004638671875,-0.1651458740234375,9575.460294125001,0.7777594844760427,1.411799550186638,-0.08965085443676007,9.384006261825562e-05,0.01424367167055607,-0.00653520505875349,-0.03112202882766724,-0.009220033884048462,-0.0087929368019104,2,0.2772717613425772,-0.5867490375353082,-0.2613566550651962,-0.7145198287705884,0.983421266078949,0.08953081071376801,-0.1576918810606003,23.53623199462891,-10.30191421508789,9.55035400390625,2,9573.947178916667,2,2,1580905858.188345,1580903939.50652,1577,0.4102195,0,0,2131.439,1,0,1580905796.492468,9572.20291,0,12.51666,97.05779
1580905859.69883,119,0,1580904337.000819,41.20701635159924,29.07533761282497,172.748,-1,-1,5.74967098236084,48.00724964208526,-9999,9575.475400125,0.9670562744140625,0.0828857421875,-0.1634979248046875,9575.470365125,0.7777573423348829,1.411972545849832,-0.0897343122914832,0.0003088805824518204,0.01933585479855537,-0.008210862055420876,-0.02108621597290039,-0.008662402629852295,-0.009025275707244873,2,0.2773226060690233,-0.5867979918849577,-0.2613063442642635,-0.7144783748587465,0.9834412932395935,0.08961393684148788,-0.1575205773115158,23.54689025878906,-10.26786804199219,9.432464599609375,2,9573.947178916667,2,2,1580905858.188345,1580903939.50652,1577,0.4102195,0,0,2131.439,1,0,1580905796.492468,9572.20291,0,12.51666,97.05779
1580905859.709869,120,0,1580904337.000819,41.20701635159924,29.07533761282497,172.748,-1,-1,5.74967098236084,48.00724964208526,-9999,9575.485441125,0.9691314697265625,0.0826568603515625,-0.16131591796875,9575.480405125001,0.7777808880296757,1.412067261935961,-0.08984129960712969,-0.005456063896417618,0.008425682783126831,-0.01016748603433371,-0.018024742603302,-0.006983861327171326,-0.007472455501556396,2,0.2773789643405162,-0.5868116943131153,-0.2612688379306977,-0.7144588448403862,0.9834465980529785,0.08972048759460449,-0.1574258953332901,23.54689025878906,-10.26786804199219,9.432464599609375,2,9573.947178916667,2,2,1580905858.188345,1580903939.50652,1577,0.4102195,0,0,2131.439,1,0,1580905796.492468,9572.20291,0,12.51666,97.05779
1580905859.731184,121,0,1580904337.000819,41.20701635159924,29.07533761282497,172.748,-1,-1,5.74967098236084,48.00724964208526,-9999,9575.495481125001,0.9684906005859375,0.0827484130859375,-0.1604156494140625,9575.490445125,0.7777932707221994,1.412143236804752,-0.08993932992323871,-0.002466244623064995,0.01045955717563629,-0.009634912014007568,-0.0159527063369751,-0.007310524582862854,-0.00536644458770752,2,0.2774264500006148,-0.5868216689760676,-0.2612326912267833,-0.7144454543116087,0.9834498763084412,0.08981812745332718,-0.1573497802019119,23.48033905029297,-10.40579986572266,9.440582275390625,2,9573.947178916667,2,2,1580905858.188345,1580903939.50652,1577,0.4102195,0,0,2131.439,1,0,1580905796.492468,9572.20291,0,12.51666,97.05779
1580905859.732386,122,0,1580904337.000819,41.20701635159924,29.07533761282497,172.748,-1,-1,5.74967098236084,48.00724964208526,-9999,9575.505521125,0.9707183837890625,0.083282470703125,-0.159393310546875,9575.500486125,0.7778178939010161,1.412146654575824,-0.09006127888997467,-0.005035396665334702,0.0004703067243099213,-0.01142801903188229,-0.01658320426940918,-0.00734063982963562,-0.004471182823181152,2,0.2774763445111083,-0.586800250434134,-0.2612036479028565,-0.7144542584578878,0.983439564704895,0.08993957936763763,-0.1573446840047836,23.48033905029297,-10.40579986572266,9.440582275390625,2,9573.947178916667,2,2,1580905858.188345,1580903939.50652,1577,0.4102195,0,0,2131.439,1,0,1580905796.492468,9572.20291,0,12.51666,97.05779
1580905859.738949,123,0,1580904337.000819,41.20701635159924,29.07533761282497,172.748,-1,-1,5.74967098236084,48.00724964208526,-9999,9575.515561125001,0.9727020263671875,0.086700439453125,-0.162017822265625,9575.510526125001,0.7778005701886189,1.412104768815162,-0.09021675773459849,0.0008420469239354134,-0.002111146226525307,-0.01566696912050247,-0.01433509588241577,-0.006961673498153687,-0.003409862518310547,2,0.2775195843904288,-0.5867631873263393,-0.2611556388605121,-0.7144855353293584,0.9834192395210266,0.0900944247841835,-0.1573836803436279,23.54383087158203,-10.28838348388672,9.442413330078125,2,9573.947178916667,2,2,1580905858.188345,1580903939.50652,1577,0.4102195,0,0,2131.439,1,0,1580905796.492468,9572.20291,0,12.51666,97.05779
1580905859.748969,124,0,1580904337.000819,41.20701635159924,29.07533761282497,172.748,-1,-1,5.74967098236084,48.00724964208526,-9999,9575.525602125001,0.96875,0.0872802734375,-0.16253662109375,9575.520566125,0.7777880889268856,1.411995867507408,-0.0903972196574277,-0.001444010995328426,-0.01128600258380175,-0.01802919432520866,-0.01231813430786133,-0.003723755478858948,-0.005929648876190186,2,0.2775641653561834,-0.5866975622874379,-0.2611110018020181,-0.7145384384880715,0.9833860397338867,0.0902741551399231,-0.1574882119894028,23.54383087158203,-10.28838348388672,9.442413330078125,2,9573.947178916667,2,2,1580905858.188345,1580903939.50652,1577,0.4102195,0,0,2131.439,1,0,1580905796.492468,9572.20291,0,12.51666,97.05779
1580905859.759212,125,0,1580904337.000819,41.20701635159924,29.07533761282497,172.748,-1,-1,5.74967098236084,48.00724964208526,-9999,9575.535672125001,0.9646453857421875,0.08392333984375,-0.1635284423828125,9575.530607125,0.7777926613432031,1.41191094810279,-0.09056756810647808,-0.003142972476780415,-0.008086836896836758,-0.01637914776802063,-0.01624166965484619,-0.00331386923789978,-0.00636756420135498,2,0.2776134267381653,-0.5866397155946835,-0.2610722222285008,-0.7145808449456502,0.983357310295105,0.09044380486011505,-0.1575692594051361,23.69208526611328,-10.4480094909668,9.649078369140625,2,9573.947178916667,2,2,1580905858.188345,1580903939.50652,1577,0.4102195,0,0,2131.439,1,0,1580905796.492468,9572.20291,0,12.51666,97.05779
1580905859.769997,126,0,1580904337.000819,41.20701635159924,29.07533761282497,172.748,-1,-1,5.74967098236084,48.00724964208526,-9999,9575.545713125,0.9576873779296875,0.081146240234375,-0.16351318359375,9575.540647125001,0.7777902703976172,1.411908363204723,-0.09069933360385975,-0.001393275801092386,0.0003404691815376282,-0.01413277164101601,-0.02033388614654541,-0.00680224597454071,-0.007358372211456299,2,0.2776579980513982,-0.5866183419049553,-0.2610313558325006,-0.7145960056061881,0.9833451509475708,0.09057503193616867,-0.1575699150562286,23.69208526611328,-10.4480094909668,9.649078369140625,2,9573.947178916667,2,2,1580905858.188345,1580903939.50652,1577,0.4102195,0,0,2131.439,1,0,1580905796.492468,9572.20291,0,12.51666,97.05779
1580905859.793941,127,0,1580904337.000819,41.20701635159924,29.07533761282497,172.748,-1,-1,5.74967098236084,48.00724964208526,-9999,9575.555753125,0.9615325927734375,0.0854949951171875,-0.1577911376953125,9575.550687125,0.7778048830665911,1.411972127578417,-0.09081298725528572,-0.003522314131259918,0.008574686944484711,-0.01300450414419174,-0.02729177474975586,-0.009692683815956116,-0.007407546043395996,2,0.2777099166125693,-0.5866211747209238,-0.2609929059448864,-0.7145876374973454,0.983345091342926,0.09068821370601654,-0.157505601644516,23.74554443359375,-10.02609634399414,9.49774169921875,2,9573.947178916667,2,2,1580905858.188345,1580903939.50652,1577,0.4102195,0,0,2131.439,1,0,1580905796.492468,9573.144584,0,12.51666,97.05779
1580905859.795165,128,0,1580904337.000819,41.20701635159924,29.07533761282497,172.748,-1,-1,5.74967098236084,48.00724964208526,-9999,9575.565793125001,0.963165283203125,0.0924530029296875,-0.1585235595703125,9575.560727125001,0.7778361023653538,1.411975684485986,-0.09088212103061144,-0.004416869953274727,0.0003263447433710098,-0.00661158561706543,-0.02344101667404175,-0.005412951111793518,-0.001690208911895752,2,0.2777434963978339,-0.5866071975260647,-0.2609823774551905,-0.7145898143429534,0.9833393692970276,0.09075706452131271,-0.1575010865926743,23.74554443359375,-10.02609634399414,9.49774169921875,2,9573.947178916667,2,2,1580905858.188345,1580903939.50652,1577,0.4102195,0,0,2131.439,1,0,1580905796.492468,9573.144584,0,12.51666,97.05779
1580905859.799179,129,0,1580904337.000819,41.20701635159924,29.07533761282497,172.748,-1,-1,5.74967098236084,48.00724964208526,-9999,9575.575834125,0.956939697265625,0.09381103515625,-0.1631011962890625,9575.570768125001,0.7778499648697603,1.411940543917646,-0.09091621837789669,-0.001954327803105116,-0.00327606126666069,-0.003745754715055227,-0.02179980278015137,0.001511052250862122,-0.002388596534729004,2,0.2777547783449178,-0.5865873373509243,-0.2609817629356323,-0.7146019570642015,0.9833307862281799,0.09079102426767349,-0.1575351506471634,23.56037902832031,-10.05341339111328,9.494720458984375,2,9573.947178916667,2,2,1580905858.188345,1580903939.50652,1577,0.4102195,0,0,2131.439,1,0,1580905796.492468,9573.144584,0,12.51666,97.05779
1580905859.80921,130,0,1580904337.000819,41.20701635159924,29.07533761282497,172.748,-1,-1,5.74967098236084,48.00724964208526,-9999,9575.585874125001,0.9546356201171875,0.083831787109375,-0.165985107421875,9575.580838125001,0.7778539906725411,1.411956974739049,-0.09089402710283839,-0.0008152937516570091,0.002401530742645264,0.00157497450709343,-0.02802997827529907,0.002891212701797485,-0.006982028484344482,2,0.2777504131403772,-0.586596152138482,-0.2609877208461093,-0.7145942701143846,0.9833353757858276,0.09076891839504242,-0.1575193256139755,23.56037902832031,-10.05341339111328,9.494720458984375,2,9573.947178916667,2,2,1580905858.188345,1580903939.50652,1577,0.4102195,0,0,2131.439,1,0,1580905796.492468,9573.144584,0,12.51666,97.05779
1580905859.819369,131,0,1580904337.000819,41.20701635159924,29.07533761282497,172.748,-1,-1,5.74967098236084,48.00724964208526,-9999,9575.595914125,0.969268798828125,0.0774383544921875,-0.16375732421875,9575.590879125,0.7778427974395633,1.412042521783927,-0.09084316229222855,0.001601890660822392,0.01091903634369373,0.004013575613498688,-0.03035217523574829,-0.007037252187728882,-0.00994950532913208,2,0.2777406746804358,-0.5866362991803463,-0.2609874297818529,-0.7145652455763187,0.9833534955978394,0.09071826934814453,-0.1574359387159348,23.70301818847656,-10.2488899230957,9.544952392578125,2,9573.947178916667,2,2,1580905858.188345,1580903939.50652,1577,0.4102195,0,0,2131.439,1,0,1580905796.492468,9573.144584,0,12.51666,97.05779
1580905859.851759,132,0,1580904337.000819,41.20701635159924,29.07533761282497,172.748,-1,-1,5.74967098236084,48.00724964208526,-9999,9575.605954125,0.9790191650390625,0.081573486328125,-0.157257080078125,9575.600919125001,0.7778581107598226,1.412044946673232,-0.09084977417989758,-0.00356517406180501,0.0009348448365926743,-0.0005193906836211681,-0.01571887731552124,-0.01343725621700287,-0.007724225521087646,2,0.2777477510482688,-0.5866340004219928,-0.2609905421063358,-0.7145633072452788,0.983353316783905,0.09072484821081161,-0.1574334800243378,23.70301818847656,-10.2488899230957,9.544952392578125,2,9573.947178916667,2,2,1580905858.188345,1580903939.50652,1577,0.4102195,0,0,2131.439,1,0,1580905796.492468,9573.144584,0,12.51666,97.05779
1580905859.85311,133,0,1580904337.000819,41.20701635159924,29.07533761282497,172.748,-1,-1,5.74967098236084,48.00724964208526,-9999,9575.615995125001,0.9729461669921875,0.0911102294921875,-0.1592254638671875,9575.610959125001,0.7778477851942406,1.411955697163945,-0.0909084519412208,0.0006023896858096123,-0.007175514474511147,-0.006546338088810444,-0.00594937801361084,-0.009360715746879578,-0.001137018203735352,2,0.2777533699157875,-0.5865942927035781,-0.2609812707132163,-0.7145971534129058,0.9833340644836426,0.09078329056501389,-0.1575203984975815,23.62434387207031,-10.29779434204102,9.451019287109375,2,9573.947178916667,2,2,1580905858.188345,1580903939.50652,1577,0.4102195,0,0,2131.439,1,0,1580905796.492468,9573.144584,0,12.51666,97.05779
1580905859.854378,134,0,1580904337.000819,41.20701635159924,29.07533761282497,172.748,-1,-1,5.74967098236084,48.00724964208526,-9999,9575.626035125,0.975006103515625,0.092803955078125,-0.1600799560546875,9575.621000125,0.7778186358867339,1.411757840572406,-0.0909765773835345,0.001611994579434395,-0.01995842158794403,-0.006804664619266987,-0.01198506355285645,0.0001080632209777832,-0.002911925315856934,2,0.2777426648791564,-0.58651687665158,-0.2609774432676223,-0.7146660040062854,0.9832965135574341,0.09085112810134888,-0.1577139347791672,23.62434387207031,-10.29779434204102,9.451019287109375,2,9573.947178916667,2,2,1580905858.188345,1580903939.50652,1577,0.4102195,0,0,2131.439,1,0,1580905796.492468,9573.144584,0,12.51666,97.05779
1580905859.859498,135,0,1580904337.000819,41.20701635159924,29.07533761282497,172.748,-1,-1,5.74967098236084,48.00724964208526,-9999,9575.636075125001,0.958770751953125,0.08154296875,-0.163330078125,9575.631040125001,0.7777661723286126,1.411574543809576,-0.09107257978696173,0.003906278870999813,-0.01613452099263668,-0.01101064309477806,-0.009887576103210449,0.001706019043922424,-0.003586828708648682,2,0.2777365062090137,-0.5864435326561761,-0.2609547549032216,-0.7147371408621797,0.9832592606544495,0.0909467339515686,-0.1578928381204605,23.548095703125,-10.13933944702148,9.595550537109375,2,9573.947178916667,2,2,1580905858.188345,1580903939.50652,1577,0.4102195,0,0,2131.439,1,0,1580905796.492468,9573.144584,0,12.51666,97.05779
1580905859.869706,136,0,1580904337.000819,41.20701635159924,29.07533761282497,172.748,-1,-1,5.74967098236084,48.00724964208526,-9999,9575.646146125,0.964874267578125,0.0777587890625,-0.1621856689453125,9575.641080125,0.7777211155500625,1.411427924304575,-0.0911784066537653,0.003168316558003426,-0.01325644180178642,-0.01152889430522919,-0.02609014511108398,-0.009660527110099792,-0.00669407844543457,2,0.2777408066073329,-0.5863806888705925,-0.2609265922225966,-0.7147972933535705,0.9832265973091125,0.09105212241411209,-0.1580354571342468,23.548095703125,-10.13933944702148,9.595550537109375,2,9573.947178916667,2,2,1580905858.188345,1580903939.50652,1577,0.4102195,0,0,2131.439,1,0,1580905796.492468,9573.144584,0,12.51666,97.05779
1580905859.879598,137,0,1580904337.000819,41.20701635159924,29.07533761282497,172.748,-1,-1,5.74967098236084,48.00724964208526,-9999,9575.656186125001,0.965057373046875,0.08203125,-0.1623382568359375,9575.651120125001,0.7776891139100222,1.411254811449482,-0.09133384387900285,0.002293124794960022,-0.01730529591441154,-0.01741544157266617,-0.01994514465332031,-0.01359976828098297,-0.005381464958190918,2,0.2777626629330744,-0.586298725421003,-0.2608915782482801,-0.7148687835041043,0.9831851720809937,0.09120691567659378,-0.1582034081220627,23.62792205810547,-10.23034286499023,9.61712646484375,2,9573.947178916667,2,2,1580905858.188345,1580903939.50652,1577,0.4102195,0,0,2131.439,1,0,1580905796.492468,9573.144584,0,12.51666,97.05779
1580905859.908826,138,0,1580904337.000819,41.20701635159924,29.07533761282497,172.748,-1,-1,5.74967098236084,48.00724964208526,-9999,9575.666227125001,0.9645233154296875,0.091949462890625,-0.167816162109375,9575.661161125001,0.7776674714760587,1.411102753982725,-0.09151304219100527,-0.0004693726077675819,-0.01586479321122169,-0.01781331747770309,-0.01972192525863647,-0.00950603187084198,-0.005387246608734131,2,0.2777985648910313,-0.5862190821466293,-0.2608500625524803,-0.714935177760281,0.9831448197364807,0.0913853645324707,-0.1583502888679504,23.62792205810547,-10.23034286499023,9.61712646484375,2,9573.947178916667,2,2,1580905858.188345,1580903939.50652,1577,0.4102195,0,0,2131.439,1,0,1580905796.492468,9573.144584,0,12.51666,97.05779
1580905859.91038,139,0,1580904337.000819,41.20701635159924,29.07533761282497,172.748,-1,-1,5.74967098236084,48.00724964208526,-9999,9575.676267125,0.96014404296875,0.0899505615234375,-0.167327880859375,9575.671201125,0.7776332630115096,1.411080316556561,-0.09168469941230876,0.001336198300123215,0.0005577187985181808,-0.01756196841597557,-0.02023684978485107,0.0002409070730209351,-0.01084542274475098,2,0.2778450475821259,-0.5861887107871787,-0.2607883687365943,-0.7149645110008674,0.9831257462501526,0.09155630320310593,-0.158369854092598,23.67946624755859,-10.03793716430664,9.4527587890625,2,9573.947178916667,2,2,1580905858.188345,1580903939.50652,1577,0.4102195,0,0,2131.439,1,0,1580905796.492468,9573.144584,0,12.51666,97.05779
1580905859.911483,140,0,1580904337.000819,41.20701635159924,29.07533761282497,172.748,-1,-1,5.74967098236084,48.00724964208526,-9999,9575.686307125001,0.9696044921875,0.082672119140625,-0.162261962890625,9575.681241125001,0.7776253315436279,1.411129274127563,-0.09187583185615311,-0.002805816475301981,0.008044663816690445,-0.02085310406982899,-0.02460670471191406,-0.001948624849319458,-0.01040816307067871,2,0.2779152585997412,-0.5861771379353922,-0.2607201852216229,-0.7149716352190402,0.9831162691116333,0.09174662828445435,-0.1583189368247986,23.67946624755859,-10.03793716430664,9.4527587890625,2,9573.947178916667,2,2,1580905858.188345,1580903939.50652,1577,0.4102195,0,0,2131.439,1,0,1580905796.492468,9573.144584,0,12.51666,97.05779
1580905859.919919,141,0,1580904337.000819,41.20701635159924,29.07533761282497,172.748,-1,-1,5.74967098236084,48.00724964208526,-9999,9575.696347125,0.973480224609375,0.0829925537109375,-0.15679931640625,9575.691312125,0.7776174241462818,1.411093649824682,-0.09207936227965521,-0.001160728745162487,-0.002765236422419548,-0.02082402259111404,-0.01512205600738525,-0.009430050849914551,-0.005310237407684326,2,0.2779787732183849,-0.5861333542787097,-0.2606599559195869,-0.7150047536386149,0.9830921292304993,0.09194929897785187,-0.1583509892225266,23.65070343017578,-9.95355224609375,9.62432861328125,2,9573.947178916667,2,2,1580905858.188345,1580903939.50652,1577,0.4102195,0,0,2131.439,1,0,1580905796.492468,9573.144584,0,12.51666,97.05779
1580905859.929642,142,0,1580904337.000819,41.20701635159924,29.07533761282497,172.748,-1,-1,5.74967098236084,48.00724964208526,-9999,9575.706388125001,0.95916748046875,0.0826416015625,-0.1568145751953125,9575.701352125001,0.7776463127575766,1.410963634476354,-0.09231528015893069,-0.006664151325821877,-0.01407168712466955,-0.02280141785740852,-0.01120424270629883,-0.009344920516014099,0.0002769827842712402,2,0.2780519666587972,-0.5860455881885045,-0.2606160854330202,-0.7150642284215379,0.9830501079559326,0.09218421578407288,-0.1584753394126892,23.65070343017578,-9.95355224609375,9.62432861328125,2,9573.947178916667,2,2,1580905858.188345,1580903939.50652,1577,0.4102195,0,0,2131.439,1,0,1580905796.492468,9573.144584,0,12.51666,97.05779
1580905859.939832,143,0,1580904337.000819,41.20701635159924,29.07533761282497,172.748,-1,-1,5.74967098236084,48.00724964208526,-9999,9575.716428125001,0.9665985107421875,0.0937042236328125,-0.1681365966796875,9575.711393125001,0.7776726798033579,1.410864867939682,-0.09252970833951518,-0.007046475075185299,-0.01027623284608126,-0.02043978311121464,-0.02548182010650635,-0.009909719228744507,0.000355839729309082,2,0.2781210235409133,-0.5859727333468534,-0.2605735646329736,-0.715112672187596,0.9830150008201599,0.09239772707223892,-0.1585693061351776,23.54246520996094,-10.00040817260742,9.605499267578125,2,9573.947178916667,2,2,1580905858.188345,1580903939.50652,1577,0.4102195,0,0,2131.439,1,0,1580905796.492468,9573.144584,0,12.51666,97.05779
1580905859.974243,144,0,1580904337.000819,41.20701635159924,29.07533761282497,172.748,-1,-1,5.74967098236084,48.00724964208526,-9999,9575.726468125,0.9556427001953125,0.0955047607421875,-0.161590576171875,9575.721433125,0.7776628738258429,1.41081726776766,-0.09269205379116432,-0.0006668725982308388,-0.0002654101699590683,-0.01676169037818909,-0.01802825927734375,0.0009909570217132568,-0.0109216570854187,2,0.2781681754460188,-0.5859314134555351,-0.2605269411964607,-0.7151451020011351,0.9829925894737244,0.09255938231945038,-0.1586136966943741,23.54246520996094,-10.00040817260742,9.605499267578125,2,9573.947178916667,2,2,1580905858.188345,1580903939.50652,1577,0.4102195,0,0,2131.439,1,0,1580905796.492468,9573.144584,0,12.51666,97.05779
1580905859.975488,145,0,1580904337.000819,41.20701635159924,29.07533761282497,172.748,-1,-1,5.74967098236084,48.00724964208526,-9999,9575.736509125001,0.9707489013671875,0.0891571044921875,-0.161407470703125,9575.731473125001,0.7776708249325385,1.410676623001025,-0.09279169491400696,-0.003275134600698948,-0.01525028049945831,-0.01123307459056377,-0.02895259857177734,0.002692118287086487,-0.004238605499267578,2,0.2781866644427691,-0.5858642680107238,-0.2605188264185577,-0.7151959196383398,0.9829611778259277,0.09265859425067902,-0.1587504744529724,23.67456817626953,-9.979862213134766,9.67669677734375,2,9573.947178916667,2,2,1580905858.188345,1580903939.50652,1577,0.4102195,0,0,2131.439,1,0,1580905796.492468,9573.144584,0,12.51666,97.05779
1580905859.976535,146,0,1580904337.000819,41.20701635159924,29.07533761282497,172.748,-1,-1,5.74967098236084,48.00724964208526,-9999,9575.746549125,0.9637298583984375,0.082794189453125,-0.160797119140625,9575.741514125,0.7776609435350589,1.410507243043583,-0.09283960970313308,0.000805094838142395,-0.01375598087906837,-0.004734162706881762,-0.01381510496139526,-0.003703325986862183,-0.00388944149017334,2,0.2781782855256686,-0.58579749744626,-0.2605241772256904,-0.7152519496869161,0.9829299449920654,0.09270630031824112,-0.1589162647724152,23.67456817626953,-9.979862213134766,9.67669677734375,2,9573.947178916667,2,2,1580905858.188345,1580903939.50652,1577,0.4102195,0,0,2131.439,1,0,1580905796.492468,9573.144584,0,12.51666,97.05779
1580905859.980056,147,0,1580904337.000819,41.20701635159924,29.07533761282497,172.748,-1,-1,5.74967098236084,48.00724964208526,-9999,9575.756620125001,0.9698638916015625,0.084228515625,-0.161102294921875,9575.751554125001,0.7776758774162433,1.410237899960025,-0.09291659338534547,-0.003104713745415211,-0.02662381157279015,-0.007554130628705025,-0.02078425884246826,-0.01014305651187897,-0.003015279769897461,2,0.2781742765781335,-0.5856869076434497,-0.260543393138485,-0.715336919934734,0.9828798770904541,0.09278295189142227,-0.1591798365116119,23.72572326660156,-9.935218811035156,9.805084228515625,2,9573.947178916667,2,2,1580905858.188345,1580903939.50652,1577,0.4102195,0,0,2131.439,1,0,1580905796.492468,9573.144584,0,12.51666,97.05779
1580905859.989944,148,0,1580904337.000819,41.20701635159924,29.07533761282497,172.748,-1,-1,5.74967098236084,48.00724964208526,-9999,9575.766660125,0.96783447265625,0.0906524658203125,-0.164642333984375,9575.761594125001,0.7776891876508218,1.409942761913545,-0.09298698745198644,-0.001237571239471436,-0.0291434284299612,-0.00682069594040513,-0.01459676027297974,-0.00877891480922699,-0.003030896186828613,2,0.2781640648909467,-0.5855683637801006,-0.2605676534599527,-0.7154292041202456,0.9828265309333801,0.09285303950309753,-0.1594688892364502,23.72572326660156,-9.935218811035156,9.805084228515625,2,9573.947178916667,2,2,1580905858.188345,1580903939.50652,1577,0.4102195,0,0,2131.439,1,0,1580905796.492468,9573.144584,0,12.51666,97.05779
1580905860.000126,149,0,1580904337.000819,41.20701635159924,29.07533761282497,172.748,-1,-1,5.74967098236084,48.00724964208526,-9999,9575.776700125001,0.95989990234375,0.0897064208984375,-0.168243408203125,9575.771634125,0.7777128991312301,1.409716987386336,-0.09305289487900453,-0.003176392056047916,-0.02242424711585045,-0.007348315324634314,-0.01658415794372559,-0.002420708537101746,-0.006349682807922363,2,0.2781643948179349,-0.5854738793750245,-0.2605873610537228,-0.7154992846533379,0.9827845096588135,0.09291866421699524,-0.1596898138523102,23.73164367675781,-9.929878234863281,9.519866943359375,2,9573.947178916667,2,2,1580905858.188345,1580903939.50652,1577,0.4102195,0,0,2131.439,1,0,1580905796.492468,9573.144584,0,12.51666,97.05779
1580905860.018621,150,0,1580904337.000819,41.20701635159924,29.07533761282497,172.748,-1,-1,5.74967098236084,48.00724964208526,-9999,9575.786741125001,0.9627838134765625,0.0869140625,-0.1674957275390625,9575.781675125001,0.7777557525357948,1.409617428809773,-0.09307697716117817,-0.004775620065629482,-0.008419482037425041,-0.001913602463901043,-0.02450048923492432,-0.00339081883430481,-0.009853065013885498,2,0.2781723267276037,-0.5854284875911695,-0.2606091623050029,-0.7155253415470695,0.982766330242157,0.09294264018535614,-0.1597872823476791,23.73164367675781,-9.929878234863281,9.519866943359375,2,9573.947178916667,2,2,1580905858.188345,1580903939.50652,1577,0.4102195,0,0,2131.439,1,0,1580905796.492468,9573.144584,0,12.51666,97.05779
1580905860.04065,151,0,1580904337.000819,41.20701635159924,29.07533761282497,172.748,-1,-1,5.74967098236084,48.00724964208526,-9999,9575.796781125,0.962249755859375,0.0897216796875,-0.1638031005859375,9575.791715125,0.7777952644287121,1.409552724594093,-0.0930957006323662,-0.004143269266933203,-0.005272546783089638,-0.001698792446404696,-0.02160453796386719,-0.006201788783073425,-0.009042024612426758,2,0.278181944643315,-0.5853968809759046,-0.2606265659861025,-0.7155411241296873,0.9827542901039124,0.09296128153800964,-0.1598505973815918,23.89589691162109,-10.0222282409668,9.621551513671875,2,9573.947178916667,2,2,1580905858.188345,1580903939.50652,1577,0.4102195,0,0,2131.439,1,0,1580905796.492468,9573.144584,0,12.51666,97.05779
1580905860.041929,152,0,1580904337.000819,41.20701635159924,29.07533761282497,172.748,-1,-1,5.74967098236084,48.00724964208526,-9999,9575.806821125001,0.9721832275390625,0.091400146484375,-0.16387939453125,9575.801786125001,0.7778359404486193,1.40940820171364,-0.09311871581566124,-0.004211179912090302,-0.01449640560895205,-0.0005746721290051937,-0.02211320400238037,-0.003417134284973145,-0.005207479000091553,2,0.2781830000283306,-0.5853358715232756,-0.2606541728358228,-0.7155805268689537,0.9827290177345276,0.09298419952392578,-0.1599922776222229,23.89589691162109,-10.0222282409668,9.621551513671875,2,9573.947178916667,2,2,1580905858.188345,1580903939.50652,1577,0.4102195,0,0,2131.439,1,0,1580905796.492468,9573.144584,0,12.51666,97.05779
1580905860.04271,153,0,1580904337.000819,41.20701635159924,29.07533761282497,172.748,-1,-1,5.74967098236084,48.00724964208526,-9999,9575.816861125,0.9593505859375,0.08660888671875,-0.1629638671875,9575.811826125,0.7778571592170305,1.409248715043374,-0.09314868245745882,-0.001676500309258699,-0.01436678506433964,-0.002927792258560658,-0.01215130090713501,-0.001768544316291809,-0.005127012729644775,2,0.278178783300788,-0.5852711181507273,-0.2606747791009265,-0.7156276829067584,0.9827008247375488,0.09301403909921646,-0.160148561000824,23.78456115722656,-10.08113479614258,9.516754150390625,2,9573.947178916667,2,2,1580905858.188345,1580903939.50652,1577,0.4102195,0,0,2131.439,1,0,1580905796.492468,9573.144584,0,12.51666,97.05779
1580905860.050194,154,0,1580904337.000819,41.20701635159924,29.07533761282497,172.748,-1,-1,5.74967098236084,48.00724964208526,-9999,9575.826902125,0.9618072509765625,0.084197998046875,-0.165191650390625,9575.821866125001,0.7778667751489262,1.409107979084136,-0.09315004061890213,-0.001417641062289476,-0.01428529247641563,-0.000324019230902195,-0.02496123313903809,-0.006561145186424255,-0.004072964191436768,2,0.2781637247933524,-0.5852192068475536,-0.2606973783375426,-0.715667752694287,0.9826781153678894,0.0930153876543045,-0.1602868437767029,23.78456115722656,-10.08113479614258,9.516754150390625,2,9573.947178916667,2,2,1580905858.188345,1580903939.50652,1577,0.4102195,0,0,2131.439,1,0,1580905796.492468,9573.144584,0,12.51666,97.05779
1580905860.060315,155,0,1580904337.000819,41.20701635159924,29.07533761282497,172.748,-1,-1,5.74967098236084,48.00724964208526,-9999,9575.836942125001,0.96099853515625,0.085205078125,-0.1640625,9575.831907125001,0.7778861586231262,1.408997183506821,-0.09311698860185096,-0.002743469551205635,-0.01146654691547155,0.003859451040625572,-0.02248972654342651,-0.008939102292060852,-0.00619131326675415,2,0.2781435395001177,-0.5851820866614187,-0.260729832260473,-0.7156940193275091,0.9826632738113403,0.09298247843980789,-0.1603961884975433,23.90190887451172,-10.02318954467773,9.691314697265625,2,9573.947178916667,2,2,1580905858.188345,1580903939.50652,1577,0.4102195,0,0,2131.439,1,0,1580905796.492468,9573.144584,0,12.51666,97.05779
1580905860.088786,156,0,1580904337.000819,41.20701635159924,29.07533761282497,172.748,-1,-1,5.74967098236084,48.00724964208526,-9999,9575.846982125,0.9665069580078125,0.0933685302734375,-0.163726806640625,9575.841947125,0.7778835660773363,1.408904576382171,-0.09310830055360225,0.000194263644516468,-0.00770989153534174,-5.912501364946365e-05,-0.02328437566757202,-0.007923319935798645,-0.004970729351043701,2,0.2781276800326752,-0.5851506863707462,-0.2607444455160658,-0.7157205872820521,0.9826492667198181,0.09297382831573486,-0.1604873389005661,23.90190887451172,-10.02318954467773,9.691314697265625,2,9573.947178916667,2,2,1580905858.188345,1580903939.50652,1577,0.4102195,0,0,2131.439,1,0,1580905796.492468,9573.144584,0,12.51666,97.05779
1580905860.089777,157,0,1580904337.000819,41.20701635159924,29.07533761282497,172.748,-1,-1,5.74967098236084,48.00724964208526,-9999,9575.857046500001,0.9651641845703125,0.0946197509765625,-0.1635589599609375,9575.851987125001,0.777862635450297,1.40879261343266,-0.09309708647860354,0.002445925958454609,-0.009735174477100372,0.001791239716112614,-0.01775896549224854,0.0002512931823730469,-0.004524827003479004,2,0.2781030819851947,-0.5851153019042298,-0.2607559545432774,-0.7157548565174585,0.9826322793960571,0.09296266734600067,-0.1605975180864334,23.69664001464844,-10.08385848999023,9.4840087890625,2,9573.947178916667,2,2,1580905858.188345,1580903939.50652,1577,0.4102195,0,0,2131.439,1,0,1580905796.492468,9573.144584,0,12.51666,97.05779
1580905860.090793,158,0,1580904337.000819,41.20701635159924,29.07533761282497,172.748,-1,-1,5.74967098236084,48.00724964208526,-9999,9575.867116500001,0.963897705078125,0.08868408203125,-0.1593475341796875,9575.8620505,0.7778440320180897,1.408670086147748,-0.09308185124691953,0.001453098841011524,-0.007948460057377815,0.001435174606740475,-0.01908338069915771,0.001517713069915771,-0.004236042499542236,2,0.2780763824349003,-0.58507644963659,-0.2607709959436676,-0.7157915194941111,0.9826140403747559,0.09294749796390533,-0.1607181429862976,23.69664001464844,-10.08385848999023,9.4840087890625,2,9573.947178916667,2,2,1580905858.188345,1580903939.50652,1577,0.4102195,0,0,2131.439,1,0,1580905796.492468,9573.144584,0,12.51666,97.05779
1580905860.10062,159,0,1580904337.000819,41.20701635159924,29.07533761282497,172.748,-1,-1,5.74967098236084,48.00724964208526,-9999,9575.877157500001,0.9685211181640625,0.0834808349609375,-0.1596527099609375,9575.872091500001,0.7778186307676522,1.408453791070494,-0.09307336079797721,0.002923664636909962,-0.02077397145330906,0.0005660094320774078,-0.02031570672988892,-0.004409492015838623,0.0001885890960693359,2,0.2780377798310547,-0.5850039162655204,-0.2607945788043992,-0.7158572876581637,0.9825801253318787,0.09293904155492783,-0.1609308272600174,23.67966461181641,-9.906291961669922,9.51300048828125,2,9573.947178916667,2,2,1580905858.188345,1580903939.50652,1577,0.4102195,0,0,2131.439,1,0,1580905796.492468,9573.144584,0,12.51666,97.05779
1580905860.110549,160,0,1580904337.000819,41.20701635159924,29.07533761282497,172.748,-1,-1,5.74967098236084,48.00724964208526,-9999,9575.8871975,0.962982177734375,0.087432861328125,-0.1612701416015625,9575.8821315,0.7777983786433791,1.408198828180057,-0.09307526569915887,0.001748410984873772,-0.02364698983728886,-0.0007573156617581844,-0.01565098762512207,-0.009614631533622742,0.0001339912414550781,2,0.27799932642401,-0.5849151537531101,-0.2608221777638012,-0.7159345171522032,0.9825387001037598,0.09294094145298004,-0.1611812710762024,23.70903778076172,-9.82171630859375,9.504302978515625,2,9573.947178916667,2,2,1580905858.188345,1580903939.50652,1577,0.4102195,0,0,2131.439,1,0,1580905796.492468,9573.144584,0,12.51666,97.05779
