loggingTime,loggingSample,identifierForVendor,locationTimestamp_since1970,locationLatitude,locationLongitude,locationAltitude,locationSpeed,locationCourse,locationVerticalAccuracy,locationHorizontalAccuracy,locationFloor,accelerometerTimestamp_sinceReboot,accelerometerAccelerationX,accelerometerAccelerationY,accelerometerAccelerationZ,motionTimestamp_sinceReboot,motionYaw,motionRoll,motionPitch,motionRotationRateX,motionRotationRateY,motionRotationRateZ,motionUserAccelerationX,motionUserAccelerationY,motionUserAccelerationZ,motionAttitudeReferenceFrame,motionQuaternionX,motionQuaternionY,motionQuaternionZ,motionQuaternionW,motionGravityX,motionGravityY,motionGravityZ,motionMagneticFieldX,motionMagneticFieldY,motionMagneticFieldZ,motionMagneticFieldCalibrationAccuracy,activityTimestamp_sinceReboot,activity,activityActivityConfidence,activityActivityStartDate,pedometerStartDate,pedometerNumberofSteps,pedometerAverageActivePace,pedometerCurrentPace,pedometerCurrentCadence,pedometerDistance,pedometerFloorAscended,pedometerFloorDescended,pedometerEndDate,altimeterTimestamp_sinceReboot,altimeterReset,altimeterRelativeAltitude,altimeterPressure
1580904702.026916,1,0,1580904337.000819,41.20701635159924,29.07533761282497,172.748,-1,-1,5.74967098236084,48.00724964208526,-9999,8417.7740335,0.9643096923828125,0.0886993408203125,-0.1732025146484375,8417.7689985,3.059789555112844,1.380202761764346,-0.0815242821778812,0.00103190029039979,0.007851351052522659,0.005841340869665146,-0.01301825046539307,0.009647496044635773,0.017566978931427,2,-0.6368395930275409,-0.005390349123187171,0.768835623706394,0.05742845102508058,0.9786308407783508,0.08143400400876999,-0.1888125538825989,29.82201385498047,12.44125175476074,16.40866088867188,2,8417.010743500001,4,2,1580904701.25191,1580903939.50652,256,0.6844584,0,0,248.2692,1,0,1580904698.683142,8414.927911999999,0,4.1828,97.15452
1580904702.053939,2,0,1580904337.000819,41.20701635159924,29.07533761282497,172.748,-1,-1,5.74967098236084,48.00724964208526,-9999,8417.784073500001,0.96160888671875,0.0865936279296875,-0.1762847900390625,8417.779038500001,3.059787711508353,1.380323051987218,-0.08148657973620435,0.001506209839135408,0.01280376687645912,0.00357818603515625,-0.01469194889068604,0.007274210453033447,0.01520675420761108,2,-0.6368857343688011,-0.005371775752634159,0.7687983348240215,0.05741752553433412,0.978656530380249,0.0813964307308197,-0.188695415854454,29.92454528808594,12.58039093017578,16.60971069335938,2,8417.010743500001,4,2,1580904701.25191,1580903939.50652,256,0.6844584,0,0,248.2692,1,0,1580904698.683142,8414.927911999999,0,4.1828,97.15452
1580904702.055405,3,0,1580904337.000819,41.20701635159924,29.07533761282497,172.748,-1,-1,5.74967098236084,48.00724964208526,-9999,8417.7941145,0.96649169921875,0.0882110595703125,-0.1722259521484375,8417.7890785,3.059773428814917,1.380421643246289,-0.0814697420135304,0.002171314787119627,0.01113404892385006,0.001968539319932461,-0.01741272211074829,0.005185283720493317,0.01202821731567383,2,-0.6369236203607798,-0.005357905584081127,0.7687670438381025,0.05741794122788051,0.9786764979362488,0.08137965202331543,-0.1885991841554642,29.92454528808594,12.58039093017578,16.60971069335938,2,8417.010743500001,4,2,1580904701.25191,1580903939.50652,256,0.6844584,0,0,248.2692,1,0,1580904698.683142,8414.927911999999,0,4.1828,97.15452
1580904702.056826,4,0,1580904337.000819,41.20701635159924,29.07533761282497,172.748,-1,-1,5.74967098236084,48.00724964208526,-9999,8417.8041545,0.9668731689453125,0.088531494140625,-0.1715545654296875,8417.799118500001,3.059739634128906,1.38042848879721,-0.08145509532397487,0.004561235662549734,0.0006422605365514755,0.001366131938993931,-0.01253235340118408,0.006817340850830078,0.01608079671859741,2,-0.6369262939173659,-0.005341298116579365,0.7687643955028698,0.0574263077379249,0.9786790609359741,0.08136504888534546,-0.1885927319526672,29.94497680664062,12.58600234985352,16.76007080078125,2,8417.010743500001,4,2,1580904701.25191,1580903939.50652,256,0.6844584,0,0,248.2692,1,0,1580904698.683142,8414.927911999999,0,4.1828,97.15452
1580904702.057971,5,0,1580904337.000819,41.20701635159924,29.07533761282497,172.748,-1,-1,5.74967098236084,48.00724964208526,-9999,8417.814194500001,0.9622039794921875,0.089019775390625,-0.1743621826171875,8417.809159500001,3.059711406386599,1.380389276571477,-0.08144120432606074,0.002108616288751364,-0.004765639081597328,0.0009909253567457199,-0.01214462518692017,0.007151618599891663,0.01679062843322754,2,-0.6369112644075523,-0.005328083515446183,0.7687763912184299,0.05743264396715883,0.9786726832389832,0.08135120570659637,-0.1886313110589981,29.94497680664062,12.58600234985352,16.76007080078125,2,8417.010743500001,4,2,1580904701.25191,1580903939.50652,256,0.6844584,0,0,248.2692,1,0,1580904698.683142,8414.927911999999,0,4.1828,97.15452
1580904702.05901,6,0,1580904337.000819,41.20701635159924,29.07533761282497,172.748,-1,-1,5.74967098236084,48.00724964208526,-9999,8417.8242345,0.96197509765625,0.0898895263671875,-0.1751251220703125,8417.8191995,3.059658763401013,1.380364153337544,-0.08140848543939029,0.006342510227113962,-0.002488370984792709,0.001990143209695816,-0.01681172847747803,0.007672511041164398,0.01400810480117798,2,-0.6369016491671726,-0.005299426735822954,0.7687838827407667,0.05744243816669048,0.978670597076416,0.08131859451532364,-0.1886564046144485,29.85836791992188,12.59636688232422,16.58712768554688,2,8417.010743500001,4,2,1580904701.25191,1580903939.50652,256,0.6844584,0,0,248.2692,1,0,1580904698.683142,8414.927911999999,0,4.1828,97.15452
1580904702.061978,7,0,1580904337.000819,41.20701635159924,29.07533761282497,172.748,-1,-1,5.74967098236084,48.00724964208526,-9999,8417.834275500001,0.965576171875,0.088775634765625,-0.17303466796875,8417.829239500001,3.059609852992887,1.380353194018177,-0.08136104017978729,0.005907284561544657,-0.001150697469711304,0.004518035799264908,-0.01704239845275879,0.008589558303356171,0.01325660943984985,2,-0.636897430215516,-0.00526587779510114,0.7687873362248269,0.05744616237103857,0.9786723256111145,0.08127130568027496,-0.1886678636074066,29.85836791992188,12.59636688232422,16.58712768554688,2,8417.010743500001,4,2,1580904701.25191,1580903939.50652,256,0.6844584,0,0,248.2692,1,0,1580904698.683142,8414.927911999999,0,4.1828,97.15452
1580904702.073765,8,0,1580904337.000819,41.20701635159924,29.07533761282497,172.748,-1,-1,5.74967098236084,48.00724964208526,-9999,8417.8443155,0.965728759765625,0.086761474609375,-0.17266845703125,8417.8392805,3.059577675464792,1.380311688705671,-0.081344666978694,0.002341844607144594,-0.004782715812325478,0.001966195181012154,-0.01343464851379395,0.007491990923881531,0.01538795232772827,2,-0.6368815203150074,-0.005250515083432605,0.7688000204854214,0.05745322568974764,0.9786657094955444,0.0812549889087677,-0.1887087225914001,29.92771911621094,12.52080154418945,16.72064208984375,2,8417.010743500001,4,2,1580904701.25191,1580903939.50652,256,0.6844584,0,0,248.2692,1,0,1580904698.683142,8414.927911999999,0,4.1828,97.15452
1580904702.090903,9,0,1580904337.000819,41.20701635159924,29.07533761282497,172.748,-1,-1,5.74967098236084,48.00724964208526,-9999,8417.854386500001,0.967376708984375,0.0883941650390625,-0.1725921630859375,8417.849320500001,3.059525365295981,1.380256294286752,-0.08136615419683632,0.005414810497313738,-0.004280304536223412,-0.002706570085138083,-0.01326990127563477,0.005456395447254181,0.01580804586410522,2,-0.6368604274845068,-0.005243732893280353,0.7688155145910599,0.0574800020848429,0.9786535501480103,0.08127640187740326,-0.1887626051902771,29.92771911621094,12.52080154418945,16.72064208984375,2,8417.010743500001,4,2,1580904701.25191,1580903939.50652,256,0.6844584,0,0,248.2692,1,0,1580904698.683142,8414.927911999999,0,4.1828,97.15452
1580904702.092149,10,0,1580904337.000819,41.20701635159924,29.07533761282497,172.748,-1,-1,5.74967098236084,48.00724964208526,-9999,8417.8644265,0.9686279296875,0.0893096923828125,-0.17120361328125,8417.859360500001,3.059480394605217,1.380120224913469,-0.08141984256341608,0.003059776965528727,-0.01434226054698229,-0.006296777632087469,-0.01159203052520752,0.007035568356513977,0.01601672172546387,2,-0.6368083860622507,-0.005254018409147132,0.768856075948079,0.05751396187661727,0.978623628616333,0.08132991194725037,-0.1888949424028397,29.97926330566406,12.62453842163086,16.71185302734375,2,8417.010743500001,4,2,1580904701.25191,1580903939.50652,256,0.6844584,0,0,248.2692,1,0,1580904698.683142,8414.927911999999,0,4.1828,97.15452
1580904702.101669,11,0,1580904337.000819,41.20701635159924,29.07533761282497,172.748,-1,-1,5.74967098236084,48.00724964208526,-9999,8417.874466500001,0.96063232421875,0.0897674560546875,-0.17608642578125,8417.8694005,3.059426634036029,1.379962488873594,-0.0814756132184465,0.004539331886917353,-0.01659446768462658,-0.006738112308084965,-0.01030659675598145,0.007895477116107941,0.017558753490448,2,-0.6367480444925072,-0.00526293756093188,0.7689031838482998,0.05755190137199867,0.9785894155502319,0.08138550072908401,-0.1890484541654587,29.97926330566406,12.62453842163086,16.71185302734375,2,8417.010743500001,4,2,1580904701.25191,1580903939.50652,256,0.6844584,0,0,248.2692,1,0,1580904698.683142,8414.927911999999,0,4.1828,97.15452
1580904702.111973,12,0,1580904337.000819,41.20701635159924,29.07533761282497,172.748,-1,-1,5.74967098236084,48.00724964208526,-9999,8417.884507500001,0.9565582275390625,0.088897705078125,-0.1767120361328125,8417.879441500001,3.059381547840761,1.379886511370831,-0.08151078842243402,0.003808560315519571,-0.008253180421888828,-0.004087202250957489,-0.01828497648239136,0.00831817090511322,0.01274979114532471,2,-0.6367190558082385,-0.005264331989073931,0.7689250451777442,0.05758018750797475,0.9785721898078918,0.08142055571079254,-0.1891222596168518,29.89717102050781,12.44778060913086,16.7030029296875,2,8417.010743500001,4,2,1580904701.25191,1580903939.50652,256,0.6844584,0,0,248.2692,1,0,1580904698.683142,8414.927911999999,0,4.1828,97.15452
1580904702.122575,13,0,1580904337.000819,41.20701635159924,29.07533761282497,172.748,-1,-1,5.74967098236084,48.00724964208526,-9999,8417.8945475,0.9595794677734375,0.0878753662109375,-0.1743011474609375,8417.8894815,3.05932628530638,1.379867317914588,-0.08153101894767652,0.005399140063673258,-0.0007588416337966919,-0.003245076164603233,-0.02235394716262817,0.007428228855133057,0.01214241981506348,2,-0.6367118898192982,-0.005255095142285143,0.7689288717348318,0.0576077928081507,0.9785668253898621,0.08144072443246841,-0.1891407072544098,29.89717102050781,12.44778060913086,16.7030029296875,2,8417.010743500001,4,2,1580904701.25191,1580903939.50652,256,0.6844584,0,0,248.2692,1,0,1580904698.683142,8414.927911999999,0,4.1828,97.15452
1580904702.133587,14,0,1580904337.000819,41.20701635159924,29.07533761282497,172.748,-1,-1,5.74967098236084,48.00724964208526,-9999,8417.904587500001,0.9616241455078125,0.0893096923828125,-0.1744384765625,8417.899521500001,3.059272736399957,1.379835139510435,-0.08153268831535294,0.004889410454779863,-0.003803366795182228,-0.0005843117833137512,-0.01932656764984131,0.006404228508472443,0.01458483934402466,2,-0.6366996566239757,-0.005239615225424044,0.7689376059127707,0.0576288291470823,0.9785606861114502,0.08144238591194153,-0.1891721934080124,29.85880279541016,12.52182197570801,16.52670288085938,2,8417.010743500001,4,2,1580904701.25191,1580903939.50652,256,0.6844584,0,0,248.2692,1,0,1580904698.683142,8414.927911999999,0,4.1828,97.15452
1580904702.154495,15,0,1580904337.000819,41.20701635159924,29.07533761282497,172.748,-1,-1,5.74967098236084,48.00724964208526,-9999,8417.9146275,0.958526611328125,0.087677001953125,-0.177642822265625,8417.9095925,3.059217096095679,1.379848269840009,-0.08154608554797822,0.005267924163490534,0.001515958458185196,-0.00206212280318141,-0.01728338003158569,0.007825210690498352,0.01443445682525635,2,-0.6367048861945868,-0.005226687388129952,0.7689314719176248,0.05765450469513377,0.9785621762275696,0.08145573735237122,-0.1891591399908066,29.85880279541016,12.52182197570801,16.52670288085938,2,8417.010743500001,4,2,1580904701.25191,1580903939.50652,256,0.6844584,0,0,248.2692,1,0,1580904698.683142,8414.927911999999,0,4.1828,97.15452
1580904702.155553,16,0,1580904337.000819,41.20701635159924,29.07533761282497,172.748,-1,-1,5.74967098236084,48.00724964208526,-9999,8417.9246685,0.9607696533203125,0.0880126953125,-0.1754608154296875,8417.919632500001,3.059152330371733,1.379897428595686,-0.08157005066473841,0.006147034000605345,0.004824137315154076,-0.003319933544844389,-0.02038836479187012,0.006168603897094727,0.01118147373199463,2,-0.6367240291464376,-0.005213892528438846,0.768913211375157,0.05768712892259484,0.978569507598877,0.08147962391376495,-0.1891106516122818,29.85117340087891,12.54032325744629,16.55624389648438,2,8417.010743500001,4,2,1580904701.25191,1580903939.50652,256,0.6844584,0,0,248.2692,1,0,1580904698.683142,8414.927911999999,0,4.1828,97.15452
1580904702.162096,17,0,1580904337.000819,41.20701635159924,29.07533761282497,172.748,-1,-1,5.74967098236084,48.00724964208526,-9999,8417.934708500001,0.962371826171875,0.08868408203125,-0.174530029296875,8417.929673500001,3.059086518500735,1.379985213894868,-0.08158757104104634,0.005408909637480974,0.009599093347787857,-0.002547112293541431,-0.01816058158874512,0.006486833095550537,0.01327729225158691,2,-0.6367579990715696,-0.00519716103818342,0.768882876244445,0.05771821474701037,0.9785847067832947,0.08149708807468414,-0.1890244781970978,29.85117340087891,12.54032325744629,16.55624389648438,2,8417.010743500001,4,2,1580904701.25191,1580903939.50652,256,0.6844584,0,0,248.2692,1,0,1580904698.683142,8414.927911999999,0,4.1828,97.15452
1580904702.172148,18,0,1580904337.000819,41.20701635159924,29.07533761282497,172.748,-1,-1,5.74967098236084,48.00724964208526,-9999,8417.9447485,0.964202880859375,0.0886383056640625,-0.1749114990234375,8417.9397135,3.059008663795361,1.380076819467805,-0.08162573350024768,0.006824112962931395,0.01007100567221642,-0.00555009301751852,-0.01657259464263916,0.007120199501514435,0.0141180157661438,2,-0.6367935244721339,-0.005184438203125599,0.7688504145772594,0.05776048579645758,0.9785990118980408,0.08153512328863144,-0.188934251666069,29.68501281738281,12.51664352416992,16.48968505859375,2,8417.010743500001,4,2,1580904701.25191,1580903939.50652,256,0.6844584,0,0,248.2692,1,0,1580904698.683142,8414.927911999999,0,4.1828,97.15452
1580904702.182152,19,0,1580904337.000819,41.20701635159924,29.07533761282497,172.748,-1,-1,5.74967098236084,48.00724964208526,-9999,8417.9547895,0.962921142578125,0.0891265869140625,-0.174896240234375,8417.949753500001,3.058949851098864,1.380175755998017,-0.08166392215786428,0.004459856543689966,0.01036641001701355,-0.005030461587011814,-0.01475715637207031,0.007036328315734863,0.01363909244537354,2,-0.6368318219421754,-0.005177575157226347,0.7688161077992438,0.05779546037574705,0.9786146283149719,0.08157318085432053,-0.1888368427753448,29.68501281738281,12.51664352416992,16.48968505859375,2,8417.010743500001,4,2,1580904701.25191,1580903939.50652,256,0.6844584,0,0,248.2692,1,0,1580904698.683142,8414.927911999999,0,4.1828,97.15452
1580904702.193972,20,0,1580904337.000819,41.20701635159924,29.07533761282497,172.748,-1,-1,5.74967098236084,48.00724964208526,-9999,8417.964829500001,0.963134765625,0.0897216796875,-0.1740570068359375,8417.9597935,3.058890690663326,1.380283104169238,-0.0816668710248404,0.006204493809491396,0.01054803654551506,-0.0006130766123533249,-0.01605916023254395,0.007521659135818481,0.01354891061782837,2,-0.6368732501908276,-0.005156771848416425,0.7687801047181697,0.05781941291798737,0.9786346554756165,0.08157612383365631,-0.1887317448854446,29.97441101074219,12.57810592651367,16.5638427734375,2,8417.010743500001,4,2,1580904701.25191,1580903939.50652,256,0.6844584,0,0,248.2692,1,0,1580904698.683142,8414.927911999999,0,4.1828,97.15452
1580904702.215832,21,0,1580904337.000819,41.20701635159924,29.07533761282497,172.748,-1,-1,5.74967098236084,48.00724964208526,-9999,8417.9748695,0.962646484375,0.0894012451171875,-0.174041748046875,8417.9698345,3.058827028867853,1.380377926617066,-0.08165195798275364,0.007067447993904352,0.00947648286819458,0.0008718753233551979,-0.0158647894859314,0.008131593465805054,0.01429539918899536,2,-0.6369098192381691,-0.005128009495705896,0.7687484838986691,0.05783939691150403,0.9786537289619446,0.08156125992536545,-0.1886391639709473,29.97441101074219,12.57810592651367,16.5638427734375,2,8417.010743500001,4,2,1580904701.25191,1580903939.50652,256,0.6844584,0,0,248.2692,1,0,1580904698.683142,8414.927911999999,0,4.1828,97.15452
1580904702.217384,22,0,1580904337.000819,41.20701635159924,29.07533761282497,172.748,-1,-1,5.74967098236084,48.00724964208526,-9999,8417.9849405,0.964691162109375,0.08795166015625,-0.1725006103515625,8417.979874500001,3.058764155653256,1.380423280781809,-0.08162782533446734,0.007075969595462084,0.0038143340498209,0.00136562529951334,-0.01636356115341187,0.007835201919078827,0.01426666975021362,2,-0.6369273422292754,-0.005097373735598335,0.7687329075168813,0.05785602508527224,0.9786641597747803,0.08153720945119858,-0.1885951608419418,29.80982971191406,12.40506744384766,16.43521118164062,2,8417.010743500001,4,2,1580904701.25191,1580903939.50652,256,0.6844584,0,0,248.2692,1,0,1580904698.683142,8414.927911999999,0,4.1828,97.15452
1580904702.222781,23,0,1580904337.000819,41.20701635159924,29.07533761282497,172.748,-1,-1,5.74967098236084,48.00724964208526,-9999,8417.9949805,0.96435546875,0.086883544921875,-0.17230224609375,8417.9899145,3.058702098263986,1.38043214248086,-0.08161715006001116,0.006200588773936033,0.00219007208943367,-0.0003627659752964973,-0.01432144641876221,0.006396271288394928,0.01579928398132324,2,-0.6369308684296766,-0.005073236917122345,0.7687286669865949,0.05787651773487625,0.9786667823791504,0.08152657002210617,-0.1885866671800613,29.80982971191406,12.40506744384766,16.43521118164062,2,8417.010743500001,4,2,1580904701.25191,1580903939.50652,256,0.6844584,0,0,248.2692,1,0,1580904698.683142,8414.927911999999,0,4.1828,97.15452
1580904702.232483,24,0,1580904337.000819,41.20701635159924,29.07533761282497,172.748,-1,-1,5.74967098236084,48.00724964208526,-9999,8418.005020500001,0.9585723876953125,0.0880584716796875,-0.174468994140625,8417.999955500001,3.058639553347265,1.380415690859473,-0.08159018168917079,0.006776630412787199,-0.002114128321409225,0.002365110442042351,-0.01465630531311035,0.005355045199394226,0.01601392030715942,2,-0.6369246376279099,-0.005043406808621642,0.7687326996899686,0.05789195476438026,0.9786656498908997,0.08149968832731247,-0.1886031329631805,29.65572357177734,12.49653625488281,16.4666748046875,2,8417.010743500001,4,2,1580904701.25191,1580903939.50652,256,0.6844584,0,0,248.2692,1,0,1580904698.683142,8414.927911999999,0,4.1828,97.15452
1580904702.242406,25,0,1580904337.000819,41.20701635159924,29.07533761282497,172.748,-1,-1,5.74967098236084,48.00724964208526,-9999,8418.0150615,0.9582977294921875,0.08843994140625,-0.17755126953125,8418.009995500001,3.05858573010123,1.380473259900331,-0.08154354157257933,0.005531843286007643,0.006589280441403389,0.00411934033036232,-0.0204538106918335,0.006576478481292725,0.01379179954528809,2,-0.6369467491324629,-0.005006617678048969,0.7687142794378793,0.05789800021051915,0.9786803722381592,0.08145320415496826,-0.1885475516319275,29.65572357177734,12.49653625488281,16.4666748046875,2,8417.010743500001,4,2,1580904701.25191,1580903939.50652,256,0.6844584,0,0,248.2692,1,0,1580904698.683142,8414.927911999999,0,4.1828,97.15452
1580904702.254181,26,0,1580904337.000819,41.20701635159924,29.07533761282497,172.748,-1,-1,5.74967098236084,48.00724964208526,-9999,8418.025101500001,0.968475341796875,0.0884246826171875,-0.171630859375,8418.0200355,3.058523688632234,1.380517852186481,-0.08151512514925449,0.006193372886627913,0.004056880250573158,0.0009342003613710403,-0.02073919773101807,0.006986290216445923,0.01066625118255615,2,-0.6369639574450023,-0.004974615367593055,0.7686990993181542,0.05791294423473331,0.978691041469574,0.08142488449811935,-0.1885043382644653,29.76588439941406,12.46759986877441,16.3814697265625,2,8417.010743500001,4,2,1580904701.25191,1580903939.50652,256,0.6844584,0,0,248.2692,1,0,1580904698.683142,8414.927911999999,0,4.1828,97.15452
1580904702.276079,27,0,1580904337.000819,41.20701635159924,29.07533761282497,172.748,-1,-1,5.74967098236084,48.00724964208526,-9999,8418.0351415,0.964874267578125,0.0881500244140625,-0.174407958984375,8418.030075500001,3.058465647230572,1.380501761771293,-0.08151154815006141,0.005472792778164148,-0.00288083590567112,-0.00169001892209053,-0.01055866479873657,0.00697462260723114,0.01660263538360596,2,-0.6369579032119633,-0.004955216261716897,0.7687026819861495,0.05793407966550736,0.9786883592605591,0.08142131567001343,-0.188520148396492,29.76588439941406,12.46759986877441,16.3814697265625,2,8417.010743500001,4,2,1580904701.25191,1580903939.50652,256,0.6844584,0,0,248.2692,1,0,1580904698.683142,8414.927911999999,0,4.1828,97.15452
1580904702.277804,28,0,1580904337.000819,41.20701635159924,29.07533761282497,172.748,-1,-1,5.74967098236084,48.00724964208526,-9999,8418.0451825,0.9615936279296875,0.0886688232421875,-0.175750732421875,8418.040146500001,3.058402415949204,1.380508550331479,-0.08150061267722272,0.006279730703681707,0.001354390755295753,-0.000471889041364193,-0.01416182518005371,0.006710849702358246,0.01381909847259521,2,-0.6369606386673048,-0.004930668376569802,0.7686989650360536,0.05795492913496963,0.9786904454231262,0.08141041547060013,-0.1885136663913727,29.65184783935547,12.36537551879883,16.34100341796875,2,8417.010743500001,4,2,1580904701.25191,1580903939.50652,256,0.6844584,0,0,248.2692,1,0,1580904698.683142,8414.927911999999,0,4.1828,97.15452
1580904702.282683,29,0,1580904337.000819,41.20701635159924,29.07533761282497,172.748,-1,-1,5.74967098236084,48.00724964208526,-9999,8418.055222500001,0.9627685546875,0.08868408203125,-0.1736602783203125,8418.050187500001,3.058339369161409,1.380530444431065,-0.0814836760531886,0.006719827186316252,0.001911573112010956,0.001335020177066326,-0.01744788885116577,0.007246531546115875,0.01245510578155518,2,-0.6369691639813785,-0.004903430006671108,0.7686905699387123,0.05797383896539331,0.978695809841156,0.0813935399055481,-0.188492476940155,29.65184783935547,12.36537551879883,16.34100341796875,2,8417.010743500001,4,2,1580904701.25191,1580903939.50652,256,0.6844584,0,0,248.2692,1,0,1580904698.683142,8414.927911999999,0,4.1828,97.15452
1580904702.29262,30,0,1580904337.000819,41.20701635159924,29.07533761282497,172.748,-1,-1,5.74967098236084,48.00724964208526,-9999,8418.0652625,0.9595489501953125,0.0863800048828125,-0.178436279296875,8418.0602275,3.058286526671263,1.380630737638983,-0.08149175718063713,0.004456939641386271,0.01025552116334438,-0.001762236002832651,-0.01629126071929932,0.007253736257553101,0.01444727182388306,2,-0.6370078640434182,-0.004886806571800961,0.7686568673715664,0.05799695726768021,0.9787141084671021,0.08140159398317337,-0.1883942037820816,29.72772979736328,12.36490631103516,16.1260986328125,2,8417.010743500001,4,2,1580904701.25191,1580903939.50652,256,0.6844584,0,0,248.2692,1,0,1580904698.683142,8414.927911999999,0,4.1828,97.15452
1580904702.302697,31,0,1580904337.000819,41.20701635159924,29.07533761282497,172.748,-1,-1,5.74967098236084,48.00724964208526,-9999,8418.075302500001,0.9669189453125,0.087066650390625,-0.174072265625,8418.070267500001,3.058244565756786,1.380778736688689,-0.0815131892336198,0.003351968247443438,0.01635809242725372,-0.002182741183787584,-0.01953685283660889,0.004928320646286011,0.009526252746582031,2,-0.6370649018709181,-0.004877404393450441,0.7686079953732537,0.05802024822553081,0.978740394115448,0.08142295479774475,-0.1882490366697311,29.72772979736328,12.36490631103516,16.1260986328125,2,8417.010743500001,4,2,1580904701.25191,1580903939.50652,256,0.6844584,0,0,248.2692,1,0,1580904698.683142,8414.927911999999,0,4.1828,97.15452
1580904702.314074,32,0,1580904337.000819,41.20701635159924,29.07533761282497,172.748,-1,-1,5.74967098236084,48.00724964208526,-9999,8418.085343500001,0.9711761474609375,0.088592529296875,-0.1685943603515625,8418.0803075,3.058190943647372,1.380807904426186,-0.08156180148144304,0.004831087309867144,0.002809261903166771,-0.006043525412678719,-0.0121685266494751,0.005566507577896118,0.01386094093322754,2,-0.6370763919052714,-0.004878211780331196,0.7685957398623229,0.0580563474081522,0.9787420034408569,0.08147140592336655,-0.188219740986824,29.76906585693359,12.38648414611816,16.15911865234375,2,8417.010743500001,4,2,1580904701.25191,1580903939.50652,256,0.6844584,0,0,248.2692,1,0,1580904698.683142,8414.927911999999,0,4.1828,97.15452
1580904702.333838,33,0,1580904337.000819,41.20701635159924,29.07533761282497,172.748,-1,-1,5.74967098236084,48.00724964208526,-9999,8418.0953835,0.9669647216796875,0.0879669189453125,-0.1719512939453125,8418.0903485,3.058114440055876,1.380735166439905,-0.08161410196684238,0.007428256329149008,-0.007113017141819,-0.006392415147274733,-0.007893383502960205,0.007040224969387054,0.01940923929214478,2,-0.63704878749309,-0.004876111507542871,0.768615162689896,0.05810216088422304,0.9787240624427795,0.08152353018522263,-0.1882901340723038,29.76906585693359,12.38648414611816,16.15911865234375,2,8417.010743500001,4,2,1580904701.25191,1580903939.50652,256,0.6844584,0,0,248.2692,1,0,1580904698.683142,8414.927911999999,0,4.1828,97.15452
1580904702.335071,34,0,1580904337.000819,41.20701635159924,29.07533761282497,172.748,-1,-1,5.74967098236084,48.00724964208526,-9999,8418.105423500001,0.9617767333984375,0.0886077880859375,-0.1727447509765625,8418.100388500001,3.058037469803105,1.380611550774722,-0.08166641390404686,0.007015732582658529,-0.01220977399498224,-0.006470711901783943,-0.01207733154296875,0.006362453103065491,0.01617252826690674,2,-0.6370016277755802,-0.004875348329440837,0.768650803899823,0.05814803479989744,0.9786966443061829,0.0815756693482399,-0.1884103119373322,29.76289367675781,12.35066795349121,16.31988525390625,2,8417.010743500001,4,2,1580904701.25191,1580903939.50652,256,0.6844584,0,0,248.2692,1,0,1580904698.683142,8414.927911999999,0,4.1828,97.15452
1580904702.342816,35,0,1580904337.000819,41.20701635159924,29.07533761282497,172.748,-1,-1,5.74967098236084,48.00724964208526,-9999,8418.115464500001,0.9566497802734375,0.0881500244140625,-0.174560546875,8418.1104285,3.057963759650738,1.380504439608709,-0.08168896259596826,0.007179794367402792,-0.0105888033285737,-0.003238704521209002,-0.01724320650100708,0.006980858743190765,0.01548373699188232,2,-0.6369607133972662,-0.004863679237877741,0.768682091468215,0.05818325382367454,0.978674590587616,0.08159814029932022,-0.1885147839784622,29.76289367675781,12.35066795349121,16.31988525390625,2,8417.010743500001,4,2,1580904701.25191,1580903939.50652,256,0.6844584,0,0,248.2692,1,0,1580904698.683142,8414.927911999999,0,4.1828,97.15452
1580904702.352902,36,0,1580904337.000819,41.20701635159924,29.07533761282497,172.748,-1,-1,5.74967098236084,48.00724964208526,-9999,8418.125534500001,0.9576873779296875,0.087982177734375,-0.1743927001953125,8418.120468500001,3.057894713824559,1.380441210133803,-0.08167890473593847,0.007162750232964754,-0.004765801131725311,0.0008742818608880043,-0.02235901355743408,0.006533131003379822,0.01372998952865601,2,-0.6369365473142067,-0.004839653010808839,0.7687005136517562,0.05820644808492374,0.9786635041236877,0.08158811926841736,-0.1885768175125122,29.88912200927734,12.56771469116211,16.32858276367188,2,8417.010743500001,4,2,1580904701.25191,1580903939.50652,256,0.6844584,0,0,248.2692,1,0,1580904698.683142,8414.927911999999,0,4.1828,97.15452
1580904702.363031,37,0,1580904337.000819,41.20701635159924,29.07533761282497,172.748,-1,-1,5.74967098236084,48.00724964208526,-9999,8418.1355755,0.9554443359375,0.086669921875,-0.1760711669921875,8418.130509500001,3.057827092253169,1.380418554796779,-0.0816481995955184,0.005797602701932192,-0.0004993230104446411,0.002147543244063854,-0.0213196873664856,0.006395883858203888,0.01392048597335815,2,-0.6369279039408214,-0.004806941191854208,0.7687066801204483,0.05822264716205627,0.9786617159843445,0.0815575122833252,-0.188599482178688,29.88912200927734,12.56771469116211,16.32858276367188,2,8417.010743500001,4,2,1580904701.25191,1580903939.50652,256,0.6844584,0,0,248.2692,1,0,1580904698.683142,8414.927911999999,0,4.1828,97.15452
1580904702.374384,38,0,1580904337.000819,41.20701635159924,29.07533761282497,172.748,-1,-1,5.74967098236084,48.00724964208526,-9999,8418.1456155,0.95611572265625,0.088623046875,-0.177276611328125,8418.1405495,3.057755554259607,1.380464392237185,-0.08156911282630555,0.007257547695189714,0.004237908869981766,0.006285030394792557,-0.02357757091522217,0.005162470042705536,0.01219832897186279,2,-0.6369454494587895,-0.004752344318687443,0.7686922153796808,0.0582251660548687,0.9786766171455383,0.08147869259119034,-0.1885558217763901,29.80010223388672,12.49412727355957,16.4552001953125,2,8417.010743500001,4,2,1580904701.25191,1580903939.50652,256,0.6844584,0,0,248.2692,1,0,1580904698.683142,8414.927911999999,0,4.1828,97.15452
1580904702.395713,39,0,1580904337.000819,41.20701635159924,29.07533761282497,172.748,-1,-1,5.74967098236084,48.00724964208526,-9999,8418.155655500001,0.9559783935546875,0.0881805419921875,-0.178131103515625,8418.150589500001,3.057678339078744,1.380612758951391,-0.08145350241063909,0.009868459776043892,0.01509632728993893,0.009454930201172829,-0.02294343709945679,0.007230900228023529,0.01084965467453003,2,-0.637002268834125,-0.004678866977988375,0.7686462605761714,0.05821853323099915,0.9787140488624573,0.08136346191167831,-0.1884124428033829,29.80010223388672,12.49412727355957,16.4552001953125,2,8417.010743500001,4,2,1580904701.25191,1580903939.50652,256,0.6844584,0,0,248.2692,1,0,1580904698.683142,8414.927911999999,0,4.1828,97.15452
1580904702.397582,40,0,1580904337.000819,41.20701635159924,29.07533761282497,172.748,-1,-1,5.74967098236084,48.00724964208526,-9999,8418.1656965,0.9556121826171875,0.0874176025390625,-0.1795196533203125,8418.1606305,3.057612363702183,1.380902416867178,-0.08131470309836426,0.008932624012231827,0.02931627444922924,0.01248321123421192,-0.02314645051956177,0.006926745176315308,0.009713351726531982,2,-0.6371133100095603,-0.004595938808839642,0.7685558768552467,0.05820051950871377,0.9787793755531311,0.08122511953115463,-0.1881310194730759,30.0491943359375,12.41739273071289,16.20355224609375,2,8417.010743500001,4,2,1580904701.25191,1580903939.50652,256,0.6844584,0,0,248.2692,1,0,1580904698.683142,8414.927911999999,0,4.1828,97.15452
1580904702.40316,41,0,1580904337.000819,41.20701635159924,29.07533761282497,172.748,-1,-1,5.74967098236084,48.00724964208526,-9999,8418.175736500001,0.9600982666015625,0.0868072509765625,-0.1763153076171875,8418.1706705,3.057552934318941,1.381315726643377,-0.0811588961257486,0.008302135393023491,0.0426766499876976,0.01506730914115906,-0.02360278367996216,0.006319150328636169,0.007922589778900146,2,-0.6372717413547636,-0.004504938206875198,0.7684271015251037,0.05817486611481174,0.978869616985321,0.08106982707977295,-0.1877288669347763,30.0491943359375,12.41739273071289,16.20355224609375,2,8417.010743500001,4,2,1580904701.25191,1580903939.50652,256,0.6844584,0,0,248.2692,1,0,1580904698.683142,8414.927911999999,0,4.1828,97.15452
1580904702.413482,42,0,1580904337.000819,41.20701635159924,29.07533761282497,172.748,-1,-1,5.74967098236084,48.00724964208526,-9999,8418.1857765,0.9625091552734375,0.0872344970703125,-0.1746368408203125,8418.1807415,3.05750181150743,1.381727892992748,-0.08101681106519225,0.007288535591214895,0.04116317629814148,0.01352986507117748,-0.01920533180236816,0.005850479006767273,0.01072537899017334,2,-0.637429745013281,-0.004421923744115944,0.7682982813733102,0.05815032891171559,0.9789580702781677,0.08092821389436722,-0.1873275339603424,29.88752746582031,12.44218635559082,16.20465087890625,2,8417.010743500001,4,2,1580904701.25191,1580903939.50652,256,0.6844584,0,0,248.2692,1,0,1580904698.683142,8414.927911999999,0,4.1828,97.15452
1580904702.423244,43,0,1580904337.000819,41.20701635159924,29.07533761282497,172.748,-1,-1,5.74967098236084,48.00724964208526,-9999,8418.1958165,0.9626312255859375,0.0872955322265625,-0.17474365234375,8418.190781500001,3.057455174498039,1.382152936485218,-0.08087885783178476,0.00716582452878356,0.04275867342948914,0.01286307256668806,-0.01688480377197266,0.006415300071239471,0.01198989152908325,2,-0.6375926509320794,-0.004341559920779309,0.7681655092777391,0.05812538514712788,0.9790486693382263,0.08079071342945099,-0.1869135200977325,29.84748840332031,12.32389640808105,16.28640747070312,2,8417.010743500001,4,2,1580904701.25191,1580903939.50652,256,0.6844584,0,0,248.2692,1,0,1580904698.683142,8414.927911999999,0,4.1828,97.15452
1580904702.433456,44,0,1580904337.000819,41.20701635159924,29.07533761282497,172.748,-1,-1,5.74967098236084,48.00724964208526,-9999,8418.205857500001,0.9584503173828125,0.08734130859375,-0.17462158203125,8418.200821500001,3.057398950300632,1.38261404752485,-0.08073458013525386,0.008291009813547134,0.04571317881345749,0.0131842503324151,-0.01686030626296997,0.006620191037654877,0.01143372058868408,2,-0.6377693770236299,-0.004254668241535295,0.7680210570862751,0.05810215741252038,0.9791461825370789,0.08064690232276917,-0.1864642351865768,29.84748840332031,12.32389640808105,16.28640747070312,2,8417.010743500001,4,2,1580904701.25191,1580903939.50652,256,0.6844584,0,0,248.2692,1,0,1580904698.683142,8414.927911999999,0,4.1828,97.15452
1580904702.454906,45,0,1580904337.000819,41.20701635159924,29.07533761282497,172.748,-1,-1,5.74967098236084,48.00724964208526,-9999,8418.2158975,0.9578704833984375,0.087066650390625,-0.1761627197265625,8418.2108625,3.057320425506131,1.383164305316881,-0.08059044870938652,0.01073610037565231,0.05508880689740181,0.01271578576415777,-0.02115517854690552,0.00680965930223465,0.01101869344711304,2,-0.6379803527267056,-0.004158148796825328,0.7678472845400082,0.0580876773431746,0.9792599081993103,0.08050324022769928,-0.1859275549650192,29.92688751220703,12.37587356567383,16.35516357421875,2,8417.010743500001,4,2,1580904701.25191,1580903939.50652,256,0.6844584,0,0,248.2692,1,0,1580904698.683142,8414.927911999999,0,4.1828,97.15452
1580904702.456222,46,0,1580904337.000819,41.20701635159924,29.07533761282497,172.748,-1,-1,5.74967098236084,48.00724964208526,-9999,8418.225937500001,0.9604949951171875,0.085784912109375,-0.1744232177734375,8418.220902500001,3.057230461914965,1.383822965012205,-0.08043870761916722,0.01179843582212925,0.06679552793502808,0.01328357215970755,-0.02186936140060425,0.006686292588710785,0.008834540843963623,2,-0.6382328552452395,-0.004051900536456321,0.7676390096150292,0.05807535316394878,0.979394257068634,0.08035199344158173,-0.1852848082780838,29.92688751220703,12.37587356567383,16.35516357421875,2,8418.2201085,2,0,1580904702.461275,1580903939.50652,256,0.6844584,0,0,248.2692,1,0,1580904698.683142,8414.927911999999,0,4.1828,97.15452
1580904702.463545,47,0,1580904337.000819,41.20701635159924,29.07533761282497,172.748,-1,-1,5.74967098236084,48.00724964208526,-9999,8418.235978500001,0.9633636474609375,0.088287353515625,-0.1729583740234375,8418.2309425,3.057126233829752,1.384531079798207,-0.08030345343325729,0.01302837580442429,0.07110489159822464,0.01089548785239458,-0.01938682794570923,0.005539409816265106,0.009882032871246338,2,-0.6385043464486887,-0.003946017705281454,0.767413904919548,0.05807377497541369,0.9795358777046204,0.08021717518568039,-0.1845932602882385,29.81011962890625,12.24170875549316,16.29388427734375,2,8418.2201085,2,0,1580904702.461275,1580903939.50652,256,0.6844584,0,0,248.2692,1,0,1580904698.683142,8414.927911999999,0,4.1828,97.15452
1580904702.473447,48,0,1580904337.000819,41.20701635159924,29.07533761282497,172.748,-1,-1,5.74967098236084,48.00724964208526,-9999,8418.2460185,0.962677001953125,0.0860137939453125,-0.1722412109375,8418.240982500001,3.057020081244137,1.385267443239178,-0.08018602534339671,0.01134658977389336,0.07264313101768494,0.01035353448241949,-0.01666325330734253,0.008158937096595764,0.01062703132629395,2,-0.6387866480883948,-0.003845558086862655,0.7671791283966307,0.05807859273872297,0.9796808958053589,0.08010012656450272,-0.1838736534118652,29.81011962890625,12.24170875549316,16.29388427734375,2,8418.2201085,2,0,1580904702.461275,1580903939.50652,256,0.6844584,0,0,248.2692,1,0,1580904698.683142,8414.927911999999,0,4.1828,97.15452
1580904702.484015,49,0,1580904337.000819,41.20701635159924,29.07533761282497,172.748,-1,-1,5.74967098236084,48.00724964208526,-9999,8418.256089500001,0.96380615234375,0.085205078125,-0.173980712890625,8418.251023500001,3.056886460045891,1.386089746176895,-0.08010617734393642,0.01398736611008644,0.08376486599445343,0.005853327922523022,-0.01750719547271729,0.005964986979961395,0.01053923368453979,2,-0.6391020068827329,-0.003748279991649367,0.7669147267612532,0.05810598951733772,0.9798378944396973,0.08002053201198578,-0.1830691546201706,29.65293884277344,12.30274772644043,16.23709106445312,2,8418.2201085,2,0,1580904702.461275,1580903939.50652,256,0.6844584,0,0,248.2692,1,0,1580904698.683142,8414.927911999999,0,4.1828,97.15452
1580904702.494251,50,0,1580904337.000819,41.20701635159924,29.07533761282497,172.748,-1,-1,5.74967098236084,48.00724964208526,-9999,8418.2661295,0.96844482421875,0.0850067138671875,-0.1707000732421875,8418.2610635,3.056739720148633,1.386964336593158,-0.08007977256481968,0.01379721611738205,0.08791753649711609,0.0008457852527499199,-0.01653993129730225,0.005182601511478424,0.007942795753479004,2,-0.6394374866218723,-0.003665801825588205,0.7666317471588673,0.05815546678368606,0.9799997806549072,0.07999420911073685,-0.1822125315666199,29.65293884277344,12.30274772644043,16.23709106445312,2,8418.2201085,2,0,1580904702.461275,1580903939.50652,256,0.6844584,0,0,248.2692,1,0,1580904698.683142,8414.927911999999,0,4.1828,97.15452
1580904702.52076,51,0,1580904337.000819,41.20701635159924,29.07533761282497,172.748,-1,-1,5.74967098236084,48.00724964208526,-9999,8418.276169500001,0.9723052978515625,0.0839080810546875,-0.16827392578125,8418.271103500001,3.056577786263518,1.387843128626748,-0.0801371031409127,0.01499990001320839,0.08892181515693665,-0.007807623594999313,-0.01205676794052124,0.004927054047584534,0.01036083698272705,2,-0.6397747781369394,-0.003610479147876183,0.7663442939826892,0.05823738307754132,0.9801549911499023,0.08005135506391525,-0.1813503950834274,29.79334259033203,12.2110538482666,16.23715209960938,2,8418.2201085,2,0,1580904702.461275,1580903939.50652,256,0.6844584,0,0,248.2692,1,0,1580904698.683142,8415.86796,0,4.177521,97.15459
1580904702.522002,52,0,1580904337.000819,41.20701635159924,29.07533761282497,172.748,-1,-1,5.74967098236084,48.00724964208526,-9999,8418.2862095,0.974761962890625,0.08050537109375,-0.1648101806640625,8418.281144500001,3.056409341854207,1.388674560439331,-0.08032357477768214,0.01395780593156815,0.08550097048282623,-0.0220416858792305,-0.008332252502441406,0.003642469644546509,0.01196885108947754,2,-0.6400942623721111,-0.003603987702103212,0.7660679419526256,0.05836283433479228,0.9802907109260559,0.08023723214864731,-0.180532693862915,29.79334259033203,12.2110538482666,16.23715209960938,2,8418.2201085,2,0,1580904702.461275,1580903939.50652,256,0.6844584,0,0,248.2692,1,0,1580904698.683142,8415.86796,0,4.177521,97.15459
1580904702.523647,53,0,1580904337.000819,41.20701635159924,29.07533761282497,172.748,-1,-1,5.74967098236084,48.00724964208526,-9999,8418.296250500001,0.9723358154296875,0.084716796875,-0.164031982421875,8418.2911845,3.056267396745612,1.389402111573877,-0.0805906247280526,0.00886610709130764,0.07323499023914337,-0.02831742540001869,-0.005985677242279053,-2.653151750564575e-05,0.01471513509750366,2,-0.6403740880237344,-0.00363985863545549,0.7658231122900786,0.05850364763139027,0.9804006814956665,0.08050341904163361,-0.1798155605792999,29.62785339355469,12.27685356140137,16.4107666015625,2,8418.2201085,2,0,1580904702.461275,1580903939.50652,256,0.6844584,0,0,248.2692,1,0,1580904698.683142,8415.86796,0,4.177521,97.15459
1580904702.533744,54,0,1580904337.000819,41.20701635159924,29.07533761282497,172.748,-1,-1,5.74967098236084,48.00724964208526,-9999,8418.306290500001,0.9652557373046875,0.08935546875,-0.16510009765625,8418.301224500001,3.056143648682504,1.390078802490318,-0.08086247519753134,0.006480182055383921,0.06847672164440155,-0.02896483987569809,-0.008511841297149658,0.003913827240467072,0.01482570171356201,2,-0.6406343233684878,-0.003684785187887188,0.7655949689767346,0.05863897089533024,0.9805006980895996,0.08077438175678253,-0.1791481673717499,29.62785339355469,12.27685356140137,16.4107666015625,2,8418.2201085,2,0,1580904702.461275,1580903939.50652,256,0.6844584,0,0,248.2692,1,0,1580904698.683142,8415.86796,0,4.177521,97.15459
1580904702.543677,55,0,1580904337.000819,41.20701635159924,29.07533761282497,172.748,-1,-1,5.74967098236084,48.00724964208526,-9999,8418.3163305,0.95208740234375,0.0884857177734375,-0.1665496826171875,8418.3112955,3.056052306725588,1.390767324864502,-0.08105218409275422,0.006763048004359007,0.06831449270248413,-0.02092583104968071,-0.01570022106170654,0.008363328874111176,0.01307922601699829,2,-0.6408986748238351,-0.003708138129100161,0.765366113629306,0.05873572910848666,0.9806086421012878,0.08096347004175186,-0.1784702837467194,29.69154357910156,12.22406578063965,16.33465576171875,2,8418.2201085,2,0,1580904702.461275,1580903939.50652,256,0.6844584,0,0,248.2692,1,0,1580904698.683142,8415.86796,0,4.177521,97.15459
1580904702.554437,56,0,1580904337.000819,41.20701635159924,29.07533761282497,172.748,-1,-1,5.74967098236084,48.00724964208526,-9999,8418.326371500001,0.9432220458984375,0.092132568359375,-0.1700439453125,8418.321335500001,3.056052529388723,1.391601809636829,-0.08107082215932078,-0.0008091176860034466,0.08500505983829498,-0.001324699725955725,-0.02901583909988403,0.007474973797798157,0.01081055402755737,2,-0.641218026422293,-0.003690853256646323,0.7650980880905505,0.05874313623356373,0.9807557463645935,0.08098204433917999,-0.1776516437530518,29.69154357910156,12.22406578063965,16.33465576171875,2,8418.2201085,2,0,1580904702.461275,1580903939.50652,256,0.6844584,0,0,248.2692,1,0,1580904698.683142,8415.86796,0,4.177521,97.15459
1580904702.580177,57,0,1580904337.000819,41.20701635159924,29.07533761282497,172.748,-1,-1,5.74967098236084,48.00724964208526,-9999,8418.3364115,0.9443511962890625,0.09295654296875,-0.1693115234375,8418.3313755,3.056064071127866,1.392586944850443,-0.08089147676902388,0.0024680788628757,0.09663605690002441,0.01844663545489311,-0.0380699634552002,0.01130067557096481,0.006352484226226807,2,-0.6415941714118234,-0.003596838178165959,0.764787801199947,0.05868324175375886,0.9809446334838867,0.0808032900094986,-0.1766879707574844,29.65842437744141,12.27272605895996,16.24942016601562,2,8418.2201085,2,0,1580904702.461275,1580903939.50652,256,0.6844584,0,0,248.2692,1,0,1580904698.683142,8415.86796,0,4.177521,97.15459
1580904702.581134,58,0,1580904337.000819,41.20701635159924,29.07533761282497,172.748,-1,-1,5.74967098236084,48.00724964208526,-9999,8418.3464515,0.9458160400390625,0.0886383056640625,-0.1719970703125,8418.341416500001,3.056092192662576,1.393834162800126,-0.08056907485396927,0.002817485015839338,0.1249294728040695,0.03337684646248817,-0.03718596696853638,0.01244611293077469,0.00586545467376709,2,-0.6420698243826684,-0.003445695462693771,0.7643976970321366,0.05857164561780613,0.9811897277832031,0.08048193901777267,-0.1754689365625381,29.65842437744141,12.27272605895996,16.24942016601562,2,8418.2201085,2,0,1580904702.461275,1580903939.50652,256,0.6844584,0,0,248.2692,1,0,1580904698.683142,8415.86796,0,4.177521,97.15459
1580904702.583861,59,0,1580904337.000819,41.20701635159924,29.07533761282497,172.748,-1,-1,5.74967098236084,48.00724964208526,-9999,8418.356491500001,0.9658355712890625,0.0837860107421875,-0.16278076171875,8418.3514565,3.05613349123056,1.3952345845216,-0.08021933879924532,0.003469679970294237,0.1409684717655182,0.03608395531773567,-0.03599357604980469,0.008476614952087402,0.001810252666473389,2,-0.642603618825543,-0.003283970953976201,0.7639594020603034,0.05844636270408556,0.981462299823761,0.08013332635164261,-0.1740996092557907,29.73638153076172,12.05658912658691,16.27874755859375,2,8418.2201085,2,0,1580904702.461275,1580903939.50652,256,0.6844584,0,0,248.2692,1,0,1580904698.683142,8415.86796,0,4.177521,97.15459
1580904702.594016,60,0,1580904337.000819,41.20701635159924,29.07533761282497,172.748,-1,-1,5.74967098236084,48.00724964208526,-9999,8418.3665325,0.9835662841796875,0.083648681640625,-0.1553497314453125,8418.3614965,3.056207487822141,1.396530440012571,-0.07993938529937343,-0.002707788720726967,0.1292399168014526,0.02873602509498596,-0.01622104644775391,0.003903448581695557,0.009757816791534424,2,-0.6430973844234303,-0.003162710178198413,0.7635531189382536,0.05833057353431012,0.9817090630531311,0.07985427230596542,-0.1728315055370331,29.73638153076172,12.05658912658691,16.27874755859375,2,8418.2201085,2,0,1580904702.461275,1580903939.50652,256,0.6844584,0,0,248.2692,1,0,1580904698.683142,8415.86796,0,4.177521,97.15459
1580904702.603949,61,0,1580904337.000819,41.20701635159924,29.07533761282497,172.748,-1,-1,5.74967098236084,48.00724964208526,-9999,8418.376572500001,0.9852447509765625,0.0847625732421875,-0.1513824462890625,8418.371537500001,3.056291037572009,1.397587644620599,-0.07974612982279311,-0.004955722019076347,0.1035813689231873,0.01985650323331356,0.001312136650085449,0.003958836197853088,0.01615327596664429,2,-0.6435000973603494,-0.003084794368571508,0.763221210971752,0.05823843111377633,0.981906533241272,0.07966163009405136,-0.1717962175607681,29.48944854736328,12.24918174743652,16.31411743164062,2,8418.2201085,2,0,1580904702.461275,1580903939.50652,256,0.6844584,0,0,248.2692,1,0,1580904698.683142,8415.86796,0,4.177521,97.15459
1580904702.632332,62,0,1580904337.000819,41.20701635159924,29.07533761282497,172.748,-1,-1,5.74967098236084,48.00724964208526,-9999,8418.3866125,0.97802734375,0.0864105224609375,-0.152252197265625,8418.3815775,3.056390318890271,1.398437322739224,-0.07960076371442135,-0.007062016054987907,0.08303907513618469,0.01615524291992188,0.002833366394042969,0.005217641592025757,0.01928752660751343,2,-0.6438236395271837,-0.003036405905297523,0.7629546929821188,0.05815524883862494,0.982063353061676,0.07951673120260239,-0.1709638088941574,29.48944854736328,12.24918174743652,16.31411743164062,2,8418.2201085,2,0,1580904702.461275,1580903939.50652,256,0.6844584,0,0,248.2692,1,0,1580904698.683142,8415.86796,0,4.177521,97.15459
1580904702.63342,63,0,1580904337.000819,41.20701635159924,29.07533761282497,172.748,-1,-1,5.74967098236084,48.00724964208526,-9999,8418.396683500001,0.9695281982421875,0.086761474609375,-0.1540374755859375,8418.391617500001,3.056493188868838,1.399165449112388,-0.07946466418343924,-0.007353569380939007,0.06965592503547668,0.01578264869749546,-0.004518985748291016,0.007001355290412903,0.01770436763763428,2,-0.6441007257163747,-0.002996308186477337,0.7627272515276446,0.05807346901317845,0.9821983575820923,0.0793810561299324,-0.1702505499124527,29.52788543701172,12.38679122924805,16.23919677734375,2,8418.2201085,2,0,1580904702.461275,1580903939.50652,256,0.6844584,0,0,248.2692,1,0,1580904698.683142,8415.86796,0,4.177521,97.15459
1580904702.634306,64,0,1580904337.000819,41.20701635159924,29.07533761282497,172.748,-1,-1,5.74967098236084,48.00724964208526,-9999,8418.4067235,0.96392822265625,0.085540771484375,-0.1569061279296875,8418.401657500001,3.056588802198155,1.39989973103089,-0.07932461995142689,-0.007179399020969868,0.07119657099246979,0.01559915579855442,-0.01315402984619141,0.007491908967494965,0.01519912481307983,2,-0.6443800927183867,-0.00295225405382453,0.7624974073568848,0.05799316624631019,0.9823338985443115,0.07924145460128784,-0.1695311665534973,29.52788543701172,12.38679122924805,16.23919677734375,2,8418.2201085,2,0,1580904702.461275,1580903939.50652,256,0.6844584,0,0,248.2692,1,0,1580904698.683142,8415.86796,0,4.177521,97.15459
1580904702.644053,65,0,1580904337.000819,41.20701635159924,29.07533761282497,172.748,-1,-1,5.74967098236084,48.00724964208526,-9999,8418.4167645,0.9643707275390625,0.08648681640625,-0.15533447265625,8418.4116985,3.056667761513177,1.400677110808446,-0.0791616364380659,-0.004841260612010956,0.07789905369281769,0.01818085834383965,-0.0188983678817749,0.006433755159378052,0.01156884431838989,2,-0.6446757283816318,-0.00289286515460381,0.7622539967604607,0.05791189617836583,0.9824782609939575,0.07907898724079132,-0.1687696725130081,29.57596588134766,12.3033447265625,16.27212524414062,2,8418.2201085,2,0,1580904702.461275,1580903939.50652,256,0.6844584,0,0,248.2692,1,0,1580904698.683142,8415.86796,0,4.177521,97.15459
1580904702.654169,66,0,1580904337.000819,41.20701635159924,29.07533761282497,172.748,-1,-1,5.74967098236084,48.00724964208526,-9999,8418.426804500001,0.968505859375,0.08673095703125,-0.1521759033203125,8418.421738500001,3.056737649219413,1.401392224895673,-0.07899059386895758,-0.003515538759529591,0.07031117379665375,0.0173582062125206,-0.01858979463577271,0.007550358772277832,0.01243972778320312,2,-0.6449475484142164,-0.002829343548219981,0.7620303082221546,0.05783135759247357,0.9826118946075439,0.07890847325325012,-0.1680693030357361,29.57596588134766,12.3033447265625,16.27212524414062,2,8418.2201085,2,0,1580904702.461275,1580903939.50652,256,0.6844584,0,0,248.2692,1,0,1580904698.683142,8415.86796,0,4.177521,97.15459
1580904702.664411,67,0,1580904337.000819,41.20701635159924,29.07533761282497,172.748,-1,-1,5.74967098236084,48.00724964208526,-9999,8418.4368445,0.965728759765625,0.0874176025390625,-0.15277099609375,8418.4317785,3.056821430423395,1.402061714594411,-0.07876335039455107,-0.004785600118339062,0.06672628223896027,0.02444221451878548,-0.01458472013473511,0.00802110880613327,0.01494312286376953,2,-0.6452016878838063,-0.002750207070712635,0.7618233507750101,0.05772737130629452,0.9827418923377991,0.07868193835020065,-0.1674144417047501,29.62348937988281,12.03397941589355,16.36477661132812,2,8418.2201085,2,0,1580904702.461275,1580903939.50652,256,0.6844584,0,0,248.2692,1,0,1580904698.683142,8415.86796,0,4.177521,97.15459
1580904702.693921,68,0,1580904337.000819,41.20701635159924,29.07533761282497,172.748,-1,-1,5.74967098236084,48.00724964208526,-9999,8418.446885500001,0.9577484130859375,0.08843994140625,-0.1539306640625,8418.4418195,3.056933815135281,1.402730889298373,-0.07844671379339549,-0.005726228468120098,0.06597687304019928,0.03327059373259544,-0.01749837398529053,0.009023502469062805,0.01369410753250122,2,-0.6454552940304175,-0.002646246559492096,0.7616196888157443,0.05758370375983031,0.9828781485557556,0.07836627960205078,-0.1667609214782715,29.62348937988281,12.03397941589355,16.36477661132812,2,8418.2201085,2,0,1580904702.461275,1580903939.50652,256,0.6844584,0,0,248.2692,1,0,1580904698.683142,8415.86796,0,4.177521,97.15459
1580904702.69518,69,0,1580904337.000819,41.20701635159924,29.07533761282497,172.748,-1,-1,5.74967098236084,48.00724964208526,-9999,8418.456925500001,0.957061767578125,0.0897064208984375,-0.1544647216796875,8418.4518895,3.05707271211815,1.403425300675306,-0.07799381789132116,-0.006529383827000856,0.06725185364484787,0.04762262105941772,-0.02562940120697021,0.01049750298261642,0.01185750961303711,2,-0.6457179079085754,-0.002498189619019861,0.7614126107894384,0.05738609822862353,0.983028769493103,0.0779147669672966,-0.1660842895507812,29.58031463623047,12.03394508361816,16.32940673828125,2,8418.2201085,2,0,1580904702.461275,1580903939.50652,256,0.6844584,0,0,248.2692,1,0,1580904698.683142,8415.86796,0,4.177521,97.15459
1580904702.696542,70,0,1580904337.000819,41.20701635159924,29.07533761282497,172.748,-1,-1,5.74967098236084,48.00724964208526,-9999,8418.4669655,0.957977294921875,0.0885162353515625,-0.1553192138671875,8418.4619305,3.057180181694386,1.404183281947457,-0.07744502101133197,-0.001389216631650925,0.07342533022165298,0.05672530457377434,-0.02648389339447021,0.01231131702661514,0.01058483123779297,2,-0.6460043439419183,-0.002301707830857522,0.7611864866089449,0.05716956192725166,0.9831963777542114,0.0773676261305809,-0.1653461754322052,29.58031463623047,12.03394508361816,16.32940673828125,2,8418.2201085,2,0,1580904702.461275,1580903939.50652,256,0.6844584,0,0,248.2692,1,0,1580904698.683142,8415.86796,0,4.177521,97.15459
1580904702.704389,71,0,1580904337.000819,41.20701635159924,29.07533761282497,172.748,-1,-1,5.74967098236084,48.00724964208526,-9999,8418.477005500001,0.9713897705078125,0.0862274169921875,-0.152313232421875,8418.471970500001,3.057241845994211,1.40497673841713,-0.07688029165133964,0.004646990913897753,0.08019483834505081,0.05630403012037277,-0.02574241161346436,0.01168434321880341,0.0089569091796875,2,-0.6463041609160716,-0.002083499614852838,0.7609478503943524,0.0569652145746416,0.9833701252937317,0.07680457830429077,-0.1645731776952744,29.43238830566406,12.00887870788574,16.19937133789062,2,8418.2201085,2,0,1580904702.461275,1580903939.50652,256,0.6844584,0,0,248.2692,1,0,1580904698.683142,8415.86796,0,4.177521,97.15459
1580904702.714322,72,0,1580904337.000819,41.20701635159924,29.07533761282497,172.748,-1,-1,5.74967098236084,48.00724964208526,-9999,8418.4870465,0.9838714599609375,0.0844573974609375,-0.1437225341796875,8418.4820105,3.057283933214074,1.405600443665903,-0.07635027471618469,0.004038192797452211,0.06111355125904083,0.0526973083615303,-0.01247268915176392,0.009924165904521942,0.01135575771331787,2,-0.6465394333336255,-0.001877183452815026,0.76076234672599,0.05677916352936616,0.9835125207901001,0.07627611607313156,-0.1639664769172668,29.43238830566406,12.00887870788574,16.19937133789062,2,8418.2201085,2,0,1580904702.461275,1580903939.50652,256,0.6844584,0,0,248.2692,1,0,1580904698.683142,8415.86796,0,4.177521,97.15459
1580904702.7245,73,0,1580904337.000819,41.20701635159924,29.07533761282497,172.748,-1,-1,5.74967098236084,48.00724964208526,-9999,8418.497086500001,0.984039306640625,0.0816192626953125,-0.141510009765625,8418.492051500001,3.057294055745537,1.406010897542757,-0.07589519941333195,0.005744326394051313,0.04117152094841003,0.04469367489218712,-9.244680404663086e-05,0.008608065545558929,0.01954841613769531,2,-0.6466938163410142,-0.001695255445561275,0.7606428087401993,0.05662911133272712,0.9836140275001526,0.07582236081361771,-0.1635684669017792,29.60472869873047,11.94002723693848,16.23068237304688,2,8418.2201085,2,0,1580904702.461275,1580903939.50652,256,0.6844584,0,0,248.2692,1,0,1580904698.683142,8415.86796,0,4.177521,97.15459
1580904702.755443,74,0,1580904337.000819,41.20701635159924,29.07533761282497,172.748,-1,-1,5.74967098236084,48.00724964208526,-9999,8418.507126500001,0.9798431396484375,0.080169677734375,-0.142852783203125,8418.5020915,3.057297506675734,1.406209126078936,-0.07551197229536602,0.005811971146613359,0.02000019140541553,0.03802672028541565,1.412630081176758e-05,0.006152167916297913,0.02157032489776611,2,-0.6467677330717185,-0.001544626562621026,0.7605895179001247,0.05650450169035702,0.983674943447113,0.07544022798538208,-0.1633782237768173,29.60472869873047,11.94002723693848,16.23068237304688,2,8418.2201085,2,0,1580904702.461275,1580903939.50652,256,0.6844584,0,0,248.2692,1,0,1580904698.683142,8415.86796,0,4.177521,97.15459
1580904702.756696,75,0,1580904337.000819,41.20701635159924,29.07533761282497,172.748,-1,-1,5.74967098236084,48.00724964208526,-9999,8418.5171665,0.97296142578125,0.079742431640625,-0.1474456787109375,8418.5121315,3.05728729386296,1.406299452981078,-0.07519872961320249,0.007511052768677473,0.008417142555117607,0.0302010253071785,-0.004220008850097656,0.005015052855014801,0.02014255523681641,2,-0.6468008733158952,-0.001419330527787838,0.7605687571949864,0.05640753038467207,0.9837129712104797,0.07512787729501724,-0.1632932275533676,29.40206146240234,12.03664207458496,16.27825927734375,2,8418.2201085,2,0,1580904702.461275,1580903939.50652,256,0.6844584,0,0,248.2692,1,0,1580904698.683142,8415.86796,0,4.177521,97.15459
1580904702.757732,76,0,1580904337.000819,41.20701635159924,29.07533761282497,172.748,-1,-1,5.74967098236084,48.00724964208526,-9999,8418.5272375,0.96990966796875,0.0797882080078125,-0.1497650146484375,8418.522171500001,3.057273340348295,1.406386352192436,-0.07492988182521222,0.0061400574631989,0.008333520963788033,0.02693572267889977,-0.01113593578338623,0.004855990409851074,0.01546722650527954,2,-0.6468328757777541,-0.001309859961668186,0.7605476791895396,0.0563262682291161,0.9837469458580017,0.07485978305339813,-0.1632110327482224,29.40206146240234,12.03664207458496,16.27825927734375,2,8418.2201085,2,0,1580904702.461275,1580903939.50652,256,0.6844584,0,0,248.2692,1,0,1580904698.683142,8415.86796,0,4.177521,97.15459
1580904702.764777,77,0,1580904337.000819,41.20701635159924,29.07533761282497,172.748,-1,-1,5.74967098236084,48.00724964208526,-9999,8418.5372785,0.9671173095703125,0.0792999267578125,-0.1496429443359375,8418.5322125,3.05726086466283,1.406468210317695,-0.074706537265714,0.006911462638527155,0.007100749760866165,0.02240385487675667,-0.01421761512756348,0.005124568939208984,0.01307010650634766,2,-0.6468631200424513,-0.001218361174628382,0.7605271086915908,0.05625909920908137,0.9837768077850342,0.07463706284761429,-0.1631332337856293,29.55621337890625,12.21224594116211,16.38308715820312,2,8418.2201085,2,0,1580904702.461275,1580903939.50652,256,0.6844584,0,0,248.2692,1,0,1580904698.683142,8415.86796,0,4.177521,97.15459
1580904702.774664,78,0,1580904337.000819,41.20701635159924,29.07533761282497,172.748,-1,-1,5.74967098236084,48.00724964208526,-9999,8418.547318500001,0.962310791015625,0.077301025390625,-0.1536712646484375,8418.542252500001,3.057315453287518,1.406632620533191,-0.07454653281194371,-0.003690847428515553,0.01520474813878536,0.01672013849020004,-0.0170484185218811,0.004795916378498077,0.01303255558013916,2,-0.6469249536371964,-0.001170386121614006,0.7604800490422503,0.05618688549258002,0.9838154911994934,0.07447750866413116,-0.1629734635353088,29.55621337890625,12.21224594116211,16.38308715820312,2,8418.2201085,2,0,1580904702.461275,1580903939.50652,256,0.6844584,0,0,248.2692,1,0,1580904698.683142,8415.86796,0,4.177521,97.15459
1580904702.784782,79,0,1580904337.000819,41.20701635159924,29.07533761282497,172.748,-1,-1,5.74967098236084,48.00724964208526,-9999,8418.5573585,0.9577178955078125,0.08404541015625,-0.1519927978515625,8418.5522925,3.057396283025374,1.406940117967055,-0.07435909057425673,-0.005206046160310507,0.03158324956893921,0.0196588933467865,-0.02191859483718872,0.002983994781970978,0.008704066276550293,2,-0.6470410672905733,-0.001116442172103049,0.7603880870682467,0.05609591819520535,0.9838793873786926,0.07429058104753494,-0.162673220038414,29.62546539306641,12.22018814086914,16.406494140625,2,8418.2201085,2,0,1580904702.461275,1580903939.50652,256,0.6844584,0,0,248.2692,1,0,1580904698.683142,8415.86796,0,4.177521,97.15459
1580904702.819454,80,0,1580904337.000819,41.20701635159924,29.07533761282497,172.748,-1,-1,5.74967098236084,48.00724964208526,-9999,8418.567398500001,0.9563751220703125,0.0832366943359375,-0.150970458984375,8418.5623335,3.057514947866965,1.407282432499162,-0.07406439215926326,-0.005816975142806768,0.03200589120388031,0.03214885294437408,-0.02658867835998535,0.01002240180969238,0.01004922389984131,2,-0.6471699531722125,-0.001032915201230666,0.7602888091081206,0.05595598872067055,0.9839565753936768,0.07399670034646988,-0.1623399704694748,29.62546539306641,12.22018814086914,16.406494140625,2,8418.2201085,2,0,1580904702.461275,1580903939.50652,256,0.6844584,0,0,248.2692,1,0,1580904698.683142,8415.86796,0,4.177521,97.15459
1580904702.820755,81,0,1580904337.000819,41.20701635159924,29.07533761282497,172.748,-1,-1,5.74967098236084,48.00724964208526,-9999,8418.577439500001,0.9508209228515625,0.080963134765625,-0.1615142822265625,8418.572373500001,3.057672444546837,1.407893688697734,-0.07372155177061322,-0.01175124756991863,0.06109600141644478,0.03659951314330101,-0.02805566787719727,0.00955568253993988,0.01047372817993164,2,-0.6474008311357659,-0.0009361589424070754,0.7601047561144596,0.05578586781511126,0.98408043384552,0.07365479320287704,-0.1617425680160522,29.66207885742188,12.27977561950684,16.3389892578125,2,8418.2201085,2,0,1580904702.461275,1580903939.50652,256,0.6844584,0,0,248.2692,1,0,1580904698.683142,8415.86796,0,4.177521,97.15459
1580904702.821786,82,0,1580904337.000819,41.20701635159924,29.07533761282497,172.748,-1,-1,5.74967098236084,48.00724964208526,-9999,8418.5874795,0.9570465087890625,0.0816192626953125,-0.155303955078125,8418.5824445,3.057803908012346,1.40880145689336,-0.07332261322198266,-0.006791376508772373,0.08830071985721588,0.04212557151913643,-0.03378522396087646,0.007680125534534454,-0.0009590387344360352,2,-0.6477440823181907,-0.0008014565491409192,0.7598255122069316,0.05560760723788695,0.984255850315094,0.07325693219900131,-0.1608539223670959,29.66207885742188,12.27977561950684,16.3389892578125,2,8418.2201085,2,0,1580904702.461275,1580903939.50652,256,0.6844584,0,0,248.2692,1,0,1580904698.683142,8415.86796,0,4.177521,97.15459
1580904702.825471,83,0,1580904337.000819,41.20701635159924,29.07533761282497,172.748,-1,-1,5.74967098236084,48.00724964208526,-9999,8418.597519500001,0.96636962890625,0.07794189453125,-0.149658203125,8418.592484500001,3.057924995185405,1.409852917652905,-0.07292102185362649,-0.005379115231335163,0.1037703305482864,0.04224780946969986,-0.02775716781616211,0.008736930787563324,0.004220783710479736,2,-0.648141763291744,-0.0006585593787290234,0.7594993219699065,0.05543236552805407,0.9844534397125244,0.07285641133785248,-0.1598236411809921,29.61353302001953,12.07474517822266,16.63650512695312,2,8418.2201085,2,0,1580904702.461275,1580903939.50652,256,0.6844584,0,0,248.2692,1,0,1580904698.683142,8415.86796,0,4.177521,97.15459
1580904702.834953,84,0,1580904337.000819,41.20701635159924,29.07533761282497,172.748,-1,-1,5.74967098236084,48.00724964208526,-9999,8418.607560500001,0.9755706787109375,0.0771331787109375,-0.1439208984375,8418.6025245,3.058047148735992,1.410923737109379,-0.07257230787921636,-0.007208973169326782,0.1063759624958038,0.0371910035610199,-0.01862955093383789,0.005407482385635376,0.008815944194793701,2,-0.6485468513716185,-0.0005357881887395471,0.7591649894481634,0.05527366140706046,0.9846488833427429,0.07250861823558807,-0.1587733924388885,29.61353302001953,12.07474517822266,16.63650512695312,2,8418.2201085,2,0,1580904702.461275,1580903939.50652,256,0.6844584,0,0,248.2692,1,0,1580904698.683142,8415.86796,0,4.177521,97.15459
1580904702.844944,85,0,1580904337.000819,41.20701635159924,29.07533761282497,172.748,-1,-1,5.74967098236084,48.00724964208526,-9999,8418.6176005,0.977813720703125,0.076019287109375,-0.1396636962890625,8418.612564500001,3.058129816433241,1.411897965811869,-0.07230678116945896,-0.00235376413911581,0.09779100120067596,0.02826941199600697,-0.0096016526222229,0.004863716661930084,0.01359677314758301,2,-0.6489154511262909,-0.0004346742830629996,0.7588585932646855,0.05515670671291192,0.984822154045105,0.07224378734827042,-0.1578170955181122,29.61007690429688,12.20529747009277,16.57565307617188,2,8418.2201085,2,0,1580904702.461275,1580903939.50652,256,0.6844584,0,0,248.2692,1,0,1580904698.683142,8415.86796,0,4.177521,97.15459
1580904702.877583,86,0,1580904337.000819,41.20701635159924,29.07533761282497,172.748,-1,-1,5.74967098236084,48.00724964208526,-9999,8418.627640500001,0.977325439453125,0.077545166015625,-0.1381072998046875,8418.622605500001,3.058198508561078,1.412699850043014,-0.07213733494486901,-0.003995070233941078,0.07798080891370773,0.01761517114937305,-0.007496953010559082,0.003918878734111786,0.01706582307815552,2,-0.6492189413869041,-0.0003704210269881991,0.758604865305484,0.05507601182321725,0.9849604964256287,0.07207478582859039,-0.1570292562246323,29.61007690429688,12.20529747009277,16.57565307617188,2,8418.2201085,2,0,1580904702.461275,1580903939.50652,256,0.6844584,0,0,248.2692,1,0,1580904698.683142,8415.86796,0,4.177521,97.15459
1580904702.879344,87,0,1580904337.000819,41.20701635159924,29.07533761282497,172.748,-1,-1,5.74967098236084,48.00724964208526,-9999,8418.6376805,0.9742279052734375,0.07757568359375,-0.140106201171875,8418.6326455,3.058237207013188,1.41338379769712,-0.07202550536776174,-0.001034687273204327,0.06852728128433228,0.01214583590626717,-0.008100509643554688,0.005556315183639526,0.01794934272766113,2,-0.6494778664356972,-0.0003216449528092302,0.7583867695154816,0.05502526608350392,0.9850754737854004,0.07196325063705444,-0.1563567966222763,29.48362731933594,12.16941070556641,16.5980224609375,2,8418.2201085,2,0,1580904702.461275,1580903939.50652,256,0.6844584,0,0,248.2692,1,0,1580904698.683142,8415.86796,0,4.177521,97.15459
1580904702.880835,88,0,1580904337.000819,41.20701635159924,29.07533761282497,172.748,-1,-1,5.74967098236084,48.00724964208526,-9999,8418.647721500001,0.970367431640625,0.07550048828125,-0.1400146484375,8418.642685500001,3.058281779466502,1.413981892024972,-0.07195318452216243,-0.002731653396040201,0.06014924868941307,0.008146034553647041,-0.01129651069641113,0.005659021437168121,0.01536214351654053,2,-0.6497043106977347,-0.000292175009972015,0.7581958890990885,0.05498506081892093,0.9851741194725037,0.07189111411571503,-0.1557684391736984,29.48362731933594,12.16941070556641,16.5980224609375,2,8418.2201085,2,0,1580904702.461275,1580903939.50652,256,0.6844584,0,0,248.2692,1,0,1580904698.683142,8415.86796,0,4.177521,97.15459
1580904702.885629,89,0,1580904337.000819,41.20701635159924,29.07533761282497,172.748,-1,-1,5.74967098236084,48.00724964208526,-9999,8418.657761500001,0.968780517578125,0.079620361328125,-0.1392364501953125,8418.6527265,3.058354494481416,1.414512272445357,-0.0718544856339926,-0.006258328445255756,0.05164987221360207,0.01133573520928621,-0.01524645090103149,0.003682292997837067,0.01493203639984131,2,-0.649904934644522,-0.0002637180337317219,0.7580282540427552,0.05492561662364087,0.9852636456489563,0.07179266959428787,-0.1552470177412033,29.59033203125,11.93032646179199,16.70416259765625,2,8418.2201085,2,0,1580904702.461275,1580903939.50652,256,0.6844584,0,0,248.2692,1,0,1580904698.683142,8415.86796,0,4.177521,97.15459
1580904702.895406,90,0,1580904337.000819,41.20701635159924,29.07533761282497,172.748,-1,-1,5.74967098236084,48.00724964208526,-9999,8418.667832500001,0.9668731689453125,0.0798492431640625,-0.142425537109375,8418.6627665,3.058411856274407,1.415041778941079,-0.07171871720203753,-0.003336574183776975,0.05325628444552422,0.0150263449177146,-0.01692521572113037,0.007937602698802948,0.015189528465271,2,-0.6501050413785506,-0.0002162479380180549,0.7578613074986399,0.05485996479195698,0.9853551983833313,0.07165724784135818,-0.1547267735004425,29.59033203125,11.93032646179199,16.70416259765625,2,8418.2201085,2,0,1580904702.461275,1580903939.50652,256,0.6844584,0,0,248.2692,1,0,1580904698.683142,8415.86796,0,4.177521,97.15459
1580904702.905232,91,0,1580904337.000819,41.20701635159924,29.07533761282497,172.748,-1,-1,5.74967098236084,48.00724964208526,-9999,8418.6778725,0.96044921875,0.0776824951171875,-0.1422119140625,8418.672806500001,3.058464353350772,1.415597688491641,-0.07156604932734885,-0.003571718232706189,0.05469882488250732,0.01694674417376518,-0.01892930269241333,0.00831882655620575,0.01145428419113159,2,-0.6503150280086254,-0.0001600837065516975,0.7576861737473836,0.05479066722491131,0.985451877117157,0.07150497287511826,-0.1541806757450104,29.67204284667969,12.02831840515137,16.58111572265625,2,8418.2201085,2,0,1580904702.461275,1580903939.50652,256,0.6844584,0,0,248.2692,1,0,1580904698.683142,8415.86796,0,4.177521,97.15459
1580904702.940677,92,0,1580904337.000819,41.20701635159924,29.07533761282497,172.748,-1,-1,5.74967098236084,48.00724964208526,-9999,8418.687912500001,0.9571990966796875,0.0821533203125,-0.1409759521484375,8418.6828465,3.058497289429054,1.416188241725522,-0.0713487251136378,0.0001947903074324131,0.05903498083353043,0.02233192324638367,-0.02545946836471558,0.006368927657604218,0.01108807325363159,2,-0.6505378182564473,-7.209622772298696e-05,0.7575009287703101,0.05470779521517277,0.9855580925941467,0.07128820568323135,-0.1536010801792145,29.67204284667969,12.02831840515137,16.58111572265625,2,8418.2201085,2,0,1580904702.461275,1580903939.50652,256,0.6844584,0,0,248.2692,1,0,1580904698.683142,8415.86796,0,4.177521,97.15459
1580904702.941907,93,0,1580904337.000819,41.20701635159924,29.07533761282497,172.748,-1,-1,5.74967098236084,48.00724964208526,-9999,8418.697953500001,0.961883544921875,0.081451416015625,-0.1420135498046875,8418.692887500001,3.058518913597544,1.416818122222152,-0.071029037854814,0.003362928051501513,0.06258626282215118,0.03282849490642548,-0.02882874011993408,0.01115873456001282,0.01170641183853149,2,-0.6507750151885062,5.94533181507706e-05,0.7573052084999649,0.05459596236976694,0.9856771230697632,0.07096932828426361,-0.1529837548732758,29.63832092285156,12.0108585357666,16.81072998046875,2,8418.2201085,2,0,1580904702.461275,1580903939.50652,256,0.6844584,0,0,248.2692,1,0,1580904698.683142,8415.86796,0,4.177521,97.15459
1580904702.942942,94,0,1580904337.000819,41.20701635159924,29.07533761282497,172.748,-1,-1,5.74967098236084,48.00724964208526,-9999,8418.7079935,0.957122802734375,0.076690673828125,-0.142486572265625,8418.7029275,3.058522265775246,1.417527490127034,-0.07067743325888091,0.005429008509963751,0.07102555781602859,0.03516062349081039,-0.02427732944488525,0.01080766320228577,0.009972929954528809,2,-0.6510420938460647,0.0002111569090889331,0.7570838436247126,0.05448060355937827,0.9858099222183228,0.07061860710382462,-0.1522882878780365,29.59033203125,11.88720703125,16.78176879882812,2,8418.2201085,2,0,1580904702.461275,1580903939.50652,256,0.6844584,0,0,248.2692,1,0,1580904698.683142,8415.86796,0,4.177521,97.15459
1580904702.945502,95,0,1580904337.000819,41.20701635159924,29.07533761282497,172.748,-1,-1,5.74967098236084,48.00724964208526,-9999,8418.718033500001,0.959136962890625,0.074615478515625,-0.137725830078125,8418.7129675,3.058517574608765,1.418248322459719,-0.07032592979857294,0.005441335495561361,0.07159440219402313,0.03512978926301003,-0.02917230129241943,0.006397664546966553,0.008792519569396973,2,-0.6513134158339211,0.0003656709041922751,0.756858395927036,0.05436821634529308,0.9859437942504883,0.07026797533035278,-0.1515814065933228,29.59033203125,11.88720703125,16.78176879882812,2,8418.2201085,2,0,1580904702.461275,1580903939.50652,256,0.6844584,0,0,248.2692,1,0,1580904698.683142,8415.86796,0,4.177521,97.15459
1580904702.955424,96,0,1580904337.000819,41.20701635159924,29.07533761282497,172.748,-1,-1,5.74967098236084,48.00724964208526,-9999,8418.7280735,0.95904541015625,0.0769805908203125,-0.13775634765625,8418.7230385,3.058466687887293,1.418945526941185,-0.06998016169258202,0.01100308075547218,0.06970009207725525,0.03380646556615829,-0.02728766202926636,0.004667505621910095,0.01286923885345459,2,-0.6515757043568365,0.0005323424532679699,0.7566392438140145,0.0542750746459766,0.9860732555389404,0.06992305815219879,-0.1508976370096207,29.56379699707031,11.85453033447266,16.811767578125,2,8418.2201085,2,0,1580904702.461275,1580903939.50652,256,0.6844584,0,0,248.2692,1,0,1580904698.683142,8415.86796,0,4.177521,97.15459
1580904702.965569,97,0,1580904337.000819,41.20701635159924,29.07533761282497,172.748,-1,-1,5.74967098236084,48.00724964208526,-9999,8418.7381145,0.966064453125,0.0760345458984375,-0.133026123046875,8418.733078500001,3.058376503967032,1.419571714724883,-0.06966417540914414,0.01295845024287701,0.06230957806110382,0.03261707350611687,-0.02749556303024292,0.007347926497459412,0.01222407817840576,2,-0.6518111567888872,0.0006985369470322716,0.7564411873683713,0.05420637921165095,0.9861893653869629,0.06960783898830414,-0.1502834558486938,29.56379699707031,11.85453033447266,16.811767578125,2,8418.2201085,2,0,1580904702.461275,1580903939.50652,256,0.6844584,0,0,248.2692,1,0,1580904698.683142,8415.86796,0,4.177521,97.15459
1580904703.002037,98,0,1580904337.000819,41.20701635159924,29.07533761282497,172.748,-1,-1,5.74967098236084,48.00724964208526,-9999,8418.748154500001,0.970428466796875,0.0674285888671875,-0.1349029541015625,8418.743119500001,3.058256210413273,1.420120290079077,-0.06952102528155217,0.0139014758169651,0.05269529670476913,0.01454938948154449,-0.0205686092376709,0.00654476135969162,0.01641488075256348,2,-0.6520179232995568,0.0008068918413319109,0.7562630792244421,0.05420516838144152,0.9862816333770752,0.0694650411605835,-0.1497439593076706,29.66543579101562,11.92599868774414,16.695556640625,2,8418.2201085,2,0,1580904702.461275,1580903939.50652,256,0.6844584,0,0,248.2692,1,0,1580904698.683142,8415.86796,0,4.177521,97.15459
1580904703.003282,99,0,1580904337.000819,41.20701635159924,29.07533761282497,172.748,-1,-1,5.74967098236084,48.00724964208526,-9999,8418.7581945,0.982330322265625,0.06256103515625,-0.1402740478515625,8418.7531595,3.058160748164776,1.420797428844188,-0.06967547869427224,0.007312142755836248,0.06982304900884628,-0.01674358919262886,-0.01629519462585449,-0.002215355634689331,0.01386827230453491,2,-0.6522745825218675,0.0007978454502560739,0.7560355632546503,0.05429118202185509,0.986372172832489,0.06961911916732788,-0.1490744650363922,29.66543579101562,11.92599868774414,16.695556640625,2,8418.2201085,2,0,1580904702.461275,1580903939.50652,256,0.6844584,0,0,248.2692,1,0,1580904698.683142,8415.86796,0,4.177521,97.15459
1580904703.004297,100,0,1580904337.000819,41.20701635159924,29.07533761282497,172.748,-1,-1,5.74967098236084,48.00724964208526,-9999,8418.768239125,1.001327514648438,0.0642852783203125,-0.1301116943359375,8418.763199500001,3.058124011677689,1.421495029405358,-0.07012543655981901,-0.003589773550629616,0.07121081650257111,-0.04447801411151886,-0.00446617603302002,-0.007531911134719849,0.007803976535797119,2,-0.6525402199602215,0.0006582999873781387,0.7557949097588528,0.05445109246761055,0.9864448308944702,0.07006797939538956,-0.1483816504478455,29.82027435302734,11.92862892150879,16.6746826171875,2,8418.2201085,2,0,1580904702.461275,1580903939.50652,256,0.6844584,0,0,248.2692,1,0,1580904698.683142,8415.86796,0,4.177521,97.15459
1580904703.005697,101,0,1580904337.000819,41.20701635159924,29.07533761282497,172.748,-1,-1,5.74967098236084,48.00724964208526,-9999,8418.778279125001,1.004928588867188,0.067047119140625,-0.12298583984375,8418.773243125001,3.058096423453606,1.421975807193697,-0.07081648248247885,-0.006488119717687368,0.04907882213592529,-0.06834685802459717,0.01450783014297485,-0.006497249007225037,0.01748478412628174,2,-0.6527248555627124,0.0004186458457273723,0.7556187195321667,0.05468612043651583,0.9864680171012878,0.07075730711221695,-0.147900179028511,29.82027435302734,11.92862892150879,16.6746826171875,2,8418.2201085,2,0,1580904702.461275,1580903939.50652,256,0.6844584,0,0,248.2692,1,0,1580904698.683142,8415.86796,0,4.177521,97.15459
1580904703.015989,102,0,1580904337.000819,41.20701635159924,29.07533761282497,172.748,-1,-1,5.74967098236084,48.00724964208526,-9999,8418.788319125,0.9908294677734375,0.0764007568359375,-0.121002197265625,8418.783284125,3.058116890151132,1.422084806384179,-0.07161051678162253,-0.01381474174559116,0.008888522163033485,-0.07808683812618256,0.01814848184585571,-0.004527747631072998,0.02449440956115723,2,-0.6527693672613079,0.0001142013197584502,0.7555622065145493,0.05493663195704077,0.9864282608032227,0.07154932618141174,-0.1477842777967453,29.57741546630859,12.16335868835449,16.75137329101562,2,8418.2201085,2,0,1580904702.461275,1580903939.50652,256,0.6844584,0,0,248.2692,1,0,1580904698.683142,8415.86796,0,4.177521,97.15459
1580904703.025814,103,0,1580904337.000819,41.20701635159924,29.07533761282497,172.748,-1,-1,5.74967098236084,48.00724964208526,-9999,8418.798390125001,0.959625244140625,0.08135986328125,-0.1358489990234375,8418.793324125001,3.058158042027573,1.422041040585014,-0.0724067515194086,-0.01635386794805527,-0.007758127525448799,-0.07889001816511154,0.004112660884857178,0.004031427204608917,0.0265127420425415,2,-0.6527560727876049,-0.0002020214320011815,0.755555808174316,0.05518004803444966,0.9863649606704712,0.07234349846839905,-0.1478189378976822,29.57741546630859,12.16335868835449,16.75137329101562,2,8418.2201085,2,0,1580904702.461275,1580903939.50652,256,0.6844584,0,0,248.2692,1,0,1580904698.683142,8415.86796,0,4.177521,97.15459
1580904703.057828,104,0,1580904337.000819,41.20701635159924,29.07533761282497,172.748,-1,-1,5.74967098236084,48.00724964208526,-9999,8418.808430125,0.950408935546875,0.085601806640625,-0.14208984375,8418.803364125,3.058171713228338,1.422181690416502,-0.07311387783131346,-0.01204673759639263,0.01424091495573521,-0.06941502541303635,-0.0270615816116333,0.008285060524940491,0.01151955127716064,2,-0.6528119787653206,-0.0004704191109967115,0.7554909608130477,0.05540489662631598,0.9863349795341492,0.07304875552654266,-0.1476725935935974,29.61829376220703,12.07539367675781,17.0234375,2,8418.2201085,2,0,1580904702.461275,1580903939.50652,256,0.6844584,0,0,248.2692,1,0,1580904698.683142,8415.86796,0,4.177521,97.15459
1580904703.059214,105,0,1580904337.000819,41.20701635159924,29.07533761282497,172.748,-1,-1,5.74967098236084,48.00724964208526,-9999,8418.818471125,0.958953857421875,0.083984375,-0.138946533203125,8418.813405125,3.058172343571651,1.422472266482596,-0.073713694259604,-0.0095549076795578,0.02876533567905426,-0.05961349979043007,-0.036277174949646,0.01192858070135117,0.004985392093658447,2,-0.6529240298059773,-0.0006897243983455953,0.7553795596503775,0.05559984408427621,0.9863342642784119,0.07364695519208908,-0.1473794728517532,29.61829376220703,12.07539367675781,17.0234375,2,8418.2201085,2,0,1580904702.461275,1580903939.50652,256,0.6844584,0,0,248.2692,1,0,1580904698.683142,8415.86796,0,4.177521,97.15459
1580904703.060385,106,0,1580904337.000819,41.20701635159924,29.07533761282497,172.748,-1,-1,5.74967098236084,48.00724964208526,-9999,8418.828511125001,0.947906494140625,0.079803466796875,-0.1448211669921875,8418.823445125001,3.058176593544437,1.422978179779849,-0.07421556078262508,-0.008599631488323212,0.04830548167228699,-0.04883754998445511,-0.02777016162872314,0.009810484945774078,0.007624149322509766,2,-0.6531169407542913,-0.0008670534616486564,0.7552008067704103,0.05576172258790668,0.986372172832489,0.07414744794368744,-0.1468750238418579,29.46684265136719,12.09664344787598,16.88726806640625,2,8418.2201085,2,0,1580904702.461275,1580903939.50652,256,0.6844584,0,0,248.2692,1,0,1580904698.683142,8415.86796,0,4.177521,97.15459
1580904703.065994,107,0,1580904337.000819,41.20701635159924,29.07533761282497,172.748,-1,-1,5.74967098236084,48.00724964208526,-9999,8418.838551125,0.951416015625,0.0806732177734375,-0.143341064453125,8418.833485125,3.058176144447831,1.42378186248255,-0.07467756409151037,-0.007437270600348711,0.07987161725759506,-0.04578375443816185,-0.03890144824981689,0.00516866147518158,0.0009512901306152344,2,-0.6534220392768462,-0.001019360216959198,0.7549254392599677,0.05591263195112181,0.9864558577537537,0.07460817694664001,-0.1460772007703781,29.46684265136719,12.09664344787598,16.88726806640625,2,8418.2201085,2,0,1580904702.461275,1580903939.50652,256,0.6844584,0,0,248.2692,1,0,1580904698.683142,8415.86796,0,4.177521,97.15459
1580904703.075934,108,0,1580904337.000819,41.20701635159924,29.07533761282497,172.748,-1,-1,5.74967098236084,48.00724964208526,-9999,8418.848591125001,0.95794677734375,0.082000732421875,-0.136077880859375,8418.843525125001,3.058178591337994,1.424762850229805,-0.07511006508027192,-0.006334987934678793,0.09931669384241104,-0.04288969933986664,-0.03550291061401367,0.005606956779956818,0.001458406448364258,2,-0.6537937775828047,-0.001156358892119444,0.7545929048169155,0.05605307404891732,0.9865666627883911,0.07503946125507355,-0.1451047211885452,29.42432403564453,12.12076187133789,17.045166015625,2,8418.2201085,2,0,1580904702.461275,1580903939.50652,256,0.6844584,0,0,248.2692,1,0,1580904698.683142,8415.86796,0,4.177521,97.15459
1580904703.085988,109,0,1580904337.000819,41.20701635159924,29.07533761282497,172.748,-1,-1,5.74967098236084,48.00724964208526,-9999,8418.858632125,0.96356201171875,0.0845489501953125,-0.127471923828125,8418.853596125,3.058171979747883,1.425726127088278,-0.07553232027257059,-0.00396592216566205,0.09489377588033676,-0.04124809801578522,-0.0290798544883728,0.00651327520608902,0.007766246795654297,2,-0.6541586152621314,-0.001286884750439948,0.754265858983733,0.05619372142797807,0.9866743683815002,0.0754605233669281,-0.1441497057676315,29.42432403564453,12.12076187133789,17.045166015625,2,8418.2201085,2,0,1580904702.461275,1580903939.50652,256,0.6844584,0,0,248.2692,1,0,1580904698.683142,8415.86796,0,4.177521,97.15459
1580904703.115578,110,0,1580904337.000819,41.20701635159924,29.07533761282497,172.748,-1,-1,5.74967098236084,48.00724964208526,-9999,8418.868672125,0.98663330078125,0.0771942138671875,-0.1239013671875,8418.863637125001,3.058159636995562,1.426566910041487,-0.07609817450906874,-0.007001393008977175,0.08495166152715683,-0.05556605383753777,-0.02354317903518677,0.008497059345245361,0.01553618907928467,2,-0.6544775525932833,-0.001473126003032579,0.7539747179578022,0.05638340795153179,0.9867529273033142,0.07602474838495255,-0.143313929438591,29.52828979492188,12.10068702697754,17.07211303710938,2,8418.861622125001,4,2,1580904703.102788,1580903939.50652,256,0.6844584,0,0,248.2692,1,0,1580904698.683142,8415.86796,0,4.177521,97.15459
1580904703.116982,111,0,1580904337.000819,41.20701635159924,29.07533761282497,172.748,-1,-1,5.74967098236084,48.00724964208526,-9999,8418.878712125001,1.000335693359375,0.0707855224609375,-0.122161865234375,8418.873677125001,3.058155825430693,1.427199201056939,-0.07694994963905555,-0.01292764395475388,0.0618169829249382,-0.0831867903470993,-0.0004980564117431641,0.0002927109599113464,0.01847302913665771,2,-0.654718653688224,-0.001775958137975819,0.7537437225419171,0.05666311517915346,0.9867789149284363,0.0768740326166153,-0.1426806598901749,29.52828979492188,12.10068702697754,17.07211303710938,2,8418.861622125001,4,2,1580904703.102788,1580903939.50652,256,0.6844584,0,0,248.2692,1,0,1580904698.683142,8415.86796,0,4.177521,97.15459
1580904703.118052,112,0,1580904337.000819,41.20701635159924,29.07533761282497,172.748,-1,-1,5.74967098236084,48.00724964208526,-9999,8418.888753125,1.00372314453125,0.0753173828125,-0.1168670654296875,8418.883717125,3.05816016766156,1.427580875975457,-0.07808184865857751,-0.01744223386049271,0.03908450901508331,-0.1119409427046776,0.01323693990707397,-0.007244855165481567,0.01982349157333374,2,-0.6548659628555316,-0.002194265113417054,0.7535868856248998,0.05703105445010066,0.9867465496063232,0.07800253480672836,-0.1422915160655975,29.35532379150391,12.22724533081055,17.1697998046875,2,8418.861622125001,4,2,1580904703.102788,1580903939.50652,256,0.6844584,0,0,248.2692,1,0,1580904698.683142,8415.86796,0,4.177521,97.15459
1580904703.126203,113,0,1580904337.000819,41.20701635159924,29.07533761282497,172.748,-1,-1,5.74967098236084,48.00724964208526,-9999,8418.898793125001,0.99481201171875,0.0813140869140625,-0.1180877685546875,8418.893757125001,3.058209772819882,1.427649080081715,-0.07936001235576808,-0.02344593964517117,0.003790384158492088,-0.1240156590938568,0.01671445369720459,-0.003987647593021393,0.02503681182861328,2,-0.6548952692443437,-0.002691511749036951,0.753529618421272,0.05742938814887048,0.9866568446159363,0.07927674055099487,-0.1422098875045776,29.35532379150391,12.22724533081055,17.1697998046875,2,8418.861622125001,4,2,1580904703.102788,1580903939.50652,256,0.6844584,0,0,248.2692,1,0,1580904698.683142,8415.86796,0,4.177521,97.15459
1580904703.136226,114,0,1580904337.000819,41.20701635159924,29.07533761282497,172.748,-1,-1,5.74967098236084,48.00724964208526,-9999,8418.908833125,0.974853515625,0.0848236083984375,-0.13232421875,8418.903798125,3.058291688312703,1.427737067640584,-0.08072064957098345,-0.02814934961497784,0.008048245683312416,-0.1327551007270813,0.007898688316345215,0.0006523281335830688,0.02371394634246826,2,-0.6549318965722934,-0.003229903262663952,0.7534640547199269,0.05784249191173355,0.98656165599823,0.0806330144405365,-0.1421075612306595,29.52644348144531,12.23688507080078,17.30731201171875,2,8418.861622125001,4,2,1580904703.102788,1580903939.50652,256,0.6844584,0,0,248.2692,1,0,1580904698.683142,8415.86796,0,4.177521,97.15459
1580904703.146219,115,0,1580904337.000819,41.20701635159924,29.07533761282497,172.748,-1,-1,5.74967098236084,48.00724964208526,-9999,8418.918873125,0.973480224609375,0.0907135009765625,-0.1300201416015625,8418.913838125001,3.058359468086616,1.427972811946542,-0.08207816541432712,-0.02466239780187607,0.0243231114000082,-0.1330989301204681,-0.01198399066925049,0.002808332443237305,0.009229063987731934,2,-0.6550238511357381,-0.003758144876935515,0.753349455761803,0.05826020366642505,0.9864858388900757,0.08198603987693787,-0.1418592631816864,29.52644348144531,12.23688507080078,17.30731201171875,2,8418.861622125001,4,2,1580904703.102788,1580903939.50652,256,0.6844584,0,0,248.2692,1,0,1580904698.683142,8415.86796,0,4.177521,97.15459
1580904703.175654,116,0,1580904337.000819,41.20701635159924,29.07533761282497,172.748,-1,-1,5.74967098236084,48.00724964208526,-9999,8418.928914125001,0.9709320068359375,0.08599853515625,-0.1335601806640625,8418.923878125001,3.058468489687497,1.428395273703092,-0.08346972603049227,-0.03224495053291321,0.04284726083278656,-0.1365013867616653,-0.01330304145812988,0.007310941815376282,0.01109999418258667,2,-0.6551857544355374,-0.0043071813615259,0.7531734994809034,0.05867399021777349,0.9864316582679749,0.08337283134460449,-0.141426146030426,29.58914947509766,12.20749092102051,17.35482788085938,2,8418.861622125001,4,2,1580904703.102788,1580903939.50652,256,0.6844584,0,0,248.2692,1,0,1580904698.683142,8415.86796,0,4.177521,97.15459
1580904703.177116,117,0,1580904337.000819,41.20701635159924,29.07533761282497,172.748,-1,-1,5.74967098236084,48.00724964208526,-9999,8418.938984125001,0.9749908447265625,0.0886993408203125,-0.12811279296875,8418.933919125,3.058562093768429,1.42895221119481,-0.08491428930809612,-0.02994677610695362,0.05461077392101288,-0.1406671404838562,-0.01580947637557983,0.001156046986579895,0.006993293762207031,2,-0.6553979830830521,-0.004867023838978995,0.7529512962681602,0.05911142498541763,0.9863901138305664,0.08481228351593018,-0.1408595889806747,29.58914947509766,12.20749092102051,17.35482788085938,2,8418.861622125001,4,2,1580904703.102788,1580903939.50652,256,0.6844584,0,0,248.2692,1,0,1580904698.683142,8415.86796,0,4.177521,97.15459
1580904703.178189,118,0,1580904337.000819,41.20701635159924,29.07533761282497,172.748,-1,-1,5.74967098236084,48.00724964208526,-9999,8418.949025125001,0.9764556884765625,0.0930938720703125,-0.1273956298828125,8418.943959125001,3.05865633023148,1.429569696779656,-0.08638910742564565,-0.0300008375197649,0.06018583476543427,-0.1444379091262817,-0.01171249151229858,0.002386912703514099,0.01181352138519287,2,-0.6556325857014477,-0.005436453108884465,0.7527078003129463,0.0595589459126243,0.9863519668579102,0.08628169447183609,-0.1402327120304108,29.48554992675781,12.34674835205078,17.41409301757812,2,8418.861622125001,4,2,1580904703.102788,1580903939.50652,256,0.6844584,0,0,248.2692,1,0,1580904698.683142,8415.86796,0,4.177521,97.15459
1580904703.186413,119,0,1580904337.000819,41.20701635159924,29.07533761282497,172.748,-1,-1,5.74967098236084,48.00724964208526,-9999,8418.959065125,0.975311279296875,0.0932464599609375,-0.1312408447265625,8418.953999125,3.058758575633938,1.43033368623379,-0.08787655403659993,-0.03013011813163757,0.0734625831246376,-0.1452669203281403,-0.01022630929946899,0.005299106240272522,0.01175874471664429,2,-0.6559217964705182,-0.006008599149026156,0.7524157191503895,0.06000834845597243,0.9863306283950806,0.08776349574327469,-0.1394609808921814,29.48554992675781,12.34674835205078,17.41409301757812,2,8418.861622125001,4,2,1580904703.102788,1580903939.50652,256,0.6844584,0,0,248.2692,1,0,1580904698.683142,8415.86796,0,4.177521,97.15459
1580904703.196535,120,0,1580904337.000819,41.20701635159924,29.07533761282497,172.748,-1,-1,5.74967098236084,48.00724964208526,-9999,8418.969105125001,0.9760284423828125,0.094482421875,-0.1274566650390625,8418.964039125001,3.058866688160479,1.431271016584085,-0.08939905641197689,-0.03089684247970581,0.09374415874481201,-0.14860999584198,-0.0113677978515625,0.003934629261493683,0.006969749927520752,2,-0.6562756530035595,-0.006590307526882305,0.7520654383407845,0.06046798795204783,0.9863274693489075,0.08928002417087555,-0.1385176628828049,29.36516571044922,12.53550720214844,17.61264038085938,2,8418.861622125001,4,2,1580904703.102788,1580903939.50652,256,0.6844584,0,0,248.2692,1,0,1580904698.683142,8415.86796,0,4.177521,97.15459
1580904703.206487,121,0,1580904337.000819,41.20701635159924,29.07533761282497,172.748,-1,-1,5.74967098236084,48.00724964208526,-9999,8418.979146125001,0.977783203125,0.0975799560546875,-0.121551513671875,8418.974080125001,3.05897487337459,1.432139599051391,-0.0909751839963432,-0.03382714837789536,0.08203550428152084,-0.1556673496961594,-0.01063001155853271,0.003600269556045532,0.009877145290374756,2,-0.6566030776831954,-0.007193924043615504,0.7517355054538711,0.06094540974590716,0.9863068461418152,0.09084974229335785,-0.1376412957906723,29.36516571044922,12.53550720214844,17.61264038085938,2,8418.861622125001,4,2,1580904703.102788,1580903939.50652,256,0.6844584,0,0,248.2692,1,0,1580904698.683142,8415.86796,0,4.177521,97.15459
1580904703.239018,122,0,1580904337.000819,41.20701635159924,29.07533761282497,172.748,-1,-1,5.74967098236084,48.00724964208526,-9999,8418.989186125,0.981231689453125,0.101715087890625,-0.11822509765625,8418.984150125001,3.059053815333996,1.432887370217288,-0.09257543891343376,-0.03021963126957417,0.07495229691267014,-0.1568750888109207,-0.008832633495330811,0.005103729665279388,0.01502430438995361,2,-0.6568845941963374,-0.007800321405393912,0.7514431089317699,0.06144174249797871,0.9862642884254456,0.09244326502084732,-0.1368835717439651,29.27738952636719,12.46407890319824,17.35662841796875,2,8418.861622125001,4,2,1580904703.102788,1580903939.50652,256,0.6844584,0,0,248.2692,1,0,1580904698.683142,8415.86796,0,4.177521,97.15459
1580904703.240347,123,0,1580904337.000819,41.20701635159924,29.07533761282497,172.748,-1,-1,5.74967098236084,48.00724964208526,-9999,8418.999226125001,0.98052978515625,0.11004638671875,-0.1137542724609375,8418.994191125001,3.059118187107634,1.433345791912514,-0.09413010364386779,-0.02698151022195816,0.04263791441917419,-0.1549955159425735,-0.005303263664245605,0.007690444588661194,0.01787865161895752,2,-0.6570568971353853,-0.008393337636709325,0.7512461381297287,0.06192784394857441,0.9861833453178406,0.09399116039276123,-0.13641157746315,29.27738952636719,12.46407890319824,17.35662841796875,2,8418.861622125001,4,2,1580904703.102788,1580903939.50652,256,0.6844584,0,0,248.2692,1,0,1580904698.683142,8415.86796,0,4.177521,97.15459
1580904703.241488,124,0,1580904337.000819,41.20701635159924,29.07533761282497,172.748,-1,-1,5.74967098236084,48.00724964208526,-9999,8419.009266125,0.9550628662109375,0.1068115234375,-0.1241302490234375,8419.004231125,3.059208714896778,1.433754740308029,-0.09548638714438554,-0.02818046696484089,0.03890229761600494,-0.1322579830884933,-0.005933463573455811,0.01467106491327286,0.02192860841751099,2,-0.6572100422488616,-0.008921506472786903,0.751072114774558,0.06233924973239315,0.9861119389533997,0.09534135460853577,-0.1359907388687134,29.31855010986328,12.6904125213623,17.5726318359375,2,8418.861622125001,4,2,1580904703.102788,1580903939.50652,256,0.6844584,0,0,248.2692,1,0,1580904698.683142,8415.86796,0,4.177521,97.15459
1580904703.246813,125,0,1580904337.000819,41.20701635159924,29.07533761282497,172.748,-1,-1,5.74967098236084,48.00724964208526,-9999,8419.019307125,0.958709716796875,0.1102447509765625,-0.1221923828125,8419.014271125001,3.059251989845586,1.434261524130957,-0.09671914502252006,-0.02322554029524326,0.05409184843301773,-0.1170478165149689,-0.03135192394256592,0.01020871847867966,0.01103663444519043,2,-0.6573998032026379,-0.009384368700923323,0.7508679227935008,0.06272862994741041,0.986063539981842,0.09656842052936554,-0.1354748606681824,29.31855010986328,12.6904125213623,17.5726318359375,2,8418.861622125001,4,2,1580904703.102788,1580903939.50652,256,0.6844584,0,0,248.2692,1,0,1580904698.683142,8415.86796,0,4.177521,97.15459
1580904703.257178,126,0,1580904337.000819,41.20701635159924,29.07533761282497,172.748,-1,-1,5.74967098236084,48.00724964208526,-9999,8419.029347125001,0.9759521484375,0.1058807373046875,-0.113250732421875,8419.024312125001,3.059261612478061,1.434551722331012,-0.09789015353792237,-0.02042948640882969,0.02614117227494717,-0.1104250699281693,-0.02763146162033081,0.01247601956129074,0.01267272233963013,2,-0.6575081424487594,-0.009819544088650572,0.7507354789583706,0.06310958325666603,0.9859899878501892,0.09773389250040054,-0.1351732313632965,29.22454071044922,12.54941368103027,17.76321411132812,2,8418.861622125001,4,2,1580904703.102788,1580903939.50652,256,0.6844584,0,0,248.2692,1,0,1580904698.683142,8415.86796,0,4.177521,97.15459
1580904703.266781,127,0,1580904337.000819,41.20701635159924,29.07533761282497,172.748,-1,-1,5.74967098236084,48.00724964208526,-9999,8419.039387125,0.967987060546875,0.1087188720703125,-0.1144561767578125,8419.034352125,3.059258197039408,1.434618322464513,-0.09897112756715719,-0.0140071976929903,0.004939474165439606,-0.1047104001045227,-0.01029247045516968,0.007035963237285614,0.02153480052947998,2,-0.6575324268702105,-0.0102234937619463,0.7506790058844083,0.06346493644425653,0.9858939051628113,0.0988096296787262,-0.1350931823253632,29.22454071044922,12.54941368103027,17.76321411132812,2,8418.861622125001,4,2,1580904703.102788,1580903939.50652,256,0.6844584,0,0,248.2692,1,0,1580904698.683142,8415.86796,0,4.177521,97.15459
1580904703.298585,128,0,1580904337.000819,41.20701635159924,29.07533761282497,172.748,-1,-1,5.74967098236084,48.00724964208526,-9999,8419.049428125001,0.9629364013671875,0.1080474853515625,-0.12567138671875,8419.044392125001,3.059272395700964,1.434685011263073,-0.09998266247786443,-0.01331557426601648,0.005619380623102188,-0.09969380497932434,-0.01816707849502563,0.008867181837558746,0.02024960517883301,2,-0.6575565401492438,-0.0106070613033422,0.7506248009141252,0.06379095487958568,0.9858032464981079,0.09981616586446762,-0.1350137740373611,29.41331481933594,12.837890625,17.66036987304688,2,8418.861622125001,4,2,1580904703.102788,1580903939.50652,256,0.6844584,0,0,248.2692,1,0,1580904698.683142,8415.86796,0,4.177521,97.15459
1580904703.299901,129,0,1580904337.000819,41.20701635159924,29.07533761282497,172.748,-1,-1,5.74967098236084,48.00724964208526,-9999,8419.059468125,0.975555419921875,0.1016693115234375,-0.12640380859375,8419.054432125,3.059340762816023,1.434897550278559,-0.1009753552713042,-0.01992842182517052,0.02130189724266529,-0.09569748491048813,-0.02314776182174683,0.00720774382352829,0.008811414241790771,2,-0.6576349226717684,-0.0109966368067312,0.7505249745624968,0.06409129711520647,0.9857332706451416,0.1008038520812988,-0.134790763258934,29.41331481933594,12.837890625,17.66036987304688,2,8418.861622125001,4,2,1580904703.102788,1580903939.50652,256,0.6844584,0,0,248.2692,1,0,1580904698.683142,8415.86796,0,4.177521,97.15459
1580904703.301018,130,0,1580904337.000819,41.20701635159924,29.07533761282497,172.748,-1,-1,5.74967098236084,48.00724964208526,-9999,8419.069539125001,0.989044189453125,0.1095123291015625,-0.1104736328125,8419.064473125001,3.059383980996226,1.435023698214609,-0.1020291618885016,-0.01887993514537811,0.01471723429858685,-0.1018611043691635,-0.01043987274169922,-0.0002191439270973206,0.007940351963043213,2,-0.657680748210528,-0.01140367045078346,0.7504506405248399,0.06442065614873935,0.9856446385383606,0.1018522307276726,-0.1346519738435745,29.24090576171875,12.90301513671875,17.67550659179688,2,8418.861622125001,4,2,1580904703.102788,1580903939.50652,256,0.6844584,0,0,248.2692,1,0,1580904698.683142,8415.86796,0,4.177521,97.15459
1580904703.306915,131,0,1580904337.000819,41.20701635159924,29.07533761282497,172.748,-1,-1,5.74967098236084,48.00724964208526,-9999,8419.079579125,0.996063232421875,0.115966796875,-0.100067138671875,8419.074513125001,3.059317832875067,1.43464081163803,-0.1031889618062634,-0.008097480051219463,-0.03983497619628906,-0.1180251911282539,0.003218293190002441,0.006469748914241791,0.0242316722869873,2,-0.6575358709362338,-0.01183111737401704,0.7505361865481307,0.06482275283946395,0.9854750633239746,0.1030059307813644,-0.1350132077932358,29.24090576171875,12.90301513671875,17.67550659179688,2,8418.861622125001,4,2,1580904703.102788,1580903939.50652,256,0.6844584,0,0,248.2692,1,0,1580904698.683142,8415.86796,0,4.177521,97.15459
1580904703.317462,132,0,1580904337.000819,41.20701635159924,29.07533761282497,172.748,-1,-1,5.74967098236084,48.00724964208526,-9999,8419.089619125001,0.9855804443359375,0.1223297119140625,-0.10345458984375,8419.084553125,3.059158771639464,1.433808583563729,-0.1044168581946325,-0.004259066190570593,-0.08128095418214798,-0.1180941611528397,0.01047629117965698,0.01170249283313751,0.03544139862060547,2,-0.657222577053982,-0.01226848504326435,0.7507640565271395,0.06527906119780365,0.9852364063262939,0.1042272225022316,-0.1358159333467484,29.46347808837891,13.03387451171875,17.62570190429688,2,8418.861622125001,4,2,1580904703.102788,1580903939.50652,256,0.6844584,0,0,248.2692,1,0,1580904698.683142,8415.86796,0,4.177521,97.15459
1580904703.326998,133,0,1580904337.000819,41.20701635159924,29.07533761282497,172.748,-1,-1,5.74967098236084,48.00724964208526,-9999,8419.099660125001,0.973876953125,0.103271484375,-0.124237060546875,8419.094594125001,3.05899649442733,1.432763464763101,-0.1056592431346183,-0.008853312581777573,-0.1082047820091248,-0.1153090223670006,0.0002651214599609375,0.01682942360639572,0.03306597471237183,2,-0.6568290814662709,-0.01271763307350461,0.7510607627546714,0.06573957399626251,0.9849650263786316,0.1054627597332001,-0.1368276327848434,29.46347808837891,13.03387451171875,17.62570190429688,2,8418.861622125001,4,2,1580904703.102788,1580903939.50652,256,0.6844584,0,0,248.2692,1,0,1580904698.683142,8415.86796,0,4.177521,97.15459
1580904703.357832,134,0,1580904337.000819,41.20701635159924,29.07533761282497,172.748,-1,-1,5.74967098236084,48.00724964208526,-9999,8419.109700125,0.96014404296875,0.1132354736328125,-0.126251220703125,8419.104634125,3.058799487448239,1.431884656096891,-0.1069137760120669,0.00528620881959796,-0.08386321365833282,-0.1272144168615341,-0.01118588447570801,-0.003476686775684357,0.01313096284866333,2,-0.6564979626047477,-0.01315494148656085,0.7513006446602063,0.06621770718386952,0.9847124814987183,0.106710210442543,-0.1376747488975525,29.25874328613281,13.00465774536133,17.68438720703125,2,8418.861622125001,4,2,1580904703.102788,1580903939.50652,256,0.6844584,0,0,248.2692,1,0,1580904698.683142,8415.86796,0,4.177521,97.15459
1580904703.359207,135,0,1580904337.000819,41.20701635159924,29.07533761282497,172.748,-1,-1,5.74967098236084,48.00724964208526,-9999,8419.119740125001,0.9554443359375,0.1087646484375,-0.132843017578125,8419.114674125001,3.058657918614351,1.431216576425121,-0.1081398671923608,-0.002085648477077484,-0.06657400727272034,-0.1226202175021172,-0.02469611167907715,0.005267858505249023,0.01175647974014282,2,-0.6562454540329442,-0.01359310288021474,0.751473657204984,0.06666675070175526,0.984489917755127,0.1079292222857475,-0.1383142620325089,29.25874328613281,13.00465774536133,17.68438720703125,2,8418.861622125001,4,2,1580904703.102788,1580903939.50652,256,0.6844584,0,0,248.2692,1,0,1580904698.683142,8415.86796,0,4.177521,97.15459
1580904703.360201,136,0,1580904337.000819,41.20701635159924,29.07533761282497,172.748,-1,-1,5.74967098236084,48.00724964208526,-9999,8419.129780125,0.9515228271484375,0.1094207763671875,-0.1359710693359375,8419.124745125,3.05855114524431,1.430812436637416,-0.1093400330585594,-0.006595178972929716,-0.04058768600225449,-0.1176398396492004,-0.02921068668365479,-0.000396430492401123,0.005544722080230713,2,-0.6560917126640995,-0.01402433113660512,0.7515618696613595,0.06709579777690508,0.9843050837516785,0.1091222986578941,-0.1386939585208893,29.33010101318359,13.29189682006836,17.68524169921875,2,8418.861622125001,4,2,1580904703.102788,1580903939.50652,256,0.6844584,0,0,248.2692,1,0,1580904698.683142,8415.86796,0,4.177521,97.15459
1580904703.367243,137,0,1580904337.000819,41.20701635159924,29.07533761282497,172.748,-1,-1,5.74967098236084,48.00724964208526,-9999,8419.139821125,0.958099365234375,0.1163787841796875,-0.12677001953125,8419.134785125001,3.058460752332687,1.430603579182337,-0.110481834549772,-0.005898106377571821,-0.01802756264805794,-0.1137041673064232,-0.03297907114028931,-0.0008756369352340698,0.002604842185974121,2,-0.6560111952945304,-0.0144324935961334,0.751588093536888,0.06750085242883476,0.9841520190238953,0.1102572083473206,-0.1388820260763168,29.33010101318359,13.29189682006836,17.68524169921875,2,8418.861622125001,4,2,1580904703.102788,1580903939.50652,256,0.6844584,0,0,248.2692,1,0,1580904698.683142,8415.86796,0,4.177521,97.15459
1580904703.377204,138,0,1580904337.000819,41.20701635159924,29.07533761282497,172.748,-1,-1,5.74967098236084,48.00724964208526,-9999,8419.149861125001,0.96710205078125,0.113983154296875,-0.126129150390625,8419.144826125001,3.058409558078818,1.430476398733952,-0.1115987209328824,-0.01173628773540258,-0.01210522558540106,-0.1098415181040764,-0.02626186609268188,0.004972025752067566,0.01191407442092896,2,-0.6559609665799659,-0.01484141556745583,0.7515895118784467,0.06788354663027914,0.9840117692947388,0.1113672181963921,-0.1389898806810379,29.44942474365234,13.26597023010254,17.88302612304688,2,8418.861622125001,4,2,1580904703.102788,1580903939.50652,256,0.6844584,0,0,248.2692,1,0,1580904698.683142,8415.86796,0,4.177521,97.15459
1580904703.387127,139,0,1580904337.000819,41.20701635159924,29.07533761282497,172.748,-1,-1,5.74967098236084,48.00724964208526,-9999,8419.159901125,0.977935791015625,0.121002197265625,-0.1154022216796875,8419.154866125,3.058331775863241,1.43030868311587,-0.1127784106738843,-0.007512105163186789,-0.01472386252135038,-0.1193447932600975,-0.01710492372512817,0.001403704285621643,0.01270151138305664,2,-0.6558953594618975,-0.0152667483795768,0.7516007618039324,0.06829633041211977,0.9838575720787048,0.1125394925475121,-0.139136403799057,29.44942474365234,13.26597023010254,17.88302612304688,2,8418.861622125001,4,2,1580904703.102788,1580903939.50652,256,0.6844584,0,0,248.2692,1,0,1580904698.683142,8415.86796,0,4.177521,97.15459
1580904703.417655,140,0,1580904337.000819,41.20701635159924,29.07533761282497,172.748,-1,-1,5.74967098236084,48.00724964208526,-9999,8419.169941125001,0.976715087890625,0.124969482421875,-0.111572265625,8419.164906125001,3.058224765642199,1.429974282144795,-0.1139911797762257,-0.005935513880103827,-0.03340061008930206,-0.1241904199123383,-0.006088435649871826,0.007217369973659515,0.0237385630607605,2,-0.6557670376375984,-0.01570076521524229,0.7516643750554179,0.06872948509509304,0.9836752414703369,0.1137444749474525,-0.1394461542367935,29.27333831787109,13.33901214599609,17.836181640625,2,8418.861622125001,4,2,1580904703.102788,1580903939.50652,256,0.6844584,0,0,248.2692,1,0,1580904698.683142,8415.86796,0,4.177521,97.15459
1580904703.418998,141,0,1580904337.000819,41.20701635159924,29.07533761282497,172.748,-1,-1,5.74967098236084,48.00724964208526,-9999,8419.179982125001,0.97296142578125,0.1218109130859375,-0.1222991943359375,8419.174946125,3.058084236560986,1.42965943182053,-0.1151639660994437,-0.0037333311047405,-0.0310472808778286,-0.1185154914855957,-0.007132172584533691,0.01001917570829391,0.02785974740982056,2,-0.6556462647939166,-0.01610816833986958,0.7517214489526948,0.0691621866084413,0.9834985733032227,0.1149095669388771,-0.1397370100021362,29.27333831787109,13.33901214599609,17.836181640625,2,8418.861622125001,4,2,1580904703.102788,1580903939.50652,256,0.6844584,0,0,248.2692,1,0,1580904698.683142,8415.86796,0,4.177521,97.15459
1580904703.420002,142,0,1580904337.000819,41.20701635159924,29.07533761282497,172.748,-1,-1,5.74967098236084,48.00724964208526,-9999,8419.190022125,0.9837493896484375,0.124481201171875,-0.1128692626953125,8419.184987125,3.057874913418539,1.429468956542294,-0.1162740863587731,0.002975970972329378,-0.01677140593528748,-0.1128496080636978,-0.01073199510574341,0.005757533013820648,0.01730233430862427,2,-0.6555728491484443,-0.0164651736706671,0.7517371978326094,0.06960118829311468,0.9833449721336365,0.116012267768383,-0.1399062722921371,29.20395660400391,12.98994064331055,17.90744018554688,2,8418.861622125001,4,2,1580904703.102788,1580903939.50652,256,0.6844584,0,0,248.2692,1,0,1580904698.683142,8415.86796,0,4.177521,97.15459
1580904703.427433,143,0,1580904337.000819,41.20701635159924,29.07533761282497,172.748,-1,-1,5.74967098236084,48.00724964208526,-9999,8419.200093125,0.9905548095703125,0.1350555419921875,-0.0818939208984375,8419.195027125001,3.057474857634535,1.42932423596756,-0.117327901278198,0.02299223467707634,-0.008158070966601372,-0.1085264831781387,0.000198066234588623,0.007380843162536621,0.02685743570327759,2,-0.6555182984227713,-0.01673688476609706,0.7517330294662441,0.0700938192137819,0.9832032322883606,0.1170589029788971,-0.1400312781333923,29.20395660400391,12.98994064331055,17.90744018554688,2,8418.861622125001,4,2,1580904703.102788,1580903939.50652,256,0.6844584,0,0,248.2692,1,0,1580904698.683142,8415.86796,0,4.177521,97.15459
1580904703.437485,144,0,1580904337.000819,41.20701635159924,29.07533761282497,172.748,-1,-1,5.74967098236084,48.00724964208526,-9999,8419.210133125,1.034408569335938,0.1304168701171875,-0.109344482421875,8419.205067125,3.05684402728836,1.428985582122928,-0.1184579987157019,0.04809385910630226,-0.01783360168337822,-0.1142189875245094,0.007182717323303223,0.01683253049850464,0.05814719200134277,2,-0.6553925134150427,-0.01696868723020516,0.7517810258178316,0.07069632113425615,0.9830240607261658,0.1181811541318893,-0.1403454393148422,29.12684631347656,13.09076309204102,17.68496704101562,2,8418.861622125001,4,2,1580904703.102788,1580903939.50652,256,0.6844584,0,0,248.2692,1,0,1580904698.683142,8415.86796,0,4.177521,97.15459
1580904703.44756,145,0,1580904337.000819,41.20701635159924,29.07533761282497,172.748,-1,-1,5.74967098236084,48.00724964208526,-9999,8419.220173125001,1.167724609375,0.1021270751953125,-0.186431884765625,8419.215107125001,3.056224948999616,1.427913473506193,-0.1205029005327782,0.03754927963018417,-0.1075076833367348,-0.2060796618461609,0.05142873525619507,0.0101628378033638,0.03171610832214355,2,-0.6549876265560208,-0.0175762008906674,0.7520358244845669,0.07158578793197119,0.9826319217681885,0.1202114745974541,-0.141364574432373,29.12684631347656,13.09076309204102,17.68496704101562,2,8418.861622125001,4,2,1580904703.102788,1580903939.50652,256,0.6844584,0,0,248.2692,1,0,1580904698.683142,8416.807844999999,0,4.169586,97.15467
1580904703.478656,146,0,1580904337.000819,41.20701635159924,29.07533761282497,172.748,-1,-1,5.74967098236084,48.00724964208526,-9999,8419.230214125,1.079360961914062,0.09814453125,-0.2031402587890625,8419.225148125,3.055909260150993,1.427049685940285,-0.1239380788207513,-0.02361740358173847,-0.0874016210436821,-0.3488602340221405,0.1852818727493286,-0.02153775095939636,-0.0445825457572937,2,-0.6546524664036371,-0.01880171357819052,0.7521799112129982,0.07281457717098662,0.9820947647094727,0.1236210241913795,-0.1421532928943634,29.17359161376953,13.38605690002441,17.81881713867188,2,8418.861622125001,4,2,1580904703.102788,1580903939.50652,256,0.6844584,0,0,248.2692,1,0,1580904698.683142,8416.807844999999,0,4.169586,97.15467
1580904703.480446,147,0,1580904337.000819,41.20701635159924,29.07533761282497,172.748,-1,-1,5.74967098236084,48.00724964208526,-9999,8419.240254125001,0.982421875,0.111724853515625,-0.182281494140625,8419.235188125,3.055807584708793,1.427259318740123,-0.1280684110454754,-0.04858138784766197,0.02340003661811352,-0.40703085064888,0.09740233421325684,-0.02961932122707367,-0.06157100200653076,2,-0.6547140316890584,-0.02032115751966455,0.7519516321534951,0.07419846844839652,0.9816109538078308,0.1277186125516891,-0.1418731808662415,29.02384948730469,13.42562484741211,17.70797729492188,2,8418.861622125001,4,2,1580904703.102788,1580903939.50652,256,0.6844584,0,0,248.2692,1,0,1580904698.683142,8416.807844999999,0,4.169586,97.15467
1580904703.48236,148,0,1580904337.000819,41.20701635159924,29.07533761282497,172.748,-1,-1,5.74967098236084,48.00724964208526,-9999,8419.250294125,1.034408569335938,0.1083526611328125,-0.195709228515625,8419.245228125001,3.056036071660879,1.428463920352391,-0.1328487891649792,-0.09114216268062592,0.1150237023830414,-0.4647452831268311,0.0009088516235351562,-0.02078044414520264,-0.04198366403579712,2,-0.6551396138934725,-0.02215621288029089,0.7513810318367622,0.07568069862896332,0.98116534948349,0.132458359003067,-0.1406023800373077,29.02384948730469,13.42562484741211,17.70797729492188,2,8418.861622125001,4,2,1580904703.102788,1580903939.50652,256,0.6844584,0,0,248.2692,1,0,1580904698.683142,8416.807844999999,0,4.169586,97.15467
1580904703.487738,149,0,1580904337.000819,41.20701635159924,29.07533761282497,172.748,-1,-1,5.74967098236084,48.00724964208526,-9999,8419.260335125,1.08349609375,0.12005615234375,-0.183013916015625,8419.255299125001,3.056464384509491,1.430565181800799,-0.1386009067683911,-0.1232714056968689,0.2059250175952911,-0.5591887235641479,0.05337303876876831,-0.02985385060310364,-0.05758273601531982,2,-0.655888304929353,-0.02438679253991916,0.7504815321817405,0.077417068118914,0.980688214302063,0.1381575763225555,-0.1384316384792328,28.97454071044922,13.55329513549805,17.64895629882812,2,8418.861622125001,4,2,1580904703.102788,1580903939.50652,256,0.6844584,0,0,248.2692,1,0,1580904698.683142,8416.807844999999,0,4.169586,97.15467
1580904703.497927,150,0,1580904337.000819,41.20701635159924,29.07533761282497,172.748,-1,-1,5.74967098236084,48.00724964208526,-9999,8419.270375125001,1.11212158203125,0.13214111328125,-0.157928466796875,8419.265339125001,3.056949746112471,1.432940451732815,-0.1452775811582008,-0.1385382413864136,0.2310324907302856,-0.6500062346458435,0.1030704379081726,-0.02476219832897186,-0.04734790325164795,2,-0.6567241508456683,-0.02696974621379903,0.7494499020395818,0.07944137952399256,0.9800786972045898,0.144767090678215,-0.1359720379114151,28.97454071044922,13.55329513549805,17.64895629882812,2,8418.861622125001,4,2,1580904703.102788,1580903939.50652,256,0.6844584,0,0,248.2692,1,0,1580904698.683142,8416.807844999999,0,4.169586,97.15467
1580904703.507805,151,0,1580904337.000819,41.20701635159924,29.07533761282497,172.748,-1,-1,5.74967098236084,48.00724964208526,-9999,8419.280415125,1.132568359375,0.131378173828125,-0.1747894287109375,8419.275380125,3.057431900339953,1.435481735516607,-0.1530484408100811,-0.1539033204317093,0.2427190989255905,-0.7600589394569397,0.1324980854988098,-0.02036452293395996,-0.0249103307723999,2,-0.6576019578107841,-0.02995149353924261,0.7483087847579739,0.08183195837952367,0.9792766571044922,0.1524516493082047,-0.1333251446485519,28.61937713623047,13.74970054626465,17.77169799804688,2,8418.861622125001,4,2,1580904703.102788,1580903939.50652,256,0.6844584,0,0,248.2692,1,0,1580904698.683142,8416.807844999999,0,4.169586,97.15467
1580904703.535888,152,0,1580904337.000819,41.20701635159924,29.07533761282497,172.748,-1,-1,5.74967098236084,48.00724964208526,-9999,8419.290455125001,1.136703491210938,0.1346588134765625,-0.175628662109375,8419.285420125001,3.057889644776901,1.438454750862593,-0.162028569219264,-0.1552205234766006,0.2929002344608307,-0.8802439570426941,0.1539498567581177,-0.0299994945526123,-0.04487025737762451,2,-0.6586150876561909,-0.03335483438099373,0.7469601602305336,0.08464053856180913,0.9782721400260925,0.1613205373287201,-0.1302272379398346,28.61937713623047,13.74970054626465,17.77169799804688,2,8418.861622125001,4,2,1580904703.102788,1580903939.50652,256,0.6844584,0,0,248.2692,1,0,1580904698.683142,8416.807844999999,0,4.169586,97.15467
1580904703.53717,153,0,1580904337.000819,41.20701635159924,29.07533761282497,172.748,-1,-1,5.74967098236084,48.00724964208526,-9999,8419.300496125001,1.12835693359375,0.1279296875,-0.189666748046875,8419.295460125,3.058544985125146,1.441859075526952,-0.1722759547550679,-0.1970843225717545,0.3174401819705963,-1.003947019577026,0.1593385934829712,-0.03682690858840942,-0.04926073551177979,2,-0.6597517867789919,-0.03727078830332499,0.7454048834694218,0.08780681036816874,0.9770191311836243,0.1714250594377518,-0.126676931977272,28.18989562988281,14.03687858581543,17.68206787109375,2,8418.861622125001,4,2,1580904703.102788,1580903939.50652,256,0.6844584,0,0,248.2692,1,0,1580904698.683142,8416.807844999999,0,4.169586,97.15467
1580904703.538171,154,0,1580904337.000819,41.20701635159924,29.07533761282497,172.748,-1,-1,5.74967098236084,48.00724964208526,-9999,8419.310536125,1.140625,0.1569976806640625,-0.1514739990234375,8419.305501125,3.059229717894268,1.446014204219158,-0.1839401545539854,-0.2127852439880371,0.4114380478858948,-1.145412802696228,0.152525007724762,-0.05503970384597778,-0.06761831045150757,2,-0.6611226773668564,-0.04168080779050257,0.7435158958210174,0.09145351366475643,0.9754867553710938,0.1829046756029129,-0.1223590299487114,28.18989562988281,14.03687858581543,17.68206787109375,2,8418.861622125001,4,2,1580904703.102788,1580903939.50652,256,0.6844584,0,0,248.2692,1,0,1580904698.683142,8416.807844999999,0,4.169586,97.15467
1580904703.547984,155,0,1580904337.000819,41.20701635159924,29.07533761282497,172.748,-1,-1,5.74967098236084,48.00724964208526,-9999,8419.320576125001,1.212234497070312,0.1745147705078125,-0.1160430908203125,8419.315541125001,3.059840430911058,1.450283541177403,-0.1970463924200106,-0.2225049883127213,0.4191322922706604,-1.282729268074036,0.1667438745498657,-0.03884533047676086,-0.03389132022857666,2,-0.6624821432784416,-0.04658281764965222,0.741487947155855,0.09561958912981273,0.9735366106033325,0.1957737356424332,-0.1178949028253555,27.9056396484375,14.5684814453125,17.71356201171875,2,8418.861622125001,4,2,1580904703.102788,1580903939.50652,256,0.6844584,0,0,248.2692,1,0,1580904698.683142,8416.807844999999,0,4.169586,97.15467
1580904703.557974,156,0,1580904337.000819,41.20701635159924,29.07533761282497,172.748,-1,-1,5.74967098236084,48.00724964208526,-9999,8419.330617125001,1.2744140625,0.1842041015625,-0.0881805419921875,8419.325581125,3.060146602682279,1.453929379484186,-0.2117597370265296,-0.2018036991357803,0.3580873012542725,-1.452930927276611,0.2408970594406128,-0.03574025630950928,-0.002360105514526367,2,-0.6635498114987165,-0.0519940037004296,0.7395353878670047,0.1004279103913007,0.9709938168525696,0.2101806551218033,-0.1139965429902077,27.9056396484375,14.5684814453125,17.71356201171875,2,8418.861622125001,4,2,1580904703.102788,1580903939.50652,256,0.6844584,0,0,248.2692,1,0,1580904698.683142,8416.807844999999,0,4.169586,97.15467
1580904703.568157,157,0,1580904337.000819,41.20701635159924,29.07533761282497,172.748,-1,-1,5.74967098236084,48.00724964208526,-9999,8419.340687125001,1.310134887695312,0.196624755859375,-0.0811614990234375,8419.335621125001,3.060214003401337,1.456626403476943,-0.2282256872734225,-0.1982905566692352,0.2633579969406128,-1.626539707183838,0.306343674659729,-0.04212553799152374,0.0224727988243103,2,-0.6641920959976403,-0.05800744383034588,0.7377478037152581,0.1058879269909386,0.9677279591560364,0.2262495756149292,-0.1109679937362671,27.33175659179688,15.06013298034668,17.72830200195312,2,8418.861622125001,4,2,1580904703.102788,1580903939.50652,256,0.6844584,0,0,248.2692,1,0,1580904698.683142,8416.807844999999,0,4.169586,97.15467
1580904703.592943,158,0,1580904337.000819,41.20701635159924,29.07533761282497,172.748,-1,-1,5.74967098236084,48.00724964208526,-9999,8419.350728125,1.360321044921875,0.243927001953125,-0.0095367431640625,8419.345662125001,3.059616321087141,1.458858304150177,-0.2467973568607273,-0.1510870903730392,0.244739294052124,-1.844792246818542,0.3461626768112183,-0.04776136577129364,0.02684241533279419,2,-0.6645813582679503,-0.06458909369680954,0.7359030373590054,0.1122789502884151,0.9636309146881104,0.2442996203899384,-0.1083197370171547,27.33175659179688,15.06013298034668,17.72830200195312,2,8418.861622125001,4,2,1580904703.102788,1580903939.50652,256,0.6844584,0,0,248.2692,1,0,1580904698.683142,8416.807844999999,0,4.169586,97.15467
1580904703.593943,159,0,1580904337.000819,41.20701635159924,29.07533761282497,172.748,-1,-1,5.74967098236084,48.00724964208526,-9999,8419.360768125001,1.471221923828125,0.198699951171875,-0.054473876953125,8419.355702125,3.058453080726713,1.459249951568346,-0.2674739879220834,-0.1099901348352432,0.0913478285074234,-2.064203262329102,0.4015339016914368,-0.02046269178390503,0.0975041389465332,2,-0.6641977018950247,-0.07185338689762721,0.734436228710142,0.1195070608817955,0.9584477543830872,0.2642960846424103,-0.1073570102453232,26.87289428710938,15.7962818145752,17.50308227539062,2,8418.861622125001,4,2,1580904703.102788,1580903939.50652,256,0.6844584,0,0,248.2692,1,0,1580904698.683142,8416.807844999999,0,4.169586,97.15467
1580904703.59818,160,0,1580904337.000819,41.20701635159924,29.07533761282497,172.748,-1,-1,5.74967098236084,48.00724964208526,-9999,8419.370808125001,1.49737548828125,0.1557464599609375,-0.151397705078125,8419.365742125001,3.057412199256639,1.456417671992892,-0.2904031701929572,-0.1636525690555573,-0.2822768986225128,-2.280914306640625,0.5190168023109436,-0.0877399742603302,0.05456143617630005,2,-0.6624911465261695,-0.0801882009146791,0.7338074871665323,0.1272870842723497,0.9518680572509766,0.2863385379314423,-0.1093506664037704,26.87289428710938,15.7962818145752,17.50308227539062,2,8418.861622125001,4,2,1580904703.102788,1580903939.50652,256,0.6844584,0,0,248.2692,1,0,1580904698.683142,8416.807844999999,0,4.169586,97.15467
1580904703.608228,161,0,1580904337.000819,41.20701635159924,29.07533761282497,172.748,-1,-1,5.74967098236084,48.00724964208526,-9999,8419.380848125,1.3179931640625,0.1864776611328125,-0.0732879638671875,8419.375783125,3.056207153800452,1.453012541447496,-0.3158180739049053,-0.1785821467638016,-0.2990408837795258,-2.527584791183472,0.5530842542648315,-0.1549577414989471,-0.04001259803771973,2,-0.6604166896802208,-0.0894420824869437,0.7330686419266612,0.13586862665681,0.9439567923545837,0.3105942010879517,-0.1116998195648193,25.95954132080078,16.55168533325195,16.77059936523438,2,8418.861622125001,4,2,1580904703.102788,1580903939.50652,256,0.6844584,0,0,248.2692,1,0,1580904698.683142,8416.807844999999,0,4.169586,97.15467
1580904703.618712,162,0,1580904337.000819,41.20701635159924,29.07533761282497,172.748,-1,-1,5.74967098236084,48.00724964208526,-9999,8419.390889125001,1.364334106445312,0.1712799072265625,-0.17144775390625,8419.385823125,3.054951253816578,1.449556377553147,-0.3437362251099721,-0.2117627412080765,-0.3045083582401276,-2.771754741668701,0.3830710053443909,-0.150648832321167,0.04026633501052856,2,-0.6581339087673215,-0.09962750891045523,0.7320143998640189,0.1452208700462009,0.9345909953117371,0.3370071053504944,-0.113868236541748,25.95954132080078,16.55168533325195,16.77059936523438,2,8418.861622125001,4,2,1580904703.102788,1580903939.50652,256,0.6844584,0,0,248.2692,1,0,1580904698.683142,8416.807844999999,0,4.169586,97.15467
