loggingTime,loggingSample,identifierForVendor,locationTimestamp_since1970,locationLatitude,locationLongitude,locationAltitude,locationSpeed,locationCourse,locationVerticalAccuracy,locationHorizontalAccuracy,locationFloor,accelerometerTimestamp_sinceReboot,accelerometerAccelerationX,accelerometerAccelerationY,accelerometerAccelerationZ,motionTimestamp_sinceReboot,motionYaw,motionRoll,motionPitch,motionRotationRateX,motionRotationRateY,motionRotationRateZ,motionUserAccelerationX,motionUserAccelerationY,motionUserAccelerationZ,motionAttitudeReferenceFrame,motionQuaternionX,motionQuaternionY,motionQuaternionZ,motionQuaternionW,motionGravityX,motionGravityY,motionGravityZ,motionMagneticFieldX,motionMagneticFieldY,motionMagneticFieldZ,motionMagneticFieldCalibrationAccuracy,activityTimestamp_sinceReboot,activity,activityActivityConfidence,activityActivityStartDate,pedometerStartDate,pedometerNumberofSteps,pedometerAverageActivePace,pedometerCurrentPace,pedometerCurrentCadence,pedometerDistance,pedometerFloorAscended,pedometerFloorDescended,pedometerEndDate,altimeterTimestamp_sinceReboot,altimeterReset,altimeterRelativeAltitude,altimeterPressure
1582559228.201291,1,0,1582559227.999403,41.20567695421208,29.07219870622046,177.7099,0.3156431,143.0219209180194,3,16.00241654736175,-9999,106318.021972375,0.9757232666015625,0.08380126953125,-0.0850982666015625,106318.015960375,-0.8063381407847887,1.493450289893475,-0.08140829671533399,-0.007360392715781927,0.006240088492631912,0.01549816131591797,-0.01724588871002197,0.00540614128112793,-0.003651976585388184,2,-0.2387980030419398,-0.6359787724243197,0.3131271965506936,-0.6636698994247732,0.9937082529067993,0.08131840825080872,-0.07701303064823151,48.13829803466797,-34.18007659912109,-33.652587890625,2,106315.7537045,1,2,1582559225.925779,1582558685.643339,11,0.6387488,0,0,10.91,0,0,1582558765.788069,106314.760733,0,6.349487,99.2892
1582559228.201836,2,0,1582559227.999403,41.20567695421208,29.07219870622046,177.7099,0.3156431,143.0219209180194,3,16.00241654736175,-9999,106318.032013375,0.973846435546875,0.0814056396484375,-0.0904693603515625,106318.026001375,-0.8062237541603444,1.493553395586223,-0.08127881301179217,-0.009821268729865551,0.01129603572189808,0.0145258791744709,-0.01982772350311279,0.001567989587783813,-0.01118451356887817,2,-0.2388221258307122,-0.6360096683481924,0.3130372685940876,-0.6636740762324089,0.9937267303466797,0.0811893492937088,-0.07691138982772827,48.17111968994141,-33.93145751953125,-33.6190185546875,2,106315.7537045,1,2,1582559225.925779,1582558685.643339,11,0.6387488,0,0,10.91,0,0,1582558765.788069,106314.760733,0,6.349487,99.2892
1582559228.207374,3,0,1582559227.999403,41.20567695421208,29.07219870622046,177.7099,0.3156431,143.0219209180194,3,16.00241654736175,-9999,106318.042053375,0.9803009033203125,0.0825347900390625,-0.0849609375,106318.036041375,-0.8061439967127983,1.493645287937949,-0.08120067073659265,-0.005822000559419394,0.01045207865536213,0.009020060300827026,-0.01927655935287476,0.0004405081272125244,-0.01310640573501587,2,-0.238837913815547,-0.6360394404760076,0.3129758924262451,-0.6636688271564056,0.9937401413917542,0.08111146837472916,-0.07682055979967117,48.17111968994141,-33.93145751953125,-33.6190185546875,2,106315.7537045,1,2,1582559225.925779,1582558685.643339,11,0.6387488,0,0,10.91,0,0,1582558765.788069,106314.760733,0,6.349487,99.2892
1582559228.217034,4,0,1582559227.999403,41.20567695421208,29.07219870622046,177.7099,0.3156431,143.0219209180194,3,16.00241654736175,-9999,106318.052093375,0.9813690185546875,0.08197021484375,-0.083587646484375,106318.046081375,-0.8060915467277958,1.493643308499566,-0.08118966792000608,-0.004715790040791035,0.001181969419121742,0.001646220218390226,-0.01309740543365479,0.001443266868591309,-0.008023202419281006,2,-0.2388247049767378,-0.6360436014371419,0.3129553528773178,-0.6636792440444855,0.9937407970428467,0.08110050112009048,-0.07682259380817413,48.18103790283203,-34.07563781738281,-33.6829833984375,2,106315.7537045,1,2,1582559225.925779,1582558685.643339,11,0.6387488,0,0,10.91,0,0,1582558765.788069,106314.760733,0,6.349487,99.2892
1582559228.227024,5,0,1582559227.999403,41.20567695421208,29.07219870622046,177.7099,0.3156431,143.0219209180194,3,16.00241654736175,-9999,106318.062133375,0.9777069091796875,0.0817108154296875,-0.0872039794921875,106318.056122375,-0.8060574952670865,1.493555309425878,-0.08122989286044445,-0.003634014166891575,-0.008589968085289001,-0.003868120722472668,-0.01319426298141479,0.0005791783332824707,-0.007264554500579834,2,-0.2387863105187272,-0.6360237422377033,0.3129668830942592,-0.6637066906276287,0.9937308430671692,0.08114059269428253,-0.07690979540348053,48.18103790283203,-34.07563781738281,-33.6829833984375,2,106315.7537045,1,2,1582559225.925779,1582558685.643339,11,0.6387488,0,0,10.91,0,0,1582558765.788069,106314.760733,0,6.349487,99.2892
1582559228.237494,6,0,1582559227.999403,41.20567695421208,29.07219870622046,177.7099,0.3156431,143.0219209180194,3,16.00241654736175,-9999,106318.072174375,0.972625732421875,0.0850372314453125,-0.088134765625,106318.066162375,-0.8060212836806951,1.493470647417649,-0.08127096624102313,-0.003637576475739479,-0.006765048950910568,-0.003057030495256186,-0.01742631196975708,0.001148611307144165,-0.01139211654663086,2,-0.2387474667599619,-0.6360053556811075,0.312977554857653,-0.6637332661481942,0.9937210083007812,0.08118153363466263,-0.0769936665892601,48.18000030517578,-33.97142791748047,-33.67022705078125,2,106315.7537045,1,2,1582559225.925779,1582558685.643339,11,0.6387488,0,0,10.91,0,0,1582558765.788069,106314.760733,0,6.349487,99.2892
1582559228.250498,7,0,1582559227.999403,41.20567695421208,29.07219870622046,177.7099,0.3156431,143.0219209180194,3,16.00241654736175,-9999,106318.082214375,0.9712066650390625,0.0846099853515625,-0.0872344970703125,106318.076202375,-0.8059937076245084,1.493356654448624,-0.08126328934992738,-0.00243356148712337,-0.01078695431351662,0.002930820919573307,-0.02211785316467285,0.00405547022819519,-0.01103448867797852,2,-0.2387234785102731,-0.6359698121610122,0.3129796591478965,-0.6637749944178585,0.9937129020690918,0.08117388188838959,-0.07710699737071991,48.18000030517578,-33.97142791748047,-33.67022705078125,2,106315.7537045,1,2,1582559225.925779,1582558685.643339,11,0.6387488,0,0,10.91,0,0,1582558765.788069,106314.760733,0,6.349487,99.2892
1582559228.25719,8,0,1582559227.999403,41.20567695421208,29.07219870622046,177.7099,0.3156431,143.0219209180194,3,16.00241654736175,-9999,106318.092254375,0.9639434814453125,0.0834197998046875,-0.0956573486328125,106318.086242375,-0.8059390362732399,1.493332452094206,-0.08122489907308193,-0.005796745419502258,-0.004759158939123154,0.003442103043198586,-0.02344661951065063,0.003040879964828491,-0.01128482818603516,2,-0.2387154594748246,-0.6359632728043043,0.3129526443528085,-0.6637968931068103,0.9937141537666321,0.08113561570644379,-0.07713129371404648,48.19315338134766,-34.06707763671875,-33.61151123046875,2,106315.7537045,1,2,1582559225.925779,1582558685.643339,11,0.6387488,0,0,10.91,0,0,1582558765.788069,106314.760733,0,6.349487,99.2892
1582559228.267172,9,0,1582559227.999403,41.20567695421208,29.07219870622046,177.7099,0.3156431,143.0219209180194,3,16.00241654736175,-9999,106318.102295375,0.9669036865234375,0.0839385986328125,-0.094268798828125,106318.096283375,-0.8058473738363252,1.493557222354153,-0.08113351090261914,-0.008794398978352547,0.02496491372585297,0.01031891722232103,-0.0314820408821106,0.002338558435440063,-0.02080005407333374,2,-0.2387527732228695,-0.6360368374918597,0.312867399376068,-0.6637532419802776,0.9937389492988586,0.0810445249080658,-0.07690850645303726,48.19315338134766,-34.06707763671875,-33.61151123046875,2,106315.7537045,1,2,1582559225.925779,1582558685.643339,11,0.6387488,0,0,10.91,0,0,1582558765.788069,106315.697088,0,6.381195,99.28883
1582559228.277393,10,0,1582559227.999403,41.20567695421208,29.07219870622046,177.7099,0.3156431,143.0219209180194,3,16.00241654736175,-9999,106318.112365375,0.9788970947265625,0.08636474609375,-0.0800933837890625,106318.106323375,-0.8057738257029048,1.493680800486647,-0.08099958093257348,-0.005609528627246618,0.01354655623435974,0.0144802276045084,-0.02442234754562378,0.003158748149871826,-0.01515442132949829,2,-0.2387946178271193,-0.6360690704657597,0.3127872048125385,-0.6637450589617621,0.9937592148780823,0.08091104030609131,-0.07678653299808502,48.29352569580078,-34.15316009521484,-33.66162109375,2,106315.7537045,1,2,1582559225.925779,1582558685.643339,11,0.6387488,0,0,10.91,0,0,1582558765.788069,106315.697088,0,6.381195,99.28883
1582559228.287348,11,0,1582559227.999403,41.20567695421208,29.07219870622046,177.7099,0.3156431,143.0219209180194,3,16.00241654736175,-9999,106318.122406375,0.977630615234375,0.0857696533203125,-0.083282470703125,106318.116363375,-0.8057421567235558,1.49361458238022,-0.08084977271087669,-0.001335687469691038,-0.007378965616226196,0.01518143713474274,-0.01466387510299683,0.006207287311553955,-0.002362072467803955,2,-0.2388255500941782,-0.6360312281683712,0.3127387007626271,-0.6637929649004987,0.9937660694122314,0.08076172322034836,-0.07685326784849167,48.29352569580078,-34.15316009521484,-33.66162109375,2,106315.7537045,1,2,1582559225.925779,1582558685.643339,11,0.6387488,0,0,10.91,0,0,1582558765.788069,106315.697088,0,6.381195,99.28883
1582559228.297356,12,0,1582559227.999403,41.20567695421208,29.07219870622046,177.7099,0.3156431,143.0219209180194,3,16.00241654736175,-9999,106318.132446375,0.9767303466796875,0.08282470703125,-0.0877532958984375,106318.126403375,-0.8057518099126977,1.493528903079954,-0.08071182237295799,0.001458501094020903,-0.007144607603549957,0.01440965384244919,-0.01724714040756226,0.004208654165267944,-0.008684635162353516,2,-0.2388624710649462,-0.6359835541269886,0.3127098717435986,-0.6638390083865015,0.9937707185745239,0.08062422275543213,-0.07693927735090256,48.17708587646484,-34.14483642578125,-33.67340087890625,2,106315.7537045,1,2,1582559225.925779,1582558685.643339,11,0.6387488,0,0,10.91,0,0,1582558765.788069,106315.697088,0,6.381195,99.28883
1582559228.314424,13,0,1582559227.999403,41.20567695421208,29.07219870622046,177.7099,0.3156431,143.0219209180194,3,16.00241654736175,-9999,106318.142486375,0.973663330078125,0.08087158203125,-0.089202880859375,106318.136444375,-0.8057889721883796,1.493463086069883,-0.08063054957448658,0.004049757029861212,-0.006894005462527275,0.008022061549127102,-0.01746237277984619,0.001848191022872925,-0.01096880435943604,2,-0.2388918747007703,-0.6359466024635725,0.3127051663913063,-0.6638659555572658,0.993772029876709,0.08054321259260178,-0.07700518518686295,48.17708587646484,-34.14483642578125,-33.67340087890625,2,106315.7537045,1,2,1582559225.925779,1582558685.643339,11,0.6387488,0,0,10.91,0,0,1582558765.788069,106315.697088,0,6.381195,99.28883
1582559228.317503,14,0,1582559227.999403,41.20567695421208,29.07219870622046,177.7099,0.3156431,143.0219209180194,3,16.00241654736175,-9999,106318.152527375,0.970672607421875,0.080963134765625,-0.091796875,106318.146484375,-0.8058451511272797,1.493522558824409,-0.0805992417459334,0.006176871713250875,0.007210211828351021,0.003600526601076126,-0.02158933877944946,4.83393669128418e-05,-0.0138658881187439,2,-0.2389297716806905,-0.6359555237090668,0.3127071169732691,-0.6638428306217327,0.9937791228294373,0.08051200211048126,-0.07694627344608307,48.23123931884766,-34.29869079589844,-33.57098388671875,2,106315.7537045,1,2,1582559225.925779,1582558685.643339,11,0.6387488,0,0,10.91,0,0,1582558765.788069,106315.697088,0,6.381195,99.28883
1582559228.327669,15,0,1582559227.999403,41.20567695421208,29.07219870622046,177.7099,0.3156431,143.0219209180194,3,16.00241654736175,-9999,106318.162567375,0.9730987548828125,0.0811614990234375,-0.088897705078125,106318.156524375,-0.8058958449366895,1.493690730545951,-0.08060434289853011,0.004888168070465326,0.01809774897992611,0.0002792989835143089,-0.02350932359695435,0.000470578670501709,-0.01505541801452637,2,-0.2389704082081559,-0.6360059611395145,0.3127054145601809,-0.6637807762250251,0.9937917590141296,0.08051709085702896,-0.07677911967039108,48.23123931884766,-34.29869079589844,-33.57098388671875,2,106315.7537045,1,2,1582559225.925779,1582558685.643339,11,0.6387488,0,0,10.91,0,0,1582558765.788069,106315.697088,0,6.381195,99.28883
1582559228.337567,16,0,1582559227.999403,41.20567695421208,29.07219870622046,177.7099,0.3156431,143.0219209180194,3,16.00241654736175,-9999,106318.172607375,0.976837158203125,0.081634521484375,-0.0853729248046875,106318.166565375,-0.8059362905461717,1.49386493760733,-0.08063506280996453,0.003896586364135146,0.01783222332596779,-0.003014990361407399,-0.02022439241409302,0.0003636181354522705,-0.01200920343399048,2,-0.2389999720768636,-0.6360629753978007,0.3127074346914492,-0.6637145820909689,0.9938026666641235,0.08054771274328232,-0.07660581171512604,48.28980255126953,-34.22638702392578,-33.79840087890625,2,106315.7537045,1,2,1582559225.925779,1582558685.643339,11,0.6387488,0,0,10.91,0,0,1582558765.788069,106315.697088,0,6.381195,99.28883
1582559228.348066,17,0,1582559227.999403,41.20567695421208,29.07219870622046,177.7099,0.3156431,143.0219209180194,3,16.00241654736175,-9999,106318.182647375,0.977874755859375,0.0834503173828125,-0.083984375,106318.176605375,-0.8059650071128041,1.493954608431412,-0.08066495658525044,0.001279497984796762,0.012604970484972,-0.002663985826075077,-0.01717710494995117,0.001646071672439575,-0.008802652359008789,2,-0.2390128766482936,-0.6360932236115062,0.3127154092320752,-0.6636772122917727,0.9938071966171265,0.08057750761508942,-0.07651650905609131,48.28980255126953,-34.22638702392578,-33.79840087890625,2,106315.7537045,1,2,1582559225.925779,1582558685.643339,11,0.6387488,0,0,10.91,0,0,1582558765.788069,106315.697088,0,6.381195,99.28883
1582559228.359955,18,0,1582559227.999403,41.20567695421208,29.07219870622046,177.7099,0.3156431,143.0219209180194,3,16.00241654736175,-9999,106318.192688375,0.9766998291015625,0.081878662109375,-0.0864715576171875,106318.186645375,-0.8059918692873052,1.493907389825634,-0.08070042446223022,0.001048781792633235,-0.005514360964298248,-0.003685939125716686,-0.01622468233108521,0.002739876508712769,-0.007886350154876709,2,-0.2390019280090693,-0.6360789854495841,0.3127408327479873,-0.6636826891740305,0.9938005208969116,0.08061286062002182,-0.07656320184469223,48.18886566162109,-34.06027984619141,-33.533447265625,2,106315.7537045,1,2,1582559225.925779,1582558685.643339,11,0.6387488,0,0,10.91,0,0,1582558765.788069,106315.697088,0,6.381195,99.28883
1582559228.373847,19,0,1582559227.999403,41.20567695421208,29.07219870622046,177.7099,0.3156431,143.0219209180194,3,16.00241654736175,-9999,106318.202728375,0.9746856689453125,0.0829620361328125,-0.087554931640625,106318.196685375,-0.8060237818152155,1.493885505839245,-0.0807464533442063,0.002509259385988116,-0.001243447884917259,-0.004001257475465536,-0.0182335376739502,0.001168102025985718,-0.01109975576400757,2,-0.2389928616566309,-0.6360739534043462,0.3127681432980896,-0.663677983959121,0.9937952756881714,0.08065874129533768,-0.07658467441797256,48.18886566162109,-34.06027984619141,-33.533447265625,2,106315.7537045,1,2,1582559225.925779,1582558685.643339,11,0.6387488,0,0,10.91,0,0,1582558765.788069,106315.697088,0,6.381195,99.28883
1582559228.378193,20,0,1582559227.999403,41.20567695421208,29.07219870622046,177.7099,0.3156431,143.0219209180194,3,16.00241654736175,-9999,106318.212768375,0.9734039306640625,0.0832366943359375,-0.0866241455078125,106318.206726375,-0.8060283179244544,1.493847281592217,-0.08077789683769428,0.0002923206775449216,-0.002975473180413246,-0.002650827635079622,-0.01966226100921631,0.002418488264083862,-0.0111382007598877,2,-0.2389775824208901,-0.6360648437360633,0.3127838496062286,-0.6636847252062349,0.9937896728515625,0.08069007843732834,-0.07662245631217957,48.32630157470703,-34.18799209594727,-33.7247314453125,2,106315.7537045,1,2,1582559225.925779,1582558685.643339,11,0.6387488,0,0,10.91,0,0,1582558765.788069,106315.697088,0,6.381195,99.28883
1582559228.387767,21,0,1582559227.999403,41.20567695421208,29.07219870622046,177.7099,0.3156431,143.0219209180194,3,16.00241654736175,-9999,106318.222809375,0.9708099365234375,0.0849609375,-0.0890350341796875,106318.216797375,-0.806027539221646,1.493825099951725,-0.08077586410241987,0.0009754215134307742,-0.001300346106290817,-0.0001037805341184139,-0.0212475061416626,0.002801954746246338,-0.01067346334457397,2,-0.2389745262477496,-0.6360573186128888,0.3127856204199077,-0.6636923159358978,0.9937883019447327,0.08068805187940598,-0.07664452493190765,48.32630157470703,-34.18799209594727,-33.7247314453125,2,106315.7537045,1,2,1582559225.925779,1582558685.643339,11,0.6387488,0,0,10.91,0,0,1582558765.788069,106315.697088,0,6.381195,99.28883
1582559228.397884,22,0,1582559227.999403,41.20567695421208,29.07219870622046,177.7099,0.3156431,143.0219209180194,3,16.00241654736175,-9999,106318.232849375,0.9697418212890625,0.0831451416015625,-0.08978271484375,106318.226837375,-0.8060341367584939,1.493899967675093,-0.0807449162356489,0.001539373537525535,0.01071530394256115,0.003029205370694399,-0.02391093969345093,0.004221409559249878,-0.01350975036621094,2,-0.2389989555184405,-0.6360773101745291,0.3127693797275276,-0.6636719506431004,0.9937964677810669,0.08065720647573471,-0.0765703096985817,48.10077667236328,-34.03193664550781,-33.66204833984375,2,106315.7537045,1,2,1582559225.925779,1582558685.643339,11,0.6387488,0,0,10.91,0,0,1582558765.788069,106315.697088,0,6.381195,99.28883
1582559228.411544,23,0,1582559227.999403,41.20567695421208,29.07219870622046,177.7099,0.3156431,143.0219209180194,3,16.00241654736175,-9999,106318.242889375,0.9740447998046875,0.0825958251953125,-0.085845947265625,106318.236877375,-0.8060391218005855,1.493958003722075,-0.08069305573328582,0.0009974202839657664,0.007151728495955467,0.005765337031334639,-0.02408748865127563,0.002213180065155029,-0.01304829120635986,2,-0.2390273633811738,-0.636089175702059,0.3127482075166768,-0.6636603874477973,0.9938051104545593,0.08060551434755325,-0.07651296257972717,48.10077667236328,-34.03193664550781,-33.66204833984375,2,106315.7537045,1,2,1582559225.925779,1582558685.643339,11,0.6387488,0,0,10.91,0,0,1582558765.788069,106315.697088,0,6.381195,99.28883
1582559228.418036,24,0,1582559227.999403,41.20567695421208,29.07219870622046,177.7099,0.3156431,143.0219209180194,3,16.00241654736175,-9999,106318.252929375,0.9780426025390625,0.083770751953125,-0.084381103515625,106318.246917375,-0.8060358124052972,1.493958625512386,-0.08063860894656147,0.0002886225702241063,0.002253802493214607,0.00528098177164793,-0.01934647560119629,0.002069056034088135,-0.00917285680770874,2,-0.2390450563411622,-0.6360826368686927,0.3127303505783564,-0.6636687091295214,0.9938095808029175,0.08055124431848526,-0.07651267945766449,48.26869964599609,-33.94591903686523,-33.65679931640625,2,106315.7537045,1,2,1582559225.925779,1582558685.643339,11,0.6387488,0,0,10.91,0,0,1582558765.788069,106315.697088,0,6.381195,99.28883
1582559228.446229,25,0,1582559227.999403,41.20567695421208,29.07219870622046,177.7099,0.3156431,143.0219209180194,3,16.00241654736175,-9999,106318.262970375,0.977447509765625,0.0836944580078125,-0.084197998046875,106318.256958375,-0.8060114871280547,1.493869113333367,-0.0805632135359947,-0.001785980071872473,-0.00928008183836937,0.007697267457842827,-0.01589721441268921,0.00336495041847229,-0.007969677448272705,2,-0.2390491846734542,-0.6360459415552415,0.3127098717103645,-0.6637119397131702,0.9938086271286011,0.08047609031200409,-0.07660209387540817,48.26869964599609,-33.94591903686523,-33.65679931640625,2,106315.7537045,1,2,1582559225.925779,1582558685.643339,11,0.6387488,0,0,10.91,0,0,1582558765.788069,106315.697088,0,6.381195,99.28883
1582559228.447546,26,0,1582559227.999403,41.20567695421208,29.07219870622046,177.7099,0.3156431,143.0219209180194,3,16.00241654736175,-9999,106318.273010375,0.9759063720703125,0.0817413330078125,-0.0869598388671875,106318.266998375,-0.8059944406556128,1.493741097467082,-0.08047757631375796,-0.0005257720476947725,-0.01386497914791107,0.009130313992500305,-0.01723712682723999,0.003053605556488037,-0.008406519889831543,2,-0.2390530740635612,-0.6359942624382361,0.3126932747022706,-0.6637679200495696,0.9938057661056519,0.08039073646068573,-0.07672984898090363,48.27454376220703,-34.0807991027832,-33.66595458984375,2,106315.7537045,1,2,1582559225.925779,1582558685.643339,11,0.6387488,0,0,10.91,0,0,1582558765.788069,106315.697088,0,6.381195,99.28883
1582559228.448503,27,0,1582559227.999403,41.20567695421208,29.07219870622046,177.7099,0.3156431,143.0219209180194,3,16.00241654736175,-9999,106318.283050375,0.9739532470703125,0.0815277099609375,-0.08892822265625,106318.277038375,-0.8059801235919916,1.493649183096185,-0.0804170716835204,-0.001246689818799496,-0.008224137127399445,0.006372344680130482,-0.0188523530960083,0.001023471355438232,-0.01116812229156494,2,-0.2390548773527899,-0.6359575296323573,0.3126809698162171,-0.6638082707135086,0.9938035607337952,0.08033042401075363,-0.07682157307863235,48.27454376220703,-34.0807991027832,-33.66595458984375,2,106315.7537045,1,2,1582559225.925779,1582558685.643339,11,0.6387488,0,0,10.91,0,0,1582558765.788069,106315.697088,0,6.381195,99.28883
1582559228.460562,28,0,1582559227.999403,41.20567695421208,29.07219870622046,177.7099,0.3156431,143.0219209180194,3,16.00241654736175,-9999,106318.293090375,0.9734954833984375,0.082733154296875,-0.089263916015625,106318.287079375,-0.8059693879683798,1.493612815646839,-0.08038163936618704,-0.001161735039204359,-0.002297539263963699,0.003838613629341125,-0.0205003023147583,0.001470804214477539,-0.01232194900512695,2,-0.239057938691686,-0.6359420871605188,0.3126708957727902,-0.6638266416283185,0.9938035011291504,0.08029510825872421,-0.07685792446136475,48.19409942626953,-34.05850219726562,-33.68426513671875,2,106315.7537045,1,2,1582559225.925779,1582558685.643339,11,0.6387488,0,0,10.91,0,0,1582558765.788069,106315.697088,0,6.381195,99.28883
1582559228.468099,29,0,1582559227.999403,41.20567695421208,29.07219870622046,177.7099,0.3156431,143.0219209180194,3,16.00241654736175,-9999,106318.303131375,0.9747161865234375,0.082855224609375,-0.0870361328125,106318.297119375,-0.8059675485595611,1.49359721674533,-0.08034514043165498,0.0001759708393365145,0.0007195565849542618,0.00419973861426115,-0.02068519592285156,0.002788931131362915,-0.01282501220703125,2,-0.2390674137161654,-0.6359323414317329,0.3126609665548823,-0.6638372632294752,0.9938052892684937,0.08025872707366943,-0.07687366008758545,48.19409942626953,-34.05850219726562,-33.68426513671875,2,106315.7537045,1,2,1582559225.925779,1582558685.643339,11,0.6387488,0,0,10.91,0,0,1582558765.788069,106315.697088,0,6.381195,99.28883
1582559228.478138,30,0,1582559227.999403,41.20567695421208,29.07219870622046,177.7099,0.3156431,143.0219209180194,3,16.00241654736175,-9999,106318.313171375,0.97882080078125,0.08306884765625,-0.0840911865234375,106318.307159375,-0.8059568961046194,1.493483187906913,-0.08030137427433089,-0.0006940838065929711,-0.01042417529970407,0.005059672519564629,-0.01854372024536133,0.002512127161026001,-0.009598612785339355,2,-0.2390611879322358,-0.6358900233557222,0.3126576512168301,-0.6638816285663145,0.9938000440597534,0.08021510392427444,-0.07698725163936615,48.07550811767578,-34.00556182861328,-33.63446044921875,2,106315.7537045,1,2,1582559225.925779,1582558685.643339,11,0.6387488,0,0,10.91,0,0,1582558765.788069,106315.697088,0,6.381195,99.28883
1582559228.503614,31,0,1582559227.999403,41.20567695421208,29.07219870622046,177.7099,0.3156431,143.0219209180194,3,16.00241654736175,-9999,106318.323211375,0.976409912109375,0.0829010009765625,-0.084075927734375,106318.317199375,-0.8059350499220935,1.493282527028605,-0.08022556943349778,-0.001277848845347762,-0.01823575794696808,0.008799550123512745,-0.01551324129104614,0.003137022256851196,-0.007125318050384521,2,-0.2390488567031055,-0.6358160707725785,0.312651158235791,-0.6639599250788951,0.9937905669212341,0.08013954013586044,-0.07718713581562042,48.07550811767578,-34.00556182861328,-33.63446044921875,2,106315.7537045,1,2,1582559225.925779,1582558685.643339,11,0.6387488,0,0,10.91,0,0,1582558765.788069,106315.697088,0,6.381195,99.28883
1582559228.504731,32,0,1582559227.999403,41.20567695421208,29.07219870622046,177.7099,0.3156431,143.0219209180194,3,16.00241654736175,-9999,106318.333252375,0.972991943359375,0.08331298828125,-0.0865325927734375,106318.327240375,-0.8059328841272381,1.493012728373497,-0.08013995588846018,-7.782841566950083e-05,-0.02674029767513275,0.008365987800061703,-0.01853573322296143,0.002718895673751831,-0.007237911224365234,2,-0.2390353102276908,-0.6357155202016934,0.3126564593195215,-0.6640586397143323,0.9937766194343567,0.08005420118570328,-0.0774557963013649,48.43315887451172,-34.07224655151367,-33.49261474609375,2,106315.7537045,1,2,1582559225.925779,1582558685.643339,11,0.6387488,0,0,10.91,0,0,1582558765.788069,106315.697088,0,6.381195,99.28883
1582559228.511406,33,0,1582559227.999403,41.20567695421208,29.07219870622046,177.7099,0.3156431,143.0219209180194,3,16.00241654736175,-9999,106318.343292375,0.970977783203125,0.0823211669921875,-0.0901641845703125,106318.337280375,-0.8059611664072684,1.492770647068859,-0.08004900228786792,0.00361254601739347,-0.023482296615839,0.009353602305054665,-0.02203387022018433,0.0032673180103302,-0.00997239351272583,2,-0.2390376390164038,-0.6356198089241907,0.3126669231698544,-0.6641444456057396,0.9937650561332703,0.07996354252099991,-0.07769693434238434,48.43315887451172,-34.07224655151367,-33.49261474609375,2,106318.330444375,2,0,1582559228.502519,1582558685.643339,11,0.6387488,0,0,10.91,0,0,1582558765.788069,106315.697088,0,6.381195,99.28883
1582559228.518417,34,0,1582559227.999403,41.20567695421208,29.07219870622046,177.7099,0.3156431,143.0219209180194,3,16.00241654736175,-9999,106318.353332375,0.9737091064453125,0.0804290771484375,-0.090911865234375,106318.347320375,-0.8059995913517012,1.492616518681792,-0.07998454498959659,0.004277604632079601,-0.01345384400337934,0.006650724448263645,-0.02306449413299561,0.001866728067398071,-0.01319074630737305,2,-0.2390478400077923,-0.6355555673489655,0.312678363618676,-0.6641968845767192,0.9937582015991211,0.07989928871393204,-0.07785050570964813,48.28389739990234,-33.93999481201172,-33.62591552734375,2,106318.330444375,2,0,1582559228.502519,1582558685.643339,11,0.6387488,0,0,10.91,0,0,1582558765.788069,106315.697088,0,6.381195,99.28883
1582559228.528468,35,0,1582559227.999403,41.20567695421208,29.07219870622046,177.7099,0.3156431,143.0219209180194,3,16.00241654736175,-9999,106318.363372375,0.9723968505859375,0.08001708984375,-0.0929718017578125,106318.357361375,-0.8060292921866856,1.492536165249401,-0.07995822446507445,0.003048022976145148,-0.008325394243001938,0.002206973731517792,-0.02011531591415405,0.0002145171165466309,-0.01346170902252197,2,-0.2390537520969009,-0.6355218697430858,0.3126897700891488,-0.6642215817836225,0.9937540292739868,0.07987305521965027,-0.0779305100440979,48.28389739990234,-33.93999481201172,-33.62591552734375,2,106318.330444375,2,0,1582559228.502519,1582558685.643339,11,0.6387488,0,0,10.91,0,0,1582558765.788069,106315.697088,0,6.381195,99.28883
1582559228.538534,36,0,1582559227.999403,41.20567695421208,29.07219870622046,177.7099,0.3156431,143.0219209180194,3,16.00241654736175,-9999,106318.373443375,0.9738311767578125,0.0811920166015625,-0.089996337890625,106318.367401375,-0.8060539147283438,1.492573127807044,-0.0799676347916697,0.002879791427403688,0.007122587412595749,-0.001334269531071186,-0.02225351333618164,0.0004798769950866699,-0.01564967632293701,2,-0.2390641081153357,-0.6355324440869432,0.3126964122213437,-0.6642046782004818,0.9937562346458435,0.0798824355006218,-0.07789372652769089,48.25243377685547,-34.18766021728516,-33.620361328125,2,106318.330444375,2,0,1582559228.502519,1582558685.643339,11,0.6387488,0,0,10.91,0,0,1582558765.788069,106315.697088,0,6.381195,99.28883
1582559228.56465,37,0,1582559227.999403,41.20567695421208,29.07219870622046,177.7099,0.3156431,143.0219209180194,3,16.00241654736175,-9999,106318.383484375,0.978607177734375,0.0825653076171875,-0.0854949951171875,106318.377441375,-0.8060759643007397,1.492565017917447,-0.0800017408267526,0.002077913610264659,0.002201596274971962,-0.003983049653470516,-0.01941180229187012,0.00137665867805481,-0.01136910915374756,2,-0.2390581479538397,-0.6355315984823917,0.3127151497574384,-0.6641988392363871,0.9937528967857361,0.07991643249988556,-0.07790157943964005,48.17046356201172,-34.20590209960938,-33.60595703125,2,106318.330444375,2,0,1582559228.502519,1582558685.643339,11,0.6387488,0,0,10.91,0,0,1582558765.788069,106315.697088,0,6.381195,99.28883
1582559228.565786,38,0,1582559227.999403,41.20567695421208,29.07219870622046,177.7099,0.3156431,143.0219209180194,3,16.00241654736175,-9999,106318.393524375,0.97833251953125,0.0865325927734375,-0.0839691162109375,106318.387481375,-0.8060861116754116,1.492408057136721,-0.0799789318067797,0.0008209967636503279,-0.01430170610547066,0.002823685295879841,-0.01506787538528442,0.003123670816421509,-0.007245659828186035,2,-0.2390446633087257,-0.6354752560739009,0.3127302949973503,-0.664250418844083,0.9937424063682556,0.07989369332790375,-0.07805769890546799,48.17046356201172,-34.20590209960938,-33.60595703125,2,106318.330444375,2,0,1582559228.502519,1582558685.643339,11,0.6387488,0,0,10.91,0,0,1582558765.788069,106315.697088,0,6.381195,99.28883
1582559228.569083,39,0,1582559227.999403,41.20567695421208,29.07219870622046,177.7099,0.3156431,143.0219209180194,3,16.00241654736175,-9999,106318.403564375,0.9808197021484375,0.087615966796875,-0.0827484130859375,106318.397522375,-0.8060874548925776,1.492061985897954,-0.07987859218752702,-0.0003880783333443105,-0.03285301849246025,0.009970811195671558,-0.0160406231880188,0.007007867097854614,-0.006153464317321777,2,-0.2390253558440308,-0.6353469630707961,0.3127413796322902,-0.6643749081860256,0.9937233924865723,0.07979367673397064,-0.07840222865343094,48.20255279541016,-34.09829711914062,-33.71771240234375,2,106318.330444375,2,0,1582559228.502519,1582558685.643339,11,0.6387488,0,0,10.91,0,0,1582558765.788069,106315.697088,0,6.381195,99.28883
1582559228.578668,40,0,1582559227.999403,41.20567695421208,29.07219870622046,177.7099,0.3156431,143.0219209180194,3,16.00241654736175,-9999,106318.413604375,0.9836883544921875,0.08795166015625,-0.0816192626953125,106318.407562375,-0.8060997229822207,1.49145055569513,-0.07971150717538383,0.002318249782547355,-0.05976041033864021,0.01686957664787769,-0.0123894214630127,0.008349448442459106,-0.003469288349151611,2,-0.2389909458180264,-0.6351203810870228,0.3127673739922701,-0.6645915934765964,0.9936884641647339,0.07962711900472641,-0.07901085913181305,48.20255279541016,-34.09829711914062,-33.71771240234375,2,106318.330444375,2,0,1582559228.502519,1582558685.643339,11,0.6387488,0,0,10.91,0,0,1582558765.788069,106315.697088,0,6.381195,99.28883
1582559228.58855,41,0,1582559227.999403,41.20567695421208,29.07219870622046,177.7099,0.3156431,143.0219209180194,3,16.00241654736175,-9999,106318.423645375,0.9814605712890625,0.08465576171875,-0.0869140625,106318.417602375,-0.8061271311630887,1.490610470587848,-0.07952639317375268,0.004381666891276836,-0.08314482867717743,0.01910743117332458,-0.01070469617843628,0.007984697818756104,-0.002983987331390381,2,-0.2389317314331654,-0.6348135386505258,0.3128202107790358,-0.664881167299515,0.9936364889144897,0.0794425904750824,-0.07984679937362671,48.15206146240234,-34.02564239501953,-33.81304931640625,2,106318.330444375,2,0,1582559228.502519,1582558685.643339,11,0.6387488,0,0,10.91,0,0,1582558765.788069,106315.697088,0,6.381195,99.28883
1582559228.599067,42,0,1582559227.999403,41.20567695421208,29.07219870622046,177.7099,0.3156431,143.0219209180194,3,16.00241654736175,-9999,106318.433685375,0.980377197265625,0.0833892822265625,-0.0872802734375,106318.427642375,-0.8061596851752902,1.489643609626546,-0.07934525895062171,0.003665436990559101,-0.0951027050614357,0.01868713460862637,-0.01254862546920776,0.004823654890060425,-0.007102727890014648,2,-0.2388529613330294,-0.6344642984166496,0.3128911198580018,-0.6652093782259988,0.9935731291770935,0.07926203310489655,-0.08080863207578659,48.15206146240234,-34.02564239501953,-33.81304931640625,2,106318.330444375,2,0,1582559228.502519,1582558685.643339,11,0.6387488,0,0,10.91,0,0,1582558765.788069,106315.697088,0,6.381195,99.28883
1582559228.614192,43,0,1582559227.999403,41.20567695421208,29.07219870622046,177.7099,0.3156431,143.0219209180194,3,16.00241654736175,-9999,106318.443725375,0.969970703125,0.0835113525390625,-0.0943756103515625,106318.437683375,-0.8061848373220691,1.488651603597869,-0.07914246387726544,0.003571427427232265,-0.09912621229887009,0.01925545372068882,-0.01491022109985352,0.004293560981750488,-0.006481647491455078,2,-0.2387753165239216,-0.6341045459743246,0.3129559431878165,-0.6655497434511681,0.993508517742157,0.07905986905097961,-0.08179554343223572,47.99143218994141,-34.17319488525391,-33.82073974609375,2,106318.330444375,2,0,1582559228.502519,1582558685.643339,11,0.6387488,0,0,10.91,0,0,1582558765.788069,106315.697088,0,6.381195,99.28883
1582559228.61879,44,0,1582559227.999403,41.20567695421208,29.07219870622046,177.7099,0.3156431,143.0219209180194,3,16.00241654736175,-9999,106318.453766375,0.9619140625,0.0811309814453125,-0.1026611328125,106318.447723375,-0.806169613404353,1.487873930533085,-0.07887194010663451,-0.001075529959052801,-0.0764988511800766,0.02680312469601631,-0.02617442607879639,0.004487007856369019,-0.01411473751068115,2,-0.2387417008219754,-0.6338118379537112,0.31296104592922,-0.6658380983032537,0.9934658408164978,0.07879018783569336,-0.0825699120759964,47.99143218994141,-34.17319488525391,-33.82073974609375,2,106318.330444375,2,0,1582559228.502519,1582558685.643339,11,0.6387488,0,0,10.91,0,0,1582558765.788069,106315.697088,0,6.381195,99.28883
1582559228.62882,45,0,1582559227.999403,41.20567695421208,29.07219870622046,177.7099,0.3156431,143.0219209180194,3,16.00241654736175,-9999,106318.463806375,0.9590301513671875,0.0790252685546875,-0.1039886474609375,106318.457763375,-0.8061164827729971,1.487440314310844,-0.07855052736862234,-0.004291296936571598,-0.04385249316692352,0.03365650400519371,-0.03290820121765137,0.002198308706283569,-0.02080780267715454,2,-0.2387674363906044,-0.6336313780910691,0.3128969245803475,-0.6660306156460185,0.9934549927711487,0.07846977561712265,-0.08300277590751648,47.93747711181641,-34.18249893188477,-34.083984375,2,106318.330444375,2,0,1582559228.502519,1582558685.643339,11,0.6387488,0,0,10.91,0,0,1582558765.788069,106315.697088,0,6.381195,99.28883
1582559228.638741,46,0,1582559227.999403,41.20567695421208,29.07219870622046,177.7099,0.3156431,143.0219209180194,3,16.00241654736175,-9999,106318.473846375,0.9549102783203125,0.07098388671875,-0.112762451171875,106318.467804375,-0.8060050094692123,1.487535904565694,-0.07824228449246431,-0.00826118141412735,0.008710935711860657,0.03199994564056396,-0.03564119338989258,-0.0002103447914123535,-0.02227407693862915,2,-0.2388528869423197,-0.6336358433857457,0.3127542194821286,-0.6660628928075918,0.9934871196746826,0.07816247642040253,-0.08290982991456985,47.93747711181641,-34.18249893188477,-34.083984375,2,106318.330444375,2,0,1582559228.502519,1582558685.643339,11,0.6387488,0,0,10.91,0,0,1582558765.788069,106315.697088,0,6.381195,99.28883
1582559228.648883,47,0,1582559227.999403,41.20567695421208,29.07219870622046,177.7099,0.3156431,143.0219209180194,3,16.00241654736175,-9999,106318.483886375,0.9486846923828125,0.0644989013671875,-0.12255859375,106318.477874375,-0.8057159819078544,1.489074719470515,-0.07811380762473973,-0.05890385434031487,0.192363053560257,0.0135567570105195,-0.04255253076553345,-0.01131266355514526,-0.03655922412872314,2,-0.2390459280145467,-0.6341657261002672,0.3124348715533224,-0.6656389921586091,0.9936234354972839,0.07803439348936081,-0.08138175308704376,48.09699249267578,-34.15538024902344,-34.0379638671875,2,106318.330444375,2,0,1582559228.502519,1582558685.643339,11,0.6387488,0,0,10.91,0,0,1582558765.788069,106315.697088,0,6.381195,99.28883
1582559228.660263,48,0,1582559227.999403,41.20567695421208,29.07219870622046,177.7099,0.3156431,143.0219209180194,3,16.00241654736175,-9999,106318.493927375,0.989227294921875,0.076080322265625,-0.0758056640625,106318.487915375,-0.8054733926796244,1.490010899945629,-0.07811241557720039,-0.04843617603182793,0.04415129125118256,0.006091041956096888,-0.03257274627685547,-0.00954127311706543,-0.02549642324447632,2,-0.2391156744015246,-0.6345060583899896,0.3122418112237767,-0.6653801287988704,0.9936992526054382,0.07803300768136978,-0.08045151084661484,48.09699249267578,-34.15538024902344,-34.0379638671875,2,106318.330444375,2,0,1582559228.502519,1582558685.643339,11,0.6387488,0,0,10.91,0,0,1582558765.788069,106315.697088,0,6.381195,99.28883
1582559228.671742,49,0,1582559227.999403,41.20567695421208,29.07219870622046,177.7099,0.3156431,143.0219209180194,3,16.00241654736175,-9999,106318.503967375,0.9769287109375,0.081878662109375,-0.090484619140625,106318.497955375,-0.8052942179608551,1.491121439541566,-0.07817363200536045,-0.01423080079257488,0.1417918354272842,-0.004596755839884281,-0.01222521066665649,0.000254899263381958,-0.004612922668457031,2,-0.2392111631646054,-0.6349049156478026,0.3120681540309828,-0.665046670164148,0.993783175945282,0.07809403538703918,-0.07934753596782684,48.27547454833984,-34.10260772705078,-33.871826171875,2,106318.330444375,2,0,1582559228.502519,1582558685.643339,11,0.6387488,0,0,10.91,0,0,1582558765.788069,106315.697088,0,6.381195,99.28883
1582559228.679013,50,0,1582559227.999403,41.20567695421208,29.07219870622046,177.7099,0.3156431,143.0219209180194,3,16.00241654736175,-9999,106318.514007375,0.981597900390625,0.0782470703125,-0.0823516845703125,106318.507995375,-0.805063398161337,1.491689439493657,-0.07822237703135525,-0.02533154562115669,0.04597102478146553,-0.00090801902115345,-0.01144236326217651,0.003166466951370239,-0.005147457122802734,2,-0.239209754994224,-0.6351277937187223,0.3119384033190126,-0.6648952688589678,0.9938243627548218,0.07814262807369232,-0.07878275960683823,48.27547454833984,-34.10260772705078,-33.871826171875,2,106318.330444375,2,0,1582559228.502519,1582558685.643339,11,0.6387488,0,0,10.91,0,0,1582558765.788069,106315.697088,0,6.381195,99.28883
1582559228.689068,51,0,1582559227.999403,41.20567695421208,29.07219870622046,177.7099,0.3156431,143.0219209180194,3,16.00241654736175,-9999,106318.524048375,0.9716644287109375,0.0786285400390625,-0.09161376953125,106318.518036375,-0.8048300194638141,1.492364119223117,-0.07832530780156338,-0.02534885704517365,0.06344215571880341,-0.007214917335659266,-0.01673632860183716,-0.0007051229476928711,-0.00911480188369751,2,-0.2392055428279063,-0.6353935074175099,0.3118116698468333,-0.6647023532806032,0.9938693046569824,0.07824524492025375,-0.07811159640550613,48.21204376220703,-34.09180068969727,-33.7366943359375,2,106318.330444375,2,0,1582559228.502519,1582558685.643339,11,0.6387488,0,0,10.91,0,0,1582558765.788069,106315.697088,0,6.381195,99.28883
1582559228.699053,52,0,1582559227.999403,41.20567695421208,29.07219870622046,177.7099,0.3156431,143.0219209180194,3,16.00241654736175,-9999,106318.534088375,0.969207763671875,0.082916259765625,-0.0876007080078125,106318.528076375,-0.8046436352943014,1.493005665243155,-0.07843390871177068,-0.01743408106267452,0.06482897698879242,-0.00899854302406311,-0.02260673046112061,0.001536458730697632,-0.01295775175094604,2,-0.2392090967453465,-0.6356432593460601,0.3117062883319655,-0.6645117019703105,0.9939107298851013,0.07835351675748825,-0.07747331261634827,48.21204376220703,-34.09180068969727,-33.7366943359375,2,106318.330444375,2,0,1582559228.502519,1582558685.643339,11,0.6387488,0,0,10.91,0,0,1582558765.788069,106315.697088,0,6.381195,99.28883
1582559228.710375,53,0,1582559227.999403,41.20567695421208,29.07219870622046,177.7099,0.3156431,143.0219209180194,3,16.00241654736175,-9999,106318.544128375,0.9662933349609375,0.0854339599609375,-0.088653564453125,106318.538116375,-0.8044980885092725,1.493696544003279,-0.07847445185443461,-0.01470087934285402,0.0725361630320549,-0.003203504253178835,-0.02642589807510376,0.004486680030822754,-0.01198196411132812,2,-0.2392566029464647,-0.6358955039884819,0.3115877271911582,-0.6643088072619591,0.9939607977867126,0.07839393615722656,-0.07678636908531189,48.17882537841797,-34.08571243286133,-33.66839599609375,2,106318.330444375,2,0,1582559228.502519,1582558685.643339,11,0.6387488,0,0,10.91,0,0,1582558765.788069,106315.697088,0,6.381195,99.28883
1582559228.719101,54,0,1582559227.999403,41.20567695421208,29.07219870622046,177.7099,0.3156431,143.0219209180194,3,16.00241654736175,-9999,106318.554168375,0.9696044921875,0.086761474609375,-0.082977294921875,106318.548156375,-0.8043989896363,1.494332112167022,-0.07843019621324346,-0.009936043061316013,0.0629640519618988,0.004215719178318977,-0.02687478065490723,0.007887780666351318,-0.01125550270080566,2,-0.2393391924321198,-0.6361126450140131,0.311465198143696,-0.6641287742285227,0.9940130710601807,0.07834981381893158,-0.0761549100279808,48.17882537841797,-34.08571243286133,-33.66839599609375,2,106318.330444375,2,0,1582559228.502519,1582558685.643339,11,0.6387488,0,0,10.91,0,0,1582558765.788069,106315.697088,0,6.381195,99.28883
1582559228.73302,55,0,1582559227.999403,41.20567695421208,29.07219870622046,177.7099,0.3156431,143.0219209180194,3,16.00241654736175,-9999,106318.564209375,0.9641265869140625,0.083709716796875,-0.0894622802734375,106318.558197375,-0.8043679889915372,1.49501832188708,-0.07828463856491523,-0.004025423899292946,0.0730997771024704,0.01491656620055437,-0.02625155448913574,0.008032947778701782,-0.009175539016723633,2,-0.2394860798274305,-0.6363250752216574,0.3113280924710299,-0.6639363797687143,0.9940762519836426,0.07820469886064529,-0.07547362893819809,48.22585296630859,-34.0748291015625,-33.53265380859375,2,106318.330444375,2,0,1582559228.502519,1582558685.643339,11,0.6387488,0,0,10.91,0,0,1582558765.788069,106315.697088,0,6.381195,99.28883
1582559228.739313,56,0,1582559227.999403,41.20567695421208,29.07219870622046,177.7099,0.3156431,143.0219209180194,3,16.00241654736175,-9999,106318.574249375,0.973175048828125,0.0811920166015625,-0.0862274169921875,106318.568237375,-0.8044360561332649,1.495771107442909,-0.07817003549157281,0.008524565026164055,0.07846634835004807,0.006781634408980608,-0.02878904342651367,0.004637688398361206,-0.01476055383682251,2,-0.2396641092800551,-0.6365517521537842,0.3112253288327409,-0.6637030640237312,0.9941417574882507,0.07809045165777206,-0.07472596317529678,48.22585296630859,-34.0748291015625,-33.53265380859375,2,106318.330444375,2,0,1582559228.502519,1582558685.643339,11,0.6387488,0,0,10.91,0,0,1582558765.788069,106315.697088,0,6.381195,99.28883
1582559228.749169,57,0,1582559227.999403,41.20567695421208,29.07219870622046,177.7099,0.3156431,143.0219209180194,3,16.00241654736175,-9999,106318.584289375,0.9738311767578125,0.0790252685546875,-0.0856475830078125,106318.578277375,-0.804496796792747,1.496548540964651,-0.07805456679290865,0.007320815697312355,0.08092258125543594,0.01125388219952583,-0.02052474021911621,0.002799749374389648,-0.01257318258285522,2,-0.2398439168442579,-0.6367872729099373,0.3111168216021169,-0.6634630057145943,0.9942085742950439,0.07797533273696899,-0.07395373284816742,48.09041595458984,-34.32844543457031,-33.52130126953125,2,106318.330444375,2,0,1582559228.502519,1582558685.643339,11,0.6387488,0,0,10.91,0,0,1582558765.788069,106315.697088,0,6.381195,99.28883
1582559228.759875,58,0,1582559227.999403,41.20567695421208,29.07219870622046,177.7099,0.3156431,143.0219209180194,3,16.00241654736175,-9999,106318.594330375,0.972686767578125,0.0818634033203125,-0.0835723876953125,106318.588318375,-0.8045370702252326,1.497264194674361,-0.07793187425474636,0.005961489398032427,0.07353509217500687,0.0115099661052227,-0.02122789621353149,0.001060545444488525,-0.01247560977935791,2,-0.2400099947140754,-0.6370037264261342,0.3110066292050756,-0.6632468589678042,0.9942708611488342,0.0778530165553093,-0.0732429102063179,48.09041595458984,-34.32844543457031,-33.52130126953125,2,106318.330444375,2,0,1582559228.502519,1582558685.643339,11,0.6387488,0,0,10.91,0,0,1582558765.788069,106315.697088,0,6.381195,99.28883
1582559228.76931,59,0,1582559227.999403,41.20567695421208,29.07219870622046,177.7099,0.3156431,143.0219209180194,3,16.00241654736175,-9999,106318.604370375,0.96441650390625,0.0847320556640625,-0.0852508544921875,106318.598358375,-0.8045256007321636,1.497923977331416,-0.07769684215466352,0.0005363640375435352,0.06689875572919846,0.0218784511089325,-0.02301865816116333,0.004972338676452637,-0.01140660047531128,2,-0.2401893163659307,-0.6371930526310881,0.3108513701479487,-0.6630727364645372,0.9943370223045349,0.07761869579553604,-0.07258821278810501,48.23758697509766,-34.1834716796875,-33.45257568359375,2,106318.330444375,2,0,1582559228.502519,1582558685.643339,11,0.6387488,0,0,10.91,0,0,1582558765.788069,106315.697088,0,6.381195,99.28883
1582559228.779281,60,0,1582559227.999403,41.20567695421208,29.07219870622046,177.7099,0.3156431,143.0219209180194,3,16.00241654736175,-9999,106318.614410375,0.9595947265625,0.0892486572265625,-0.0854339599609375,106318.608398375,-0.8045165908634817,1.498630576392087,-0.07726892702816537,0.001389543060213327,0.07187293469905853,0.04334196448326111,-0.03216665983200073,0.008481442928314209,-0.01401436328887939,2,-0.2404424675150656,-0.6373722795888647,0.3106318816850653,-0.6629116795730798,0.9944212436676025,0.07719206064939499,-0.07188799232244492,48.23758697509766,-34.1834716796875,-33.45257568359375,2,106318.330444375,2,0,1582559228.502519,1582558685.643339,11,0.6387488,0,0,10.91,0,0,1582558765.788069,106315.697088,0,6.381195,99.28883
1582559228.789741,61,0,1582559227.999403,41.20567695421208,29.07219870622046,177.7099,0.3156431,143.0219209180194,3,16.00241654736175,-9999,106318.624481375,0.9611053466796875,0.0804901123046875,-0.09051513671875,106318.618438375,-0.8045734549718351,1.499532978750158,-0.0767842401912448,0.009811524301767349,0.09231722354888916,0.04811195284128189,-0.0352436900138855,0.0119251012802124,-0.01529103517532349,2,-0.2407663345236995,-0.6376009338513318,0.3103930212490942,-0.6626859806284056,0.994522750377655,0.07670880854129791,-0.07099324464797974,48.42649078369141,-34.37569046020508,-33.269775390625,2,106318.330444375,2,0,1582559228.502519,1582558685.643339,11,0.6387488,0,0,10.91,0,0,1582558765.788069,106315.697088,0,6.381195,99.28883
1582559228.799351,62,0,1582559227.999403,41.20567695421208,29.07219870622046,177.7099,0.3156431,143.0219209180194,3,16.00241654736175,-9999,106318.6345155,0.967926025390625,0.07763671875,-0.0872955322265625,106318.628479375,-0.8046154188530131,1.50069559878661,-0.0762846383663818,0.006055222824215889,0.1191708892583847,0.05120928958058357,-0.03345626592636108,0.002367943525314331,-0.02198392152786255,2,-0.2411306378846485,-0.6379155128884895,0.310113021352205,-0.6623819039221477,0.9946429133415222,0.07621067017316818,-0.06983962655067444,48.42649078369141,-34.37569046020508,-33.269775390625,2,106318.330444375,2,0,1582559228.502519,1582558685.643339,11,0.6387488,0,0,10.91,0,0,1582558765.788069,106315.697088,0,6.381195,99.28883
1582559228.809623,63,0,1582559227.999403,41.20567695421208,29.07219870622046,177.7099,0.3156431,143.0219209180194,3,16.00241654736175,-9999,106318.6445555,0.97381591796875,0.07427978515625,-0.0782318115234375,106318.6385135,-0.8046822771681806,1.50191475310799,-0.07581525921926756,0.01123720221221447,0.1219112873077393,0.04748965054750443,-0.02509206533432007,0.0016460120677948,-0.01667892932891846,2,-0.2415011374419741,-0.6382495602676175,0.309843414089359,-0.6620511176814942,0.9947627186775208,0.07574264705181122,-0.06862939894199371,48.55350494384766,-34.35064697265625,-33.2501220703125,2,106318.330444375,2,0,1582559228.502519,1582558685.643339,11,0.6387488,0,0,10.91,0,0,1582558765.788069,106315.697088,0,6.381195,99.28883
1582559228.819346,64,0,1582559227.999403,41.20567695421208,29.07219870622046,177.7099,0.3156431,143.0219209180194,3,16.00241654736175,-9999,106318.6545965,0.96435546875,0.079681396484375,-0.0786895751953125,106318.6485535,-0.8046741167632963,1.503095890095527,-0.07529750093549156,0.002003797562792897,0.1181510537862778,0.05114389210939407,-0.02267849445343018,-0.001118063926696777,-0.01093959808349609,2,-0.2418580079886375,-0.6385735527685638,0.3095383096632347,-0.6617510628293354,0.9948821067810059,0.07522636651992798,-0.06745704263448715,48.55350494384766,-34.35064697265625,-33.2501220703125,2,106318.330444375,2,0,1582559228.502519,1582558685.643339,11,0.6387488,0,0,10.91,0,0,1582558765.788069,106315.697088,0,6.381195,99.28883
1582559228.82962,65,0,1582559227.999403,41.20567695421208,29.07219870622046,177.7099,0.3156431,143.0219209180194,3,16.00241654736175,-9999,106318.6646365,0.96185302734375,0.0861358642578125,-0.0753173828125,106318.6585945,-0.8046256558230698,1.504267201489526,-0.07454874814038653,-0.001003710087388754,0.1175041794776917,0.07635257393121719,-0.03306663036346436,0.007197290658950806,-0.01243728399276733,2,-0.2422788715741692,-0.6388687204264754,0.3091494091776718,-0.661494038854317,0.9950164556503296,0.07447971403598785,-0.06629541516304016,48.64046478271484,-34.47164154052734,-33.18536376953125,2,106318.330444375,2,0,1582559228.502519,1582558685.643339,11,0.6387488,0,0,10.91,0,0,1582558765.788069,106315.697088,0,6.381195,99.28883
1582559228.839576,66,0,1582559227.999403,41.20567695421208,29.07219870622046,177.7099,0.3156431,143.0219209180194,3,16.00241654736175,-9999,106318.6746765,0.9754486083984375,0.0777587890625,-0.0700225830078125,106318.6686345,-0.8046399570682559,1.505378034009072,-0.07372030332544113,0.008088587783277035,0.1136647015810013,0.08344936370849609,-0.03165954351425171,0.01193004846572876,-0.009769976139068604,2,-0.2427371860396702,-0.6391256619351762,0.3087635359881956,-0.661258080857181,0.9951508045196533,0.07365354895591736,-0.06519409269094467,48.64046478271484,-34.47164154052734,-33.18536376953125,2,106318.330444375,2,0,1582559228.502519,1582558685.643339,11,0.6387488,0,0,10.91,0,0,1582558765.788069,106315.697088,0,6.381195,99.28883
1582559228.854097,67,0,1582559227.999403,41.20567695421208,29.07219870622046,177.7099,0.3156431,143.0219209180194,3,16.00241654736175,-9999,106318.6847175,0.9868927001953125,0.0702056884765625,-0.0634918212890625,106318.6786745,-0.8046881028831702,1.506276971092102,-0.07298560888354613,0.009682490490376949,0.09141824394464493,0.07489236444234848,-0.01784026622772217,0.002561837434768677,-0.004939436912536621,2,-0.2431413889907807,-0.6393205664967956,0.3084431381039979,-0.6610706153174669,0.9952626824378967,0.07292082905769348,-0.064302958548069,48.64492034912109,-34.48294448852539,-32.92547607421875,2,106318.330444375,2,0,1582559228.502519,1582558685.643339,11,0.6387488,0,0,10.91,0,0,1582558765.788069,106315.697088,0,6.381195,99.28883
1582559228.860359,68,0,1582559227.999403,41.20567695421208,29.07219870622046,177.7099,0.3156431,143.0219209180194,3,16.00241654736175,-9999,106318.6947575,1.001205444335938,0.05963134765625,-0.0620574951171875,106318.6887145,-0.8047957011111014,1.506866815936464,-0.07256392355472288,0.01464590895920992,0.05923448130488396,0.04301219061017036,-0.006342589855194092,-0.003792375326156616,0.0009294748306274414,2,-0.2434102261035394,-0.6394470561686085,0.3082765232001555,-0.6609269801288941,0.9953309297561646,0.07250025868415833,-0.06371784955263138,48.64492034912109,-34.48294448852539,-32.92547607421875,2,106318.330444375,2,0,1582559228.502519,1582558685.643339,11,0.6387488,0,0,10.91,0,0,1582558765.788069,106315.697088,0,6.381195,99.28883
1582559228.869819,69,0,1582559227.999403,41.20567695421208,29.07219870622046,177.7099,0.3156431,143.0219209180194,3,16.00241654736175,-9999,106318.7047975,1.001434326171875,0.0631256103515625,-0.0633544921875,106318.6987555,-0.8049505293661018,1.507204067541764,-0.07253230592145422,0.01504538301378489,0.03731266781687737,0.002478611655533314,0.007244408130645752,-0.01392313838005066,0.0001970529556274414,2,-0.2435224433425911,-0.6395355029630628,0.3082768482168361,-0.6607999846933,0.9953547716140747,0.07246872782707214,-0.06338232010602951,48.74665069580078,-34.63636779785156,-33.15594482421875,2,106318.330444375,2,0,1582559228.502519,1582558685.643339,11,0.6387488,0,0,10.91,0,0,1582558765.788069,106315.697088,0,6.381195,99.28883
1582559228.879749,70,0,1582559227.999403,41.20567695421208,29.07219870622046,177.7099,0.3156431,143.0219209180194,3,16.00241654736175,-9999,106318.7148375,0.992401123046875,0.0663909912109375,-0.0595245361328125,106318.7087955,-0.805150492192423,1.507214372763616,-0.07272459284965559,0.01908379234373569,0.006522290408611298,-0.01928353309631348,0.003717660903930664,-0.007828354835510254,0.0004758834838867188,2,-0.2435225917198541,-0.6395398044402422,0.3084011499920728,-0.6607377068120113,0.995341420173645,0.07266050577163696,-0.06337117403745651,48.74665069580078,-34.63636779785156,-33.15594482421875,2,106318.330444375,2,0,1582559228.502519,1582558685.643339,11,0.6387488,0,0,10.91,0,0,1582558765.788069,106315.697088,0,6.381195,99.28883
1582559228.889794,71,0,1582559227.999403,41.20567695421208,29.07219870622046,177.7099,0.3156431,143.0219209180194,3,16.00241654736175,-9999,106318.7248785,0.9789276123046875,0.0663299560546875,-0.0729522705078125,106318.7188355,-0.805299444750326,1.507002065763738,-0.0731506256248481,0.008512641303241253,-0.02298766747117043,-0.04498809576034546,-0.005088090896606445,-0.008222967386245728,0.00231778621673584,2,-0.2433925789502158,-0.6395074668687513,0.3086079919045392,-0.6607202794843142,0.9952968955039978,0.07308540493249893,-0.06358050554990768,48.74605560302734,-34.50367736816406,-32.81903076171875,2,106318.330444375,2,0,1582559228.502519,1582558685.643339,11,0.6387488,0,0,10.91,0,0,1582558765.788069,106315.697088,0,6.381195,99.28883
1582559228.900276,72,0,1582559227.999403,41.20567695421208,29.07219870622046,177.7099,0.3156431,143.0219209180194,3,16.00241654736175,-9999,106318.7349185,0.9707183837890625,0.0773162841796875,-0.0743255615234375,106318.7289065,-0.8055030322268996,1.506958828598288,-0.07366054418860171,0.01801799610257149,0.004164591431617737,-0.05241751670837402,-0.02009332180023193,-0.004657655954360962,-0.01251900196075439,2,-0.2432775292703077,-0.6395353515059196,0.3088382096485008,-0.6606281245923643,0.9952569007873535,0.07359395176172256,-0.0636211559176445,48.74605560302734,-34.50367736816406,-32.81903076171875,2,106318.330444375,2,0,1582559228.502519,1582558685.643339,11,0.6387488,0,0,10.91,0,0,1582558765.788069,106315.697088,0,6.381195,99.28883
1582559228.914789,73,0,1582559227.999403,41.20567695421208,29.07219870622046,177.7099,0.3156431,143.0219209180194,3,16.00241654736175,-9999,106318.7449585,0.9685821533203125,0.0797119140625,-0.0657958984375,106318.7389465,-0.805716621881238,1.506742192284086,-0.07415563951172051,0.01709574274718761,-0.02062011696398258,-0.04945901036262512,-0.024391770362854,0.003729015588760376,-0.008094072341918945,2,-0.2431438862745963,-0.6395028025928511,0.3090881874630447,-0.6605920374121047,0.9952067136764526,0.07408769428730011,-0.06383442878723145,48.73566436767578,-34.35791778564453,-32.95013427734375,2,106318.330444375,2,0,1582559228.502519,1582558685.643339,11,0.6387488,0,0,10.91,0,0,1582558765.788069,106315.697088,0,6.381195,99.28883
1582559228.919913,74,0,1582559227.999403,41.20567695421208,29.07219870622046,177.7099,0.3156431,143.0219209180194,3,16.00241654736175,-9999,106318.7549995,0.936859130859375,0.08740234375,-0.099212646484375,106318.7489875,-0.8061114798720881,1.506775234860915,-0.07466629474777775,0.03204558789730072,-0.00695386715233326,-0.05030017346143723,-0.03020012378692627,0.006576418876647949,-0.004375874996185303,2,-0.2431015331663993,-0.6395327106005012,0.309372428588343,-0.6604455256555899,0.9951708316802979,0.07459693402051926,-0.06379911303520203,48.73566436767578,-34.35791778564453,-32.95013427734375,2,106318.330444375,2,0,1582559228.502519,1582558685.643339,11,0.6387488,0,0,10.91,0,0,1582558765.788069,106315.697088,0,6.381195,99.28883
1582559228.930485,75,0,1582559227.999403,41.20567695421208,29.07219870622046,177.7099,0.3156431,143.0219209180194,3,16.00241654736175,-9999,106318.7650395,0.892486572265625,0.06536865234375,-0.158050537109375,106318.7590275,-0.806786592246873,1.508985142677229,-0.0753863003647078,0.06262586265802383,0.2373592108488083,-0.07706494629383087,-0.06969821453094482,0.009413421154022217,-0.05313402414321899,2,-0.2434146182085878,-0.6402742598360086,0.3095490656875565,-0.6595283473904607,0.9952555894851685,0.07531491667032242,-0.06159638985991478,48.80387115478516,-34.31978607177734,-32.8143310546875,2,106318.330444375,2,0,1582559228.502519,1582558685.643339,11,0.6387488,0,0,10.91,0,0,1582558765.788069,106315.697088,0,6.381195,99.28883
1582559228.939979,76,0,1582559227.999403,41.20567695421208,29.07219870622046,177.7099,0.3156431,143.0219209180194,3,16.00241654736175,-9999,106318.7750795,0.9536590576171875,0.079345703125,-0.0831298828125,106318.7690675,-0.807308848587291,1.512542788737221,-0.07614149422221123,0.04264907911419868,0.3705217242240906,-0.08399814367294312,-0.09956276416778564,-0.01305320858955383,-0.09511691331863403,2,-0.2438760895769812,-0.6414814847411046,0.3095215292401803,-0.6581963761734119,0.9954113960266113,0.07606794685125351,-0.05805191397666931,48.80387115478516,-34.31978607177734,-32.8143310546875,2,106318.330444375,2,0,1582559228.502519,1582558685.643339,11,0.6387488,0,0,10.91,0,0,1582558765.788069,106315.697088,0,6.381195,99.28883
1582559228.950089,77,0,1582559227.999403,41.20567695421208,29.07219870622046,177.7099,0.3156431,143.0219209180194,3,16.00241654736175,-9999,106318.7851195,0.9765472412109375,0.10345458984375,-0.0527801513671875,106318.7791075,-0.807646272292001,1.51565408732076,-0.07640846658275423,0.0303636509925127,0.3106519877910614,-0.02566053532063961,-0.02966517210006714,0.01130819320678711,-0.01302683353424072,2,-0.2443752281300841,-0.6424982487614513,0.309335499052877,-0.6571060734888697,0.9955668449401855,0.0763341411948204,-0.05495349690318108,49.20314788818359,-34.31678771972656,-32.53399658203125,2,106318.330444375,2,0,1582559228.502519,1582558685.643339,11,0.6387488,0,0,10.91,0,0,1582558765.788069,106315.697088,0,6.381195,99.28883
1582559228.96013,78,0,1582559227.999403,41.20567695421208,29.07219870622046,177.7099,0.3156431,143.0219209180194,3,16.00241654736175,-9999,106318.7951605,0.9705810546875,0.082366943359375,-0.071441650390625,106318.7891485,-0.8079274648124809,1.51858090971465,-0.07641705812808652,0.02812389470636845,0.2908967733383179,-0.0009110933169722557,-0.02293938398361206,0.02475786209106445,-0.00503230094909668,2,-0.2449152279610724,-0.6434258630387106,0.3090724670574688,-0.6561203529546479,0.9957227110862732,0.07634270936250687,-0.05203938111662865,49.20314788818359,-34.31678771972656,-32.53399658203125,2,106318.330444375,2,0,1582559228.502519,1582558685.643339,11,0.6387488,0,0,10.91,0,0,1582558765.788069,106315.697088,0,6.381195,99.28883
1582559228.972449,79,0,1582559227.999403,41.20567695421208,29.07219870622046,177.7099,0.3156431,143.0219209180194,3,16.00241654736175,-9999,106318.8052005,0.99261474609375,0.070892333984375,-0.0669097900390625,106318.7991885,-0.8081690450873108,1.521637975947222,-0.07643923586924474,0.02480905875563622,0.3089428842067719,-0.002220569178462029,-0.02277195453643799,0.002000093460083008,-0.02419149875640869,2,-0.2454577358413522,-0.6444012477766737,0.3087837797560039,-0.6550954398433959,0.995875358581543,0.07636482268571854,-0.04899506270885468,49.27356719970703,-34.25180053710938,-32.2518310546875,2,106318.330444375,2,0,1582559228.502519,1582558685.643339,11,0.6387488,0,0,10.91,0,0,1582558765.788069,106315.697088,0,6.381195,99.28883
1582559228.980161,80,0,1582559227.999403,41.20567695421208,29.07219870622046,177.7099,0.3156431,143.0219209180194,3,16.00241654736175,-9999,106318.8152405,1.041168212890625,0.0674285888671875,-0.027099609375,106318.8092285,-0.8083287701176826,1.524263948025729,-0.07656812681045125,0.0142613323405385,0.2757992148399353,-0.01364692114293575,0.00326615571975708,-0.006368190050125122,-0.01650869846343994,2,-0.2458709755334833,-0.6452579432244759,0.3085536619650699,-0.6542050538176368,0.9959908127784729,0.07649333029985428,-0.04637930169701576,49.27356719970703,-34.25180053710938,-32.2518310546875,2,106318.330444375,2,0,1582559228.502519,1582558685.643339,11,0.6387488,0,0,10.91,0,0,1582558765.788069,106315.697088,0,6.381195,99.28883
1582559228.990194,81,0,1582559227.999403,41.20567695421208,29.07219870622046,177.7099,0.3156431,143.0219209180194,3,16.00241654736175,-9999,106318.8252815,1.069595336914062,0.0668792724609375,0.0070648193359375,106318.8192695,-0.8084619022681626,1.525309005471161,-0.07683892949045312,0.01347197126597166,0.1076094210147858,-0.02874491363763809,0.05597341060638428,-0.00978165864944458,0.02882063388824463,2,-0.2459837540186211,-0.6456185074587367,0.3085531352716244,-0.6538071815837094,0.9960181713104248,0.0767633393406868,-0.04533747211098671,49.40352630615234,-34.35305786132812,-32.16168212890625,2,106318.330444375,2,0,1582559228.502519,1582558685.643339,11,0.6387488,0,0,10.91,0,0,1582558765.788069,106315.697088,0,6.381195,99.28883
1582559229.000228,82,0,1582559227.999403,41.20567695421208,29.07219870622046,177.7099,0.3156431,143.0219209180194,3,16.00241654736175,-9999,106318.8353215,1.017196655273438,0.0739593505859375,-0.0301513671875,106318.8293095,-0.8085745021698274,1.525013654826272,-0.07723189751213558,0.008227416314184666,-0.03855837136507034,-0.03832247108221054,0.06797987222671509,-0.009471714496612549,0.0498957633972168,2,-0.2458419851785693,-0.6455591314648202,0.30874880172872,-0.6538266323690258,0.9959743618965149,0.07715514302253723,-0.04563025385141373,49.40352630615234,-34.35305786132812,-32.16168212890625,2,106318.330444375,2,0,1582559228.502519,1582558685.643339,11,0.6387488,0,0,10.91,0,0,1582558765.788069,106315.697088,0,6.381195,99.28883
1582559229.010294,83,0,1582559227.999403,41.20567695421208,29.07219870622046,177.7099,0.3156431,143.0219209180194,3,16.00241654736175,-9999,106318.8453615,0.9747161865234375,0.0768890380859375,-0.0625152587890625,106318.8393495,-0.8087718374590939,1.524641966849882,-0.07777596156091762,0.01693968288600445,-0.02599677257239819,-0.05467108637094498,0.007629454135894775,-0.002430766820907593,0.005006551742553711,2,-0.2456646923474536,-0.6454840132050984,0.3090285905088117,-0.653835220846726,0.9959151744842529,0.07769757509231567,-0.04599849507212639,49.63964080810547,-34.34941864013672,-32.0169677734375,2,106318.330444375,2,0,1582559228.502519,1582558685.643339,11,0.6387488,0,0,10.91,0,0,1582558765.788069,106315.697088,0,6.381195,99.28883
1582559229.020824,84,0,1582559227.999403,41.20567695421208,29.07219870622046,177.7099,0.3156431,143.0219209180194,3,16.00241654736175,-9999,106318.8554015,0.98345947265625,0.07763671875,-0.054656982421875,106318.8493895,-0.8090215449645611,1.524332364301104,-0.07840492011824676,0.02139530703425407,-0.01711145788431168,-0.06373579055070877,-0.02235186100006104,-0.001272827386856079,-0.01655304431915283,2,-0.2454851062974882,-0.6454337952627963,0.3093442349393068,-0.6538030705968,0.995851993560791,0.07832461595535278,-0.04630455747246742,49.63964080810547,-34.34941864013672,-32.0169677734375,2,106318.330444375,2,0,1582559228.502519,1582558685.643339,11,0.6387488,0,0,10.91,0,0,1582558765.788069,106315.697088,0,6.381195,99.28883
1582559229.034711,85,0,1582559227.999403,41.20567695421208,29.07219870622046,177.7099,0.3156431,143.0219209180194,3,16.00241654736175,-9999,106318.8654425,0.9950714111328125,0.0781097412109375,-0.0464630126953125,106318.8594305,-0.8092558748462461,1.52391338719461,-0.0791141323593159,0.02035640738904476,-0.0369299054145813,-0.07063417136669159,-0.009581446647644043,-0.00143083930015564,-0.00640338659286499,2,-0.2452564786354661,-0.6453601114404059,0.3096931491381286,-0.653796352113896,0.9957766532897949,0.07903163135051727,-0.04671917110681534,49.57505035400391,-34.14740753173828,-32.109619140625,2,106318.330444375,2,0,1582559228.502519,1582558685.643339,11,0.6387488,0,0,10.91,0,0,1582558765.788069,106315.697088,0,6.381195,99.28883
1582559229.040874,86,0,1582559227.999403,41.20567695421208,29.07219870622046,177.7099,0.3156431,143.0219209180194,3,16.00241654736175,-9999,106318.8754825,0.9783477783203125,0.0848846435546875,-0.052093505859375,106318.8694705,-0.8094137517873177,1.523130513885752,-0.0797956160723599,0.0113452011719346,-0.0812157467007637,-0.06754590570926666,-0.001555919647216797,-0.001042366027832031,0.001240432262420654,2,-0.2449559515066041,-0.6451732375537936,0.3100528665380909,-0.6539230000544465,0.9956858158111572,0.07971096038818359,-0.04749615117907524,49.57505035400391,-34.14740753173828,-32.109619140625,2,106318.330444375,2,0,1582559228.502519,1582558685.643339,11,0.6387488,0,0,10.91,0,0,1582558765.788069,106315.697088,0,6.381195,99.28883
1582559229.050507,87,0,1582559227.999403,41.20567695421208,29.07219870622046,177.7099,0.3156431,143.0219209180194,3,16.00241654736175,-9999,106318.8855535,0.96014404296875,0.0892791748046875,-0.06817626953125,106318.8795105,-0.8095534013494233,1.522444924287494,-0.08032761897989918,0.01219208631664515,-0.06368336081504822,-0.05364660173654556,-0.02334660291671753,0.006819397211074829,-0.00790560245513916,2,-0.2447149483499515,-0.6450009611021035,0.3103479821403051,-0.6540430710074607,0.9956104159355164,0.08024126291275024,-0.04817670956254005,49.53723907470703,-34.06838607788086,-31.97161865234375,2,106318.330444375,2,0,1582559228.502519,1582558685.643339,11,0.6387488,0,0,10.91,0,0,1582558765.788069,106315.697088,0,6.381195,99.28883
1582559229.060689,88,0,1582559227.999403,41.20567695421208,29.07219870622046,177.7099,0.3156431,143.0219209180194,3,16.00241654736175,-9999,106318.8955935,0.971710205078125,0.0804901123046875,-0.064697265625,106318.8895515,-0.8096493105856575,1.521945246850334,-0.08077847262293168,0.007185913156718016,-0.04752696305513382,-0.0461311936378479,-0.03494393825531006,0.007025957107543945,-0.02077627182006836,2,-0.2445158863186382,-0.6448843070645895,0.3105806761217091,-0.6541222341791623,0.9955501556396484,0.0806906521320343,-0.04867242276668549,49.53723907470703,-34.06838607788086,-31.97161865234375,2,106318.330444375,2,0,1582559228.502519,1582558685.643339,11,0.6387488,0,0,10.91,0,0,1582558765.788069,106315.697088,0,6.381195,99.28883
1582559229.070596,89,0,1582559227.999403,41.20567695421208,29.07219870622046,177.7099,0.3156431,143.0219209180194,3,16.00241654736175,-9999,106318.9056335,0.9725799560546875,0.0833740234375,-0.0605010986328125,106318.8995915,-0.8096871691473264,1.521506952586184,-0.08118116364373763,0.001067833160050213,-0.04629072546958923,-0.04047756642103195,-0.02253043651580811,-0.001066029071807861,-0.01440596580505371,2,-0.2443239160959503,-0.6447885308946969,0.3107718050712129,-0.6541974533116656,0.9954959750175476,0.08109202235937119,-0.0491071492433548,49.48761749267578,-34.10195922851562,-31.8994140625,2,106318.330444375,2,0,1582559228.502519,1582558685.643339,11,0.6387488,0,0,10.91,0,0,1582558765.788069,106315.697088,0,6.381195,99.28883
1582559229.081246,90,0,1582559227.999403,41.20567695421208,29.07219870622046,177.7099,0.3156431,143.0219209180194,3,16.00241654736175,-9999,106318.9156745,0.9728240966796875,0.0864410400390625,-0.059722900390625,106318.9096315,-0.8097310875086794,1.521164471070648,-0.08154563197315001,0.002405951963737607,-0.03562293946743011,-0.03672296553850174,-0.02443712949752808,0.003193855285644531,-0.01164019107818604,2,-0.2441615977760252,-0.6447183932628802,0.3109412622621411,-0.6542466514655608,0.9954495429992676,0.0814552828669548,-0.04944661632180214,49.48761749267578,-34.10195922851562,-31.8994140625,2,106318.330444375,2,0,1582559228.502519,1582558685.643339,11,0.6387488,0,0,10.91,0,0,1582558765.788069,106315.697088,0,6.381195,99.28883
1582559229.098922,91,0,1582559227.999403,41.20567695421208,29.07219870622046,177.7099,0.3156431,143.0219209180194,3,16.00241654736175,-9999,106318.9257145,0.982269287109375,0.08294677734375,-0.054229736328125,106318.9196715,-0.8098099186283023,1.520698106134128,-0.08192392353218261,0.005206798668950796,-0.04633736610412598,-0.03911048918962479,-0.0210261344909668,0.003854274749755859,-0.009147942066192627,2,-0.2439865202948954,-0.6446052469691961,0.3111414896611654,-0.6543282760877056,0.9953955411911011,0.08183231204748154,-0.049909308552742,49.46114349365234,-33.94745635986328,-32.13092041015625,2,106318.330444375,2,0,1582559228.502519,1582558685.643339,11,0.6387488,0,0,10.91,0,0,1582558765.788069,106315.697088,0,6.381195,99.28883
1582559229.10077,92,0,1582559227.999403,41.20567695421208,29.07219870622046,177.7099,0.3156431,143.0219209180194,3,16.00241654736175,-9999,106318.9357545,0.97149658203125,0.0841217041015625,-0.0618438720703125,106318.9297125,-0.8099288499033163,1.520133388273559,-0.08232908407817775,0.009413588792085648,-0.05749024823307991,-0.042033851146698,-0.01307588815689087,0.0005511641502380371,-0.004024803638458252,2,-0.2437998413538244,-0.644458506481029,0.3113750915066356,-0.6544313995119118,0.9953341484069824,0.08223611116409302,-0.05046974122524261,49.46114349365234,-33.94745635986328,-32.13092041015625,2,106318.330444375,2,0,1582559228.502519,1582558685.643339,11,0.6387488,0,0,10.91,0,0,1582558765.788069,106315.697088,0,6.381195,99.28883
1582559229.110867,93,0,1582559227.999403,41.20567695421208,29.07219870622046,177.7099,0.3156431,143.0219209180194,3,16.00241654736175,-9999,106318.9457945,0.9550933837890625,0.08648681640625,-0.0752105712890625,106318.9397525,-0.8100564108957989,1.519903565996296,-0.08272285544632393,0.01092892792075872,-0.02029574289917946,-0.04065566509962082,-0.02883994579315186,0.002157479524612427,-0.01508915424346924,2,-0.243671896430295,-0.6444187982305608,0.3115670809005143,-0.6544267743374974,0.9952901005744934,0.08262854069471359,-0.05069683864712715,49.61751556396484,-33.99473571777344,-32.05712890625,2,106318.330444375,2,0,1582559228.502519,1582558685.643339,11,0.6387488,0,0,10.91,0,0,1582558765.788069,106315.697088,0,6.381195,99.28883
1582559229.120944,94,0,1582559227.999403,41.20567695421208,29.07219870622046,177.7099,0.3156431,143.0219209180194,3,16.00241654736175,-9999,106318.9558355,0.96514892578125,0.08465576171875,-0.06781005859375,106318.9497925,-0.8101739360757505,1.520022581260655,-0.08309968632948997,0.009348349645733833,0.01567768305540085,-0.03702512010931969,-0.04091501235961914,0.003719627857208252,-0.02521896362304688,2,-0.2436007890390503,-0.6444922472674647,0.3117079989198116,-0.6543137667085099,0.9952649474143982,0.08300407975912094,-0.05057679861783981,49.61751556396484,-33.99473571777344,-32.05712890625,2,106318.330444375,2,0,1582559228.502519,1582558685.643339,11,0.6387488,0,0,10.91,0,0,1582558765.788069,106315.697088,0,6.381195,99.28883
1582559229.130959,95,0,1582559227.999403,41.20567695421208,29.07219870622046,177.7099,0.3156431,143.0219209180194,3,16.00241654736175,-9999,106318.9658755,0.9815521240234375,0.0735626220703125,-0.0608062744140625,106318.9598335,-0.8103026109798431,1.520159383364085,-0.08364847062055536,0.009090554900467396,0.0123833492398262,-0.05393806099891663,-0.02610570192337036,-0.0006575286388397217,-0.01475268602371216,2,-0.2434778575141469,-0.6445924047173478,0.3119037566990907,-0.6541675547806988,0.9952262043952942,0.08355095237493515,-0.05043832957744598,49.52104949951172,-33.93447875976562,-32.13958740234375,2,106318.330444375,2,0,1582559228.502519,1582558685.643339,11,0.6387488,0,0,10.91,0,0,1582558765.788069,106315.697088,0,6.381195,99.28883
1582559229.159363,96,0,1582559228.999396,41.20567378044944,29.07220425755613,177.7211,0.09100353,141.8427980408434,3,16.00241654736175,-9999,106318.9759155,0.9821014404296875,0.0770263671875,-0.06500244140625,106318.9698735,-0.8104675227848877,1.52045804921823,-0.08445602717468105,0.01255523599684238,0.03805016353726387,-0.08159298449754715,-0.01387667655944824,-0.01147234439849854,-0.01276493072509766,2,-0.2433043435310629,-0.6447745048647479,0.3121719546091395,-0.6539245640902569,0.9951733350753784,0.08435565978288651,-0.05013766884803772,49.52104949951172,-33.93447875976562,-32.13958740234375,2,106318.330444375,2,0,1582559228.502519,1582558685.643339,11,0.6387488,0,0,10.91,0,0,1582558765.788069,106315.697088,0,6.381195,99.28883
1582559229.162696,97,0,1582559228.999396,41.20567378044944,29.07220425755613,177.7211,0.09100353,141.8427980408434,3,16.00241654736175,-9999,106318.9859565,0.9924468994140625,0.0823516845703125,-0.053131103515625,106318.9799445,-0.8106390640011182,1.52069306441942,-0.08540101177534744,0.01155788172036409,0.02480359748005867,-0.09437935799360275,-0.01147365570068359,-0.006875395774841309,-0.01344507932662964,2,-0.2430764680696413,-0.6449526631996937,0.3124926907591407,-0.6536806068414771,0.9951053261756897,0.08529724180698395,-0.04989978671073914,49.62377166748047,-33.66922378540039,-32.00128173828125,2,106318.330444375,2,0,1582559228.502519,1582558685.643339,11,0.6387488,0,0,10.91,0,0,1582558765.788069,106315.697088,0,6.381195,99.28883
1582559229.163736,98,0,1582559228.999396,41.20567378044944,29.07220425755613,177.7211,0.09100353,141.8427980408434,3,16.00241654736175,-9999,106318.9959965,0.991485595703125,0.0848236083984375,-0.054168701171875,106318.9899845,-0.8108456603084849,1.520768669089777,-0.0864742889266885,0.01571197248995304,0.01205099001526833,-0.1082843914628029,-0.002748727798461914,-0.003276050090789795,-0.003194868564605713,2,-0.2427917093004574,-0.6450908610461059,0.3128839866926583,-0.6534626849700111,0.995016872882843,0.08636655658483505,-0.0498199351131916,49.70436859130859,-33.69141387939453,-32.2308349609375,2,106318.330444375,2,0,1582559228.502519,1582558685.643339,11,0.6387488,0,0,10.91,0,0,1582558765.788069,106315.697088,0,6.381195,99.28883
1582559229.171,99,0,1582559228.999396,41.20567378044944,29.07220425755613,177.7211,0.09100353,141.8427980408434,3,16.00241654736175,-9999,106319.0060365,1.00091552734375,0.0859222412109375,-0.049896240234375,106319.0000245,-0.8110518461927309,1.520622872192001,-0.08763092283137129,0.01396440621465445,-0.01045671757310629,-0.1158573552966118,-0.003388404846191406,-0.00256723165512085,-0.004290461540222168,2,-0.2424438439902718,-0.6451674216362971,0.3133277369504341,-0.6533036286581263,0.9949092268943787,0.08751881122589111,-0.04995996132493019,49.70436859130859,-33.69141387939453,-32.2308349609375,2,106318.330444375,2,0,1582559228.502519,1582558685.643339,11,0.6387488,0,0,10.91,0,0,1582558765.788069,106315.697088,0,6.381195,99.28883
1582559229.1815,100,0,1582559228.999396,41.20567378044944,29.07220425755613,177.7211,0.09100353,141.8427980408434,3,16.00241654736175,-9999,106319.0160765,1.014419555664062,0.087738037109375,-0.0372314453125,106319.0100645,-0.8112372955035976,1.519979659274531,-0.08880820019370399,0.01223036460578442,-0.05882647633552551,-0.1191630661487579,0.008893609046936035,-0.002840131521224976,0.00191420316696167,2,-0.2420040919495832,-0.6450865866332754,0.3138311206790154,-0.6533050348763124,0.9947734475135803,0.08869151026010513,-0.05059463158249855,49.92809295654297,-33.72870635986328,-32.105712890625,2,106318.330444375,2,0,1582559228.502519,1582558685.643339,11,0.6387488,0,0,10.91,0,0,1582558765.788069,106315.697088,0,6.381195,99.28883
1582559229.193084,101,0,1582559228.999396,41.20567378044944,29.07220425755613,177.7211,0.09100353,141.8427980408434,3,16.00241654736175,-9999,106319.0261175,1.019699096679688,0.0914459228515625,-0.03216552734375,106319.0201055,-0.8114246999274962,1.518510444051678,-0.0900095975965447,0.01092674769461155,-0.1481276005506516,-0.1192378997802734,0.02128309011459351,-0.001367002725601196,0.01733231544494629,2,-0.241426657357218,-0.6447386429461993,0.3144419495387656,-0.6535683490175834,0.9945908784866333,0.08988811075687408,-0.05205050110816956,49.92809295654297,-33.72870635986328,-32.105712890625,2,106318.330444375,2,0,1582559228.502519,1582558685.643339,11,0.6387488,0,0,10.91,0,0,1582558765.788069,106315.697088,0,6.381195,99.28883
1582559229.202009,102,0,1582559228.999396,41.20567378044944,29.07220425755613,177.7211,0.09100353,141.8427980408434,3,16.00241654736175,-9999,106319.0361575,1.014938354492188,0.083282470703125,-0.0449981689453125,106319.0301455,-0.8116654567507869,1.516479415978252,-0.09140491201409277,0.01672725006937981,-0.1979421377182007,-0.1395859122276306,0.02417218685150146,-0.0007125139236450195,0.01904118061065674,2,-0.2407112553683985,-0.6442253529206944,0.3151969642555531,-0.6539745401489757,0.9943568706512451,0.09127768874168396,-0.0540635734796524,49.87094879150391,-33.45626068115234,-32.21905517578125,2,106318.330444375,2,0,1582559228.502519,1582558685.643339,11,0.6387488,0,0,10.91,0,0,1582558765.788069,106316.633422,0,6.420837,99.28837
1582559229.216144,103,0,1582559228.999396,41.20567378044944,29.07220425755613,177.7211,0.09100353,141.8427980408434,3,16.00241654736175,-9999,106319.0461975,0.999969482421875,0.0885009765625,-0.05755615234375,106319.0401855,-0.8119471696863045,1.51415542411128,-0.09303745044009037,0.02015101164579391,-0.2298081964254379,-0.1647597253322601,0.01849991083145142,-0.00996825098991394,0.008954286575317383,2,-0.2398807730295131,-0.6436414531199335,0.3160723742063315,-0.654431936094591,0.9940783977508545,0.09290328621864319,-0.05636578798294067,49.87094879150391,-33.45626068115234,-32.21905517578125,2,106318.330444375,2,0,1582559228.502519,1582558685.643339,11,0.6387488,0,0,10.91,0,0,1582558765.788069,106316.633422,0,6.420837,99.28837
1582559229.221181,104,0,1582559228.999396,41.20567378044944,29.07220425755613,177.7211,0.09100353,141.8427980408434,3,16.00241654736175,-9999,106319.0562385,0.996368408203125,0.091461181640625,-0.0618896484375,106319.0502265,-0.8122762939280344,1.511761632245049,-0.09488197829060581,0.0218454971909523,-0.2326695472002029,-0.1875584274530411,0.003445088863372803,-0.005091637372970581,-0.001660466194152832,2,-0.2389805047325203,-0.643055830533127,0.3170351331142057,-0.6548712071280867,0.9937679171562195,0.09473967552185059,-0.05873503535985947,49.83826446533203,-33.26186370849609,-32.48638916015625,2,106318.330444375,2,0,1582559228.502519,1582558685.643339,11,0.6387488,0,0,10.91,0,0,1582558765.788069,106316.633422,0,6.420837,99.28837
1582559229.231212,105,0,1582559228.999396,41.20567378044944,29.07220425755613,177.7211,0.09100353,141.8427980408434,3,16.00241654736175,-9999,106319.0662785,0.9896697998046875,0.0972137451171875,-0.0619964599609375,106319.0602665,-0.8126024308158214,1.509174416596087,-0.09686107665346262,0.02115893550217152,-0.2532395422458649,-0.202898234128952,0.00238567590713501,-0.004636377096176147,-0.0001074075698852539,2,-0.2380006170310479,-0.6424239880167814,0.3180592119175196,-0.6553513399084029,0.9934234023094177,0.09670969098806381,-0.06129425019025803,49.83826446533203,-33.26186370849609,-32.48638916015625,2,106318.330444375,2,0,1582559228.502519,1582558685.643339,11,0.6387488,0,0,10.91,0,0,1582558765.788069,106316.633422,0,6.420837,99.28837
1582559229.243288,106,0,1582559228.999396,41.20567378044944,29.07220425755613,177.7211,0.09100353,141.8427980408434,3,16.00241654736175,-9999,106319.0763185,0.973236083984375,0.1106719970703125,-0.071044921875,106319.0703065,-0.8128140046966377,1.506448504032022,-0.09873892310290266,0.006397413555532694,-0.2735981345176697,-0.190524622797966,-0.006781876087188721,0.0004214048385620117,0.0003009438514709473,2,-0.2369939655876344,-0.6417466426630024,0.3190286865545364,-0.6559082958451452,0.9930696487426758,0.0985785573720932,-0.06399021297693253,49.90439605712891,-33.20154571533203,-32.7474365234375,2,106318.330444375,2,0,1582559228.502519,1582558685.643339,11,0.6387488,0,0,10.91,0,0,1582558765.788069,106316.633422,0,6.420837,99.28837
1582559229.251281,107,0,1582559228.999396,41.20567378044944,29.07220425755613,177.7211,0.09100353,141.8427980408434,3,16.00241654736175,-9999,106319.0863585,0.98004150390625,0.1102142333984375,-0.0730743408203125,106319.0803465,-0.8129808798272681,1.503763413030541,-0.1004702760978388,0.004856508690863848,-0.2608972489833832,-0.1741200834512711,-0.02173936367034912,0.01261380314826965,-0.007403969764709473,2,-0.2360272023349611,-0.6410683987515141,0.3199313434808103,-0.6564802972272143,0.9927225708961487,0.1003013327717781,-0.06664493680000305,49.90439605712891,-33.20154571533203,-32.7474365234375,2,106318.330444375,2,0,1582559228.502519,1582558685.643339,11,0.6387488,0,0,10.91,0,0,1582558765.788069,106316.633422,0,6.420837,99.28837
1582559229.261786,108,0,1582559228.999396,41.20567378044944,29.07220425755613,177.7211,0.09100353,141.8427980408434,3,16.00241654736175,-9999,106319.0963995,0.9833221435546875,0.109527587890625,-0.0614166259765625,106319.0903875,-0.8131005442873074,1.500766716549188,-0.1021581661965375,-0.000782407762017101,-0.3034640252590179,-0.170579582452774,-0.008333683013916016,0.006249338388442993,-0.0008542537689208984,2,-0.2350081065603878,-0.6402869694801411,0.3208395256693782,-0.6571649226118746,0.9923480749130249,0.1019805669784546,-0.06960757076740265,49.71689605712891,-33.04864120483398,-33.1104736328125,2,106318.330444375,2,0,1582559228.502519,1582558685.643339,11,0.6387488,0,0,10.91,0,0,1582558765.788069,106316.633422,0,6.420837,99.28837
1582559229.272631,109,0,1582559228.999396,41.20567378044944,29.07220425755613,177.7211,0.09100353,141.8427980408434,3,16.00241654736175,-9999,106319.1064395,0.964569091796875,0.1078643798828125,-0.0838470458984375,106319.1004275,-0.8132901435389969,1.497574489053808,-0.1037703551172869,0.01924722641706467,-0.3338451087474823,-0.1608246862888336,-0.01470053195953369,0.007666260004043579,0.01084774732589722,2,-0.234003494364024,-0.6394223277905907,0.3217679263466058,-0.6579110636186346,0.9919556975364685,0.1035842150449753,-0.07276289910078049,49.71689605712891,-33.04864120483398,-33.1104736328125,2,106318.330444375,2,0,1582559228.502519,1582558685.643339,11,0.6387488,0,0,10.91,0,0,1582558765.788069,106316.633422,0,6.420837,99.28837
1582559229.281435,110,0,1582559228.999396,41.20567378044944,29.07220425755613,177.7211,0.09100353,141.8427980408434,3,16.00241654736175,-9999,106319.1164795,0.9640350341796875,0.112548828125,-0.0902252197265625,106319.1104675,-0.8134386918026355,1.494662303856751,-0.1053963219033985,0.009917234070599079,-0.2877712249755859,-0.1675891727209091,-0.02800220251083374,0.003088146448135376,-0.01377207040786743,2,-0.233023823447309,-0.6386553720172651,0.3226517195811098,-0.6585704493401442,0.9915701746940613,0.1052012965083122,-0.07563842833042145,49.57936859130859,-33.03754425048828,-33.242919921875,2,106318.330444375,2,0,1582559228.502519,1582558685.643339,11,0.6387488,0,0,10.91,0,0,1582558765.788069,106316.633422,0,6.420837,99.28837
1582559229.293546,111,0,1582559228.999396,41.20567378044944,29.07220425755613,177.7211,0.09100353,141.8427980408434,3,16.00241654736175,-9999,106319.1265205,0.9531097412109375,0.104461669921875,-0.1028594970703125,106319.1205085,-0.8135462430461513,1.491891757658044,-0.1069023856737217,0.0002696660230867565,-0.2793425917625427,-0.1526922583580017,-0.02721774578094482,0.004183948040008545,-0.0129438042640686,2,-0.2320929744170073,-0.6379235656472294,0.3234667614216871,-0.6592083494946902,0.9911978244781494,0.1066988855600357,-0.07837275415658951,49.57936859130859,-33.03754425048828,-33.242919921875,2,106318.330444375,2,0,1582559228.502519,1582558685.643339,11,0.6387488,0,0,10.91,0,0,1582558765.788069,106316.633422,0,6.420837,99.28837
1582559229.301545,112,0,1582559228.999396,41.20567378044944,29.07220425755613,177.7211,0.09100353,141.8427980408434,3,16.00241654736175,-9999,106319.1365905,0.9416351318359375,0.1052093505859375,-0.1102142333984375,106319.1305485,-0.8135218072233842,1.489501528834999,-0.1082730543084212,-0.01400719303637743,-0.238984227180481,-0.1377277225255966,-0.04293286800384521,-0.00421375036239624,-0.02578353881835938,2,-0.2312264779124229,-0.6373142387244993,0.3241511187135107,-0.6597657410876331,0.9908608198165894,0.1080616265535355,-0.08072975277900696,49.45708465576172,-32.80634689331055,-33.53717041015625,2,106318.330444375,2,0,1582559228.502519,1582558685.643339,11,0.6387488,0,0,10.91,0,0,1582558765.788069,106316.633422,0,6.420837,99.28837
1582559229.311615,113,0,1582559228.999396,41.20567378044944,29.07220425755613,177.7211,0.09100353,141.8427980408434,3,16.00241654736175,-9999,106319.1466315,0.9567413330078125,0.1066741943359375,-0.1029815673828125,106319.1405885,-0.8133799810205243,1.487386384525732,-0.1095087548604547,-0.02322492748498917,-0.2138224095106125,-0.1232736855745316,-0.0471576452255249,-0.003611594438552856,-0.02650552988052368,2,-0.2304123332744835,-0.6367912151387332,0.3247224575865256,-0.6602745627062996,0.9905542135238647,0.1092900112271309,-0.08281420916318893,49.45708465576172,-32.80634689331055,-33.53717041015625,2,106318.330444375,2,0,1582559228.502519,1582558685.643339,11,0.6387488,0,0,10.91,0,0,1582558765.788069,106316.633422,0,6.420837,99.28837
1582559229.321719,114,0,1582559228.999396,41.20567378044944,29.07220425755613,177.7211,0.09100353,141.8427980408434,3,16.00241654736175,-9999,106319.1566715,0.974212646484375,0.1136474609375,-0.089080810546875,106319.1506285,-0.8131445295723569,1.485321498590888,-0.1106374677355609,-0.03344094753265381,-0.2082743346691132,-0.1087466850876808,-0.03093069791793823,-0.00281137228012085,-0.01671850681304932,2,-0.2296125021704787,-0.636281138553641,0.3252233212350751,-0.6607981576320229,0.9902575016021729,0.1104118898510933,-0.08484882116317749,49.16486358642578,-32.60202789306641,-33.78900146484375,2,106318.330444375,2,0,1582559228.502519,1582558685.643339,11,0.6387488,0,0,10.91,0,0,1582558765.788069,106316.633422,0,6.420837,99.28837
1582559229.334825,115,0,1582559228.999396,41.20567378044944,29.07220425755613,177.7211,0.09100353,141.8427980408434,3,16.00241654736175,-9999,106319.1667115,0.9861907958984375,0.11639404296875,-0.0855560302734375,106319.1606695,-0.8129131485437723,1.483010700865486,-0.1117828302065859,-0.03285505250096321,-0.2347320467233658,-0.1116452738642693,-0.01223337650299072,0.003282546997070312,-0.0001732110977172852,2,-0.2287672291314576,-0.635690714737161,0.3257573099505026,-0.6613963353619425,0.9899322390556335,0.1115501821041107,-0.0871257409453392,49.16486358642578,-32.60202789306641,-33.78900146484375,2,106318.330444375,2,0,1582559228.502519,1582558685.643339,11,0.6387488,0,0,10.91,0,0,1582558765.788069,106316.633422,0,6.420837,99.28837
1582559229.343538,116,0,1582559228.999396,41.20567378044944,29.07220425755613,177.7211,0.09100353,141.8427980408434,3,16.00241654736175,-9999,106319.1767515,0.96990966796875,0.1162567138671875,-0.0952911376953125,106319.1707095,-0.8127058553915738,1.480545417287704,-0.1129191418865581,-0.02985293418169022,-0.2527519166469574,-0.1121539548039436,-0.004762709140777588,0.003587126731872559,0.002531230449676514,2,-0.2279065135900678,-0.6350444036153275,0.3263125611666214,-0.6620403229796363,0.9895875453948975,0.1126793250441551,-0.08955445140600204,49.10161590576172,-32.58787536621094,-33.86883544921875,2,106318.330444375,2,0,1582559228.502519,1582558685.643339,11,0.6387488,0,0,10.91,0,0,1582558765.788069,106316.633422,0,6.420837,99.28837
1582559229.351715,117,0,1582559228.999396,41.20567378044944,29.07220425755613,177.7211,0.09100353,141.8427980408434,3,16.00241654736175,-9999,106319.1867925,0.9454345703125,0.1187744140625,-0.108001708984375,106319.1807495,-0.8125079044769359,1.478255432565334,-0.1139491542636273,-0.02890644781291485,-0.2317598164081573,-0.1004352495074272,-0.02612137794494629,0.003158420324325562,-0.00659555196762085,2,-0.2271131053125997,-0.6344405765164116,0.3268173535536708,-0.6626426498768526,0.9892637729644775,0.1137027218937874,-0.09180958569049835,49.10161590576172,-32.58787536621094,-33.86883544921875,2,106318.330444375,2,0,1582559228.502519,1582558685.643339,11,0.6387488,0,0,10.91,0,0,1582558765.788069,106316.633422,0,6.420837,99.28837
1582559229.361813,118,0,1582559228.999396,41.20567378044944,29.07220425755613,177.7211,0.09100353,141.8427980408434,3,16.00241654736175,-9999,106319.1968325,0.9355010986328125,0.120452880859375,-0.1151123046875,106319.1907905,-0.8123304109462198,1.476167125692275,-0.1147956765546011,-0.02615380473434925,-0.2107748985290527,-0.08502433449029922,-0.04437065124511719,0.003919214010238647,-0.01685214042663574,2,-0.2264219373420153,-0.6338769943612894,0.3272495803750053,-0.6632048382742911,0.9889735579490662,0.1145437136292458,-0.09386612474918365,49.02928924560547,-32.4716796875,-34.07489013671875,2,106318.330444375,2,0,1582559228.502519,1582558685.643339,11,0.6387488,0,0,10.91,0,0,1582558765.788069,106316.633422,0,6.420837,99.28837
1582559229.371858,119,0,1582559228.999396,41.20567378044944,29.07220425755613,177.7211,0.09100353,141.8427980408434,3,16.00241654736175,-9999,106319.2068725,0.8839263916015625,0.1177825927734375,-0.1328277587890625,106319.2008305,-0.8121233167915405,1.474566741156507,-0.1152501952815448,-0.02364989928901196,-0.1659983694553375,-0.04354427009820938,-0.06263017654418945,0.005969971418380737,-0.0214993953704834,2,-0.2259366678530678,-0.6334277866597336,0.3274982358133545,-0.6636765529358275,0.988770067691803,0.1149952262639999,-0.0954437255859375,49.02928924560547,-32.4716796875,-34.07489013671875,2,106318.330444375,2,0,1582559228.502519,1582558685.643339,11,0.6387488,0,0,10.91,0,0,1582558765.788069,106316.633422,0,6.420837,99.28837
1582559229.393194,120,0,1582559228.999396,41.20567378044944,29.07220425755613,177.7211,0.09100353,141.8427980408434,3,16.00241654736175,-9999,106319.2169135,0.88629150390625,0.116455078125,-0.13818359375,106319.2108705,-0.8117932130801864,1.47386040471779,-0.1152357597322625,-0.03409623354673386,-0.06997658312320709,0.005377754103392363,-0.1115753650665283,0.001162499189376831,-0.04147589206695557,2,-0.2257214195238201,-0.633228786344933,0.3274640990639822,-0.6639567059808897,0.9887043237686157,0.1149808913469315,-0.09614229202270508,48.98204803466797,-32.29511642456055,-34.45111083984375,2,106318.330444375,2,0,1582559228.502519,1582558685.643339,11,0.6387488,0,0,10.91,0,0,1582558765.788069,106316.633422,0,6.420837,99.28837
1582559229.396045,121,0,1582559228.999396,41.20567378044944,29.07220425755613,177.7211,0.09100353,141.8427980408434,3,16.00241654736175,-9999,106319.2269535,0.9443359375,0.123504638671875,-0.1107025146484375,106319.2209105,-0.8114806129701269,1.473636730229712,-0.1149342169149983,-0.02740131132304668,-0.02310707978904247,0.03398542851209641,-0.09309470653533936,0.003232181072235107,-0.0376046895980835,2,-0.2256906000133564,-0.6331511380784551,0.3272951549800479,-0.6641243812031311,0.9887170791625977,0.1146813407540321,-0.09636677801609039,48.98204803466797,-32.29511642456055,-34.45111083984375,2,106319.2205445,1,2,1582559229.392619,1582558685.643339,11,0.6387488,0,0,10.91,0,0,1582558765.788069,106316.633422,0,6.420837,99.28837
1582559229.401965,122,0,1582559228.999396,41.20567378044944,29.07220425755613,177.7211,0.09100353,141.8427980408434,3,16.00241654736175,-9999,106319.2369935,0.9762115478515625,0.1242523193359375,-0.0984649658203125,106319.2309515,-0.8112314522221301,1.473442618256724,-0.1145465722731772,-0.02173214219510555,-0.02129779383540154,0.04157956317067146,-0.03475534915924072,0.00969049334526062,-0.01052218675613403,2,-0.2257145677364112,-0.6330651004866371,0.3271181000439389,-0.6642855728886438,0.9887426495552063,0.1142962425947189,-0.09656302630901337,48.94474029541016,-32.38585662841797,-34.49298095703125,2,106319.2205445,1,2,1582559229.392619,1582558685.643339,11,0.6387488,0,0,10.91,0,0,1582558765.788069,106316.633422,0,6.420837,99.28837
1582559229.411957,123,0,1582559228.999396,41.20567378044944,29.07220425755613,177.7211,0.09100353,141.8427980408434,3,16.00241654736175,-9999,106319.2470335,0.9629669189453125,0.1274871826171875,-0.0968170166015625,106319.2410225,-0.8110728756989576,1.473126978682086,-0.1141330309713687,-0.01304996944963932,-0.03508151695132256,0.04133961349725723,-0.01244825124740601,0.01072713732719421,-0.0008671283721923828,2,-0.2257564200632841,-0.6329251050301525,0.3269770689798179,-0.6644741011183255,0.9887590408325195,0.1138854026794434,-0.09687969833612442,48.94474029541016,-32.38585662841797,-34.49298095703125,2,106319.2205445,1,2,1582559229.392619,1582558685.643339,11,0.6387488,0,0,10.91,0,0,1582558765.788069,106316.633422,0,6.420837,99.28837
1582559229.421974,124,0,1582559228.999396,41.20567378044944,29.07220425755613,177.7211,0.09100353,141.8427980408434,3,16.00241654736175,-9999,106319.2570745,0.9385833740234375,0.117919921875,-0.1187744140625,106319.2510625,-0.811046298807695,1.472989970369755,-0.1136223477066708,0.003932223655283451,-0.01681272685527802,0.05227664485573769,-0.03231388330459595,0.01369136571884155,-0.002389192581176758,2,-0.2259030074472943,-0.6328170471687405,0.3268306036753342,-0.6645992258890612,0.9888034462928772,0.1133780255913734,-0.09702083468437195,48.75907135009766,-32.34397506713867,-34.4735107421875,2,106319.2205445,1,2,1582559229.392619,1582558685.643339,11,0.6387488,0,0,10.91,0,0,1582558765.788069,106316.633422,0,6.420837,99.28837
1582559229.432028,125,0,1582559228.999396,41.20567378044944,29.07220425755613,177.7211,0.09100353,141.8427980408434,3,16.00241654736175,-9999,106319.2671145,0.9404449462890625,0.1072540283203125,-0.1321258544921875,106319.2611025,-0.811049655510286,1.473476895886975,-0.113079143794431,0.00673599960282445,0.0495162308216095,0.05395550280809402,-0.05274713039398193,0.001963198184967041,-0.02785909175872803,2,-0.2261722853523251,-0.6329087157747451,0.3266137921735408,-0.664526870982755,0.9889116883277893,0.1128383129835129,-0.09654530882835388,48.75907135009766,-32.34397506713867,-34.4735107421875,2,106319.2205445,1,2,1582559229.392619,1582558685.643339,11,0.6387488,0,0,10.91,0,0,1582558765.788069,106316.633422,0,6.420837,99.28837
1582559229.442358,126,0,1582559228.999396,41.20567378044944,29.07220425755613,177.7211,0.09100353,141.8427980408434,3,16.00241654736175,-9999,106319.2771545,0.9517822265625,0.1129302978515625,-0.115570068359375,106319.2711425,-0.8110293537851446,1.474447001417857,-0.1124954296145853,0.004001279827207327,0.1002717316150665,0.05735255777835846,-0.04625260829925537,-0.00513160228729248,-0.03508347272872925,2,-0.2265268048038441,-0.6331583375068547,0.3263221119807692,-0.6643117315543194,0.9890704154968262,0.1122583076357841,-0.09559225291013718,48.85828399658203,-32.37647247314453,-34.40106201171875,2,106319.2205445,1,2,1582559229.392619,1582558685.643339,11,0.6387488,0,0,10.91,0,0,1582558765.788069,106316.633422,0,6.420837,99.28837
1582559229.455355,127,0,1582559228.999396,41.20567378044944,29.07220425755613,177.7211,0.09100353,141.8427980408434,3,16.00241654736175,-9999,106319.2871955,0.9618377685546875,0.1131744384765625,-0.1118316650390625,106319.2811835,-0.8109953850188083,1.475621410669883,-0.1118370846976077,0.002566368551924825,0.1178770959377289,0.06795407086610794,-0.03717541694641113,0.002755552530288696,-0.01904195547103882,2,-0.2269360117242505,-0.6334676339853595,0.325979998929716,-0.6640450294857608,0.9892552495002747,0.1116040945053101,-0.0944376066327095,48.85828399658203,-32.37647247314453,-34.40106201171875,2,106319.2205445,1,2,1582559229.392619,1582558685.643339,11,0.6387488,0,0,10.91,0,0,1582558765.788069,106316.633422,0,6.420837,99.28837
1582559229.462206,128,0,1582559228.999396,41.20567378044944,29.07220425755613,177.7211,0.09100353,141.8427980408434,3,16.00241654736175,-9999,106319.2972355,0.983917236328125,0.109405517578125,-0.10333251953125,106319.2912235,-0.8109317460280869,1.476865139370742,-0.1112343680905576,-0.001040108036249876,0.1289815455675125,0.06087052822113037,-0.02347332239151001,0.0006540119647979736,-0.01901525259017944,2,-0.2273274183304466,-0.6338103103051214,0.3256364794490369,-0.6637527356030479,0.9894388318061829,0.1110051274299622,-0.09321346879005432,48.85501861572266,-32.44602203369141,-34.41717529296875,2,106319.2205445,1,2,1582559229.392619,1582558685.643339,11,0.6387488,0,0,10.91,0,0,1582558765.788069,106316.633422,0,6.420837,99.28837
1582559229.472185,129,0,1582559228.999396,41.20567378044944,29.07220425755613,177.7211,0.09100353,141.8427980408434,3,16.00241654736175,-9999,106319.3072755,0.9792022705078125,0.1176910400390625,-0.0915069580078125,106319.3012635,-0.8108321835923441,1.477829764469065,-0.1106422816995271,-0.004406610038131475,0.09674157202243805,0.05911124497652054,-0.003532052040100098,-3.898143768310547e-05,-0.008107841014862061,2,-0.2276580439627256,-0.634065674866215,0.3253156190060161,-0.6635527824939562,0.989593505859375,0.1104166805744171,-0.09226506948471069,48.85501861572266,-32.44602203369141,-34.41717529296875,2,106319.2205445,1,2,1582559229.392619,1582558685.643339,11,0.6387488,0,0,10.91,0,0,1582558765.788069,106316.633422,0,6.420837,99.28837
1582559229.482246,130,0,1582559228.999396,41.20567378044944,29.07220425755613,177.7211,0.09100353,141.8427980408434,3,16.00241654736175,-9999,106319.3173155,0.9522857666015625,0.1189422607421875,-0.1002960205078125,106319.3113035,-0.8107312440735919,1.478612822093849,-0.1099020764942772,-0.003425106406211853,0.07471279799938202,0.07498659193515778,-0.0163496732711792,0.009501457214355469,-0.0006966590881347656,2,-0.2280097556383821,-0.6342418612544738,0.3249701166102326,-0.6634328731450901,0.9897465109825134,0.1096809655427933,-0.09149762243032455,48.97188568115234,-32.44894409179688,-34.22003173828125,2,106319.2205445,1,2,1582559229.392619,1582558685.643339,11,0.6387488,0,0,10.91,0,0,1582558765.788069,106316.633422,0,6.420837,99.28837
1582559229.493296,131,0,1582559228.999396,41.20567378044944,29.07220425755613,177.7211,0.09100353,141.8427980408434,3,16.00241654736175,-9999,106319.3273565,0.931304931640625,0.1107025146484375,-0.1159820556640625,106319.3213445,-0.8106151013079639,1.479642438001665,-0.1089559976803111,-0.002514571882784367,0.1008559837937355,0.09583408385515213,-0.04285252094268799,0.008779019117355347,-0.01341032981872559,2,-0.2284676311973832,-0.634475041077741,0.324529091508615,-0.6632682866616746,0.9899431467056274,0.108740545809269,-0.09048792719841003,48.97188568115234,-32.44894409179688,-34.22003173828125,2,106319.2205445,1,2,1582559229.392619,1582558685.643339,11,0.6387488,0,0,10.91,0,0,1582558765.788069,106316.633422,0,6.420837,99.28837
1582559229.512922,132,0,1582559228.999396,41.20567378044944,29.07220425755613,177.7211,0.09100353,141.8427980408434,3,16.00241654736175,-9999,106319.3373965,0.9266204833984375,0.1097259521484375,-0.1173095703125,106319.3313845,-0.81044022737824,1.481117115504062,-0.1077842138736599,-0.007426704745739698,0.1450291275978088,0.119324691593647,-0.06218475103378296,0.002147257328033447,-0.02900439500808716,2,-0.2290565930382349,-0.6348333694207634,0.3239490688036364,-0.663005842120086,0.9902018308639526,0.1075756400823593,-0.08903934061527252,49.01703643798828,-32.48406219482422,-34.0833740234375,2,106319.2205445,1,2,1582559229.392619,1582558685.643339,11,0.6387488,0,0,10.91,0,0,1582558765.788069,106316.633422,0,6.420837,99.28837
1582559229.515415,133,0,1582559228.999396,41.20567378044944,29.07220425755613,177.7211,0.09100353,141.8427980408434,3,16.00241654736175,-9999,106319.3474365,0.94964599609375,0.1080780029296875,-0.1090087890625,106319.3414245,-0.8102398258908076,1.483011687327525,-0.106427447850878,-0.007776910904794931,0.1921742707490921,0.137791320681572,-0.06155019998550415,0.003496825695037842,-0.0293428897857666,2,-0.229768495637757,-0.6353097647311564,0.3232556319339924,-0.6626414780201184,0.9905131459236145,0.1062266454100609,-0.0871758833527565,49.01703643798828,-32.48406219482422,-34.0833740234375,2,106319.2205445,1,2,1582559229.392619,1582558685.643339,11,0.6387488,0,0,10.91,0,0,1582558765.788069,106316.633422,0,6.420837,99.28837
1582559229.522403,134,0,1582559228.999396,41.20567378044944,29.07220425755613,177.7211,0.09100353,141.8427980408434,3,16.00241654736175,-9999,106319.3574775,0.9686431884765625,0.1063690185546875,-0.0979766845703125,106319.3514655,-0.8100215151567365,1.485056828074536,-0.1050103406412405,-0.01039765868335962,0.205268919467926,0.1420948356389999,-0.03630179166793823,0.002617865800857544,-0.02197277545928955,2,-0.2305186261232814,-0.6358299942553909,0.3225193981218664,-0.662240545874125,0.9908382892608643,0.1048174500465393,-0.08516276627779007,49.05449676513672,-32.74703216552734,-33.93536376953125,2,106319.2205445,1,2,1582559229.392619,1582558685.643339,11,0.6387488,0,0,10.91,0,0,1582558765.788069,106316.633422,0,6.420837,99.28837
1582559229.53248,135,0,1582559228.999396,41.20567378044944,29.07220425755613,177.7211,0.09100353,141.8427980408434,3,16.00241654736175,-9999,106319.3675175,0.96044921875,0.1118621826171875,-0.092437744140625,106319.3615055,-0.8098295773487987,1.487116340911468,-0.1035415441868146,-0.008606682531535625,0.2048614472150803,0.1469593644142151,-0.02222335338592529,0.003255337476730347,-0.01361054182052612,2,-0.2312958836082879,-0.6363449143286521,0.3217731521621954,-0.6618379425935911,0.9911640286445618,0.1033566370606422,-0.083134725689888,49.05449676513672,-32.74703216552734,-33.93536376953125,2,106319.2205445,1,2,1582559229.392619,1582558685.643339,11,0.6387488,0,0,10.91,0,0,1582558765.788069,106316.633422,0,6.420837,99.28837
1582559229.543232,136,0,1582559228.999396,41.20567378044944,29.07220425755613,177.7211,0.09100353,141.8427980408434,3,16.00241654736175,-9999,106319.3775575,0.9628448486328125,0.1130218505859375,-0.0957794189453125,106319.3715455,-0.8097114421871301,1.489306777763282,-0.1020139606666641,-0.0001400157925672829,0.2218696177005768,0.1514253318309784,-0.03263002634048462,0.01136744022369385,-0.01238226890563965,2,-0.2321365420314174,-0.6368865848172977,0.3210167900074711,-0.6613897565337652,0.9914999604225159,0.1018371134996414,-0.0809762105345726,49.14019012451172,-32.94026184082031,-33.8070068359375,2,106319.2205445,1,2,1582559229.392619,1582558685.643339,11,0.6387488,0,0,10.91,0,0,1582558765.788069,106316.633422,0,6.420837,99.28837
1582559229.552494,137,0,1582559228.999396,41.20567378044944,29.07220425755613,177.7211,0.09100353,141.8427980408434,3,16.00241654736175,-9999,106319.3875975,0.95111083984375,0.107269287109375,-0.0957489013671875,106319.3815855,-0.8096534993802571,1.491648280848427,-0.1003776950128638,0.008584766648709774,0.2316207736730576,0.1642463207244873,-0.03052514791488647,0.01156175136566162,-0.01705718040466309,2,-0.2330564919219999,-0.6374566241936848,0.3202279863656045,-0.6608991711694444,0.9918515086174011,0.1002092212438583,-0.07866744697093964,49.14019012451172,-32.94026184082031,-33.8070068359375,2,106319.2205445,1,2,1582559229.392619,1582558685.643339,11,0.6387488,0,0,10.91,0,0,1582558765.788069,106316.633422,0,6.420837,99.28837
1582559229.572425,138,0,1582559228.999396,41.20567378044944,29.07220425755613,177.7211,0.09100353,141.8427980408434,3,16.00241654736175,-9999,106319.3976685,0.9509124755859375,0.1048431396484375,-0.0970458984375,106319.3916265,-0.8096197691287481,1.494324686717041,-0.09865049431933459,0.01003345381468534,0.2677846252918243,0.1740310788154602,-0.04326307773590088,0.007986336946487427,-0.02101248502731323,2,-0.2340671621029457,-0.6381220271638561,0.3193783335017779,-0.6603107716201062,0.9922296404838562,0.09849056601524353,-0.07602568715810776,49.12601470947266,-33.30098342895508,-33.6617431640625,2,106319.2205445,1,2,1582559229.392619,1582558685.643339,11,0.6387488,0,0,10.91,0,0,1582558765.788069,106316.633422,0,6.420837,99.28837
1582559229.573332,139,0,1582559228.999396,41.20567378044944,29.07220425755613,177.7211,0.09100353,141.8427980408434,3,16.00241654736175,-9999,106319.4077095,0.9846954345703125,0.0965423583984375,-0.0835418701171875,106319.4016665,-0.8096111470773145,1.49721544606253,-0.0969600664505756,0.009122385643422604,0.2923690378665924,0.1747807562351227,-0.03930997848510742,0.006526172161102295,-0.02309197187423706,2,-0.2351053547583609,-0.6388590346316222,0.3185206204537637,-0.6596432885025976,0.992609977722168,0.09680821001529694,-0.07316920906305313,49.12601470947266,-33.30098342895508,-33.6617431640625,2,106319.2205445,1,2,1582559229.392619,1582558685.643339,11,0.6387488,0,0,10.91,0,0,1582558765.788069,106316.633422,0,6.420837,99.28837
1582559229.582743,140,0,1582559228.999396,41.20567378044944,29.07220425755613,177.7211,0.09100353,141.8427980408434,3,16.00241654736175,-9999,106319.4177495,1.011993408203125,0.09136962890625,-0.070037841796875,106319.4117065,-0.8095785343176944,1.499872050482729,-0.09550385441744622,0.00423865532502532,0.2695253193378448,0.1457223743200302,0.001878619194030762,-0.0005075931549072266,-0.009958267211914062,2,-0.2360163673931379,-0.6395508773985684,0.3177517604618847,-0.6590180561969023,0.992940366268158,0.09535873681306839,-0.07054189592599869,49.19469451904297,-33.47907257080078,-33.48260498046875,2,106319.2205445,1,2,1582559229.392619,1582558685.643339,11,0.6387488,0,0,10.91,0,0,1582558765.788069,106316.633422,0,6.420837,99.28837
1582559229.593678,141,0,1582559228.999396,41.20567378044944,29.07220425755613,177.7211,0.09100353,141.8427980408434,3,16.00241654736175,-9999,106319.4277895,0.996673583984375,0.0888519287109375,-0.0780792236328125,106319.4217475,-0.809464481630685,1.502230760848975,-0.09423588110305334,-0.006992427632212639,0.2349409908056259,0.1277170032262802,0.01653355360031128,-0.002967894077301025,-0.002176523208618164,2,-0.2367879939670436,-0.6401777166958924,0.3170470421938224,-0.6584718048328485,0.9932238459587097,0.09409646689891815,-0.06820787489414215,49.19469451904297,-33.47907257080078,-33.48260498046875,2,106319.2205445,1,2,1582559229.392619,1582558685.643339,11,0.6387488,0,0,10.91,0,0,1582558765.788069,106316.633422,0,6.420837,99.28837
1582559229.60276,142,0,1582559228.999396,41.20567378044944,29.07220425755613,177.7211,0.09100353,141.8427980408434,3,16.00241654736175,-9999,106319.4378295,1.005386352539062,0.0832366943359375,-0.07391357421875,106319.4317875,-0.8093479387005903,1.504554328906698,-0.0932380197281774,-0.005970117170363665,0.2354103028774261,0.1026017144322395,0.001117289066314697,-0.004964649677276611,-0.01400077342987061,2,-0.2374596011202519,-0.640827520583785,0.316427083679324,-0.6578958662920809,0.9934728741645813,0.09310298413038254,-0.06590605527162552,49.25412750244141,-33.49872589111328,-33.0291748046875,2,106319.2205445,1,2,1582559229.392619,1582558685.643339,11,0.6387488,0,0,10.91,0,0,1582558765.788069,106316.633422,0,6.420837,99.28837
1582559229.612851,143,0,1582559228.999396,41.20567378044944,29.07220425755613,177.7211,0.09100353,141.8427980408434,3,16.00241654736175,-9999,106319.4478705,1.009414672851562,0.0864105224609375,-0.06146240234375,106319.4418275,-0.8092223148259431,1.506576891930085,-0.09255997927445203,-0.008042588829994202,0.2030323892831802,0.06835772097110748,0.0142897367477417,-0.00987398624420166,-0.007111668586730957,2,-0.2379705584117832,-0.6414200827347812,0.315937068984548,-0.6573689066480677,0.9936666488647461,0.09242787212133408,-0.06390058249235153,49.25412750244141,-33.49872589111328,-33.0291748046875,2,106319.2205445,1,2,1582559229.392619,1582558685.643339,11,0.6387488,0,0,10.91,0,0,1582558765.788069,106316.633422,0,6.420837,99.28837
1582559229.638523,144,0,1582559228.999396,41.20567378044944,29.07220425755613,177.7211,0.09100353,141.8427980408434,3,16.00241654736175,-9999,106319.4579105,1.002105712890625,0.092376708984375,-0.0598907470703125,106319.4518675,-0.8091127410905286,1.508174678482092,-0.09208296082123045,-0.009131677448749542,0.1603453755378723,0.04988474771380424,0.01354998350143433,-0.003722488880157471,0.001221179962158203,2,-0.2383502844292138,-0.6418966774324392,0.3155640786891473,-0.6569452702012041,0.9938115477561951,0.09195288270711899,-0.06231559440493584,49.26999664306641,-33.63861083984375,-32.82952880859375,2,106319.2205445,1,2,1582559229.392619,1582558685.643339,11,0.6387488,0,0,10.91,0,0,1582558765.788069,106316.633422,0,6.420837,99.28837
1582559229.639645,145,0,1582559228.999396,41.20567378044944,29.07220425755613,177.7211,0.09100353,141.8427980408434,3,16.00241654736175,-9999,106319.4679505,1.00482177734375,0.088653564453125,-0.06024169921875,106319.4619085,-0.8090244403291168,1.509403177302681,-0.09179841983723092,-0.007731121499091387,0.1236776411533356,0.02925483882427216,0.007466793060302734,0.0002536475658416748,0.0007492303848266602,2,-0.2386126381767928,-0.6422739910538,0.3153009957677285,-0.6566075381157765,0.993913471698761,0.09166954457759857,-0.06109625846147537,49.26999664306641,-33.63861083984375,-32.82952880859375,2,106319.2205445,1,2,1582559229.392619,1582558685.643339,11,0.6387488,0,0,10.91,0,0,1582558765.788069,106316.633422,0,6.420837,99.28837
1582559229.643652,146,0,1582559228.999396,41.20567378044944,29.07220425755613,177.7211,0.09100353,141.8427980408434,3,16.00241654736175,-9999,106319.4779915,0.9978485107421875,0.0892486572265625,-0.0625152587890625,106319.4719485,-0.8089095238383089,1.510316042042723,-0.09165921369743638,-0.01152790989726782,0.08999216556549072,0.01614831760525703,0.01041996479034424,-0.003468126058578491,-0.0008291006088256836,2,-0.2387670344359283,-0.6425694191298184,0.3151114435693597,-0.6563532359323571,0.9939814805984497,0.0915309265255928,-0.06018969044089317,49.33339691162109,-33.32050323486328,-32.69146728515625,2,106319.2205445,1,2,1582559229.392619,1582558685.643339,11,0.6387488,0,0,10.91,0,0,1582558765.788069,106316.633422,0,6.420837,99.28837
1582559229.652966,147,0,1582559228.999396,41.20567378044944,29.07220425755613,177.7211,0.09100353,141.8427980408434,3,16.00241654736175,-9999,106319.4880315,0.9917144775390625,0.091522216796875,-0.05914306640625,106319.4819885,-0.8087911069513225,1.510972493574953,-0.09160496402264029,-0.01173297315835953,0.06954309344291687,0.007569211069494486,0.0009152889251708984,-0.0017966628074646,-0.003892600536346436,2,-0.238850859012474,-0.6427919808607825,0.3149774833138241,-0.6561690862043121,0.9940257668495178,0.09147690236568451,-0.05953747406601906,49.33339691162109,-33.32050323486328,-32.69146728515625,2,106319.2205445,1,2,1582559229.392619,1582558685.643339,11,0.6387488,0,0,10.91,0,0,1582558765.788069,106316.633422,0,6.420837,99.28837
1582559229.663088,148,0,1582559228.999396,41.20567378044944,29.07220425755613,177.7211,0.09100353,141.8427980408434,3,16.00241654736175,-9999,106319.4980715,0.991851806640625,0.0898284912109375,-0.0630950927734375,106319.4920595,-0.8086454364333863,1.511324628725299,-0.09161084530400285,-0.01353806350380182,0.03290837630629539,0.001263644080609083,-0.002568960189819336,0.0002726614475250244,0.0006092190742492676,2,-0.2388575033996173,-0.6429256507626414,0.31488945234759,-0.6560778916281792,0.9940460324287415,0.09148275852203369,-0.059187401086092,49.36200714111328,-33.60120010375977,-32.8533935546875,2,106319.2205445,1,2,1582559229.392619,1582558685.643339,11,0.6387488,0,0,10.91,0,0,1582558765.788069,106316.633422,0,6.420837,99.28837
1582559229.673043,149,0,1582559228.999396,41.20567378044944,29.07220425755613,177.7211,0.09100353,141.8427980408434,3,16.00241654736175,-9999,106319.5081115,0.9874725341796875,0.0895233154296875,-0.069061279296875,106319.5020995,-0.8084761425765494,1.511609323374425,-0.09173654365261159,-0.01821963489055634,0.02530824765563011,-0.01110327616333961,-0.00338292121887207,-0.002431333065032959,-0.00684589147567749,2,-0.2388050716935733,-0.6430554204846193,0.3148386882474961,-0.6559942795231122,0.9940515160560608,0.09160792827606201,-0.05890372768044472,49.36200714111328,-33.60120010375977,-32.8533935546875,2,106319.2205445,1,2,1582559229.392619,1582558685.643339,11,0.6387488,0,0,10.91,0,0,1582558765.788069,106316.633422,0,6.420837,99.28837
1582559229.695222,150,0,1582559228.999396,41.20567378044944,29.07220425755613,177.7211,0.09100353,141.8427980408434,3,16.00241654736175,-9999,106319.5181525,0.98699951171875,0.090606689453125,-0.06585693359375,106319.5121405,-0.8083435932896853,1.511895744325489,-0.09200246793700434,-0.01573005504906178,0.03078304417431355,-0.02479210682213306,-0.007586956024169922,-0.001857012510299683,-0.01087087392807007,2,-0.2387170603954619,-0.6431993336004634,0.3148430386904248,-0.655883022669723,0.9940438270568848,0.09187272936105728,-0.05861756578087807,49.57823944091797,-33.48217010498047,-32.61224365234375,2,106319.2205445,1,2,1582559229.392619,1582558685.643339,11,0.6387488,0,0,10.91,0,0,1582558765.788069,106316.633422,0,6.420837,99.28837
1582559229.698466,151,0,1582559228.999396,41.20567378044944,29.07220425755613,177.7211,0.09100353,141.8427980408434,3,16.00241654736175,-9999,106319.5281925,0.9864349365234375,0.0915985107421875,-0.0613250732421875,106319.5221805,-0.8082435476094122,1.512040449836607,-0.09240982231885371,-0.0120895141735673,0.01343840919435024,-0.04138786345720291,-0.007085084915161133,-0.002033889293670654,-0.006530821323394775,2,-0.238568978800822,-0.6433110277415169,0.3149186122143185,-0.655791207020036,0.9940150380134583,0.09227835386991501,-0.05847152695059776,49.57823944091797,-33.48217010498047,-32.61224365234375,2,106319.2205445,1,2,1582559229.392619,1582558685.643339,11,0.6387488,0,0,10.91,0,0,1582558765.788069,106316.633422,0,6.420837,99.28837
1582559229.703232,152,0,1582559228.999396,41.20567378044944,29.07220425755613,177.7211,0.09100353,141.8427980408434,3,16.00241654736175,-9999,106319.5382325,0.9783172607421875,0.0958251953125,-0.0656585693359375,106319.5322205,-0.8082013922718856,1.512113940726057,-0.09289561289730285,-0.005883833859115839,0.008379757404327393,-0.04867903143167496,-0.009470701217651367,-0.0003053247928619385,-0.003676950931549072,2,-0.2384016391483889,-0.6434024691398641,0.3150458601303156,-0.6557012522369861,0.993974506855011,0.0927620604634285,-0.05839584395289421,49.52260589599609,-33.45429229736328,-32.59613037109375,2,106319.2205445,1,2,1582559229.392619,1582558685.643339,11,0.6387488,0,0,10.91,0,0,1582558765.788069,106316.633422,0,6.420837,99.28837
1582559229.713266,153,0,1582559228.999396,41.20567378044944,29.07220425755613,177.7211,0.09100353,141.8427980408434,3,16.00241654736175,-9999,106319.5482725,0.9716339111328125,0.0931549072265625,-0.0677490234375,106319.5422615,-0.8082125565621773,1.512183462564069,-0.09345885787670277,-0.002082171617075801,0.006823137402534485,-0.05813805013895035,-0.01737236976623535,0.002109020948410034,-0.008418500423431396,2,-0.2382244829214069,-0.6434961252572251,0.3152149412542827,-0.6555924041999134,0.9939261674880981,0.09332286566495895,-0.05832366645336151,49.52260589599609,-33.45429229736328,-32.59613037109375,2,106319.2205445,1,2,1582559229.392619,1582558685.643339,11,0.6387488,0,0,10.91,0,0,1582558765.788069,106316.633422,0,6.420837,99.28837
1582559229.723261,154,0,1582559228.999396,41.20567378044944,29.07220425755613,177.7211,0.09100353,141.8427980408434,3,16.00241654736175,-9999,106319.5583135,0.9678955078125,0.0944366455078125,-0.0665740966796875,106319.5523015,-0.8082334916869647,1.512258706918004,-0.09401317911536594,-0.0004900278872810304,0.009375417605042458,-0.0557352714240551,-0.02382528781890869,-0.0008081793785095215,-0.01015961170196533,2,-0.2380543862591537,-0.643589300813091,0.3153837794420047,-0.6554815176858766,0.9938787817955017,0.09387475252151489,-0.05824584141373634,49.66049957275391,-33.52420043945312,-32.602783203125,2,106319.2205445,1,2,1582559229.392619,1582558685.643339,11,0.6387488,0,0,10.91,0,0,1582558765.788069,106316.633422,0,6.420837,99.28837
1582559229.733761,155,0,1582559228.999396,41.20567378044944,29.07220425755613,177.7211,0.09100353,141.8427980408434,3,16.00241654736175,-9999,106319.5683535,0.9582977294921875,0.0979461669921875,-0.067657470703125,106319.5623415,-0.8082695546398916,1.512290853520799,-0.09455341517333406,-0.0007906987448222935,-0.001045798882842064,-0.05315253511071205,-0.02730131149291992,0.000377953052520752,-0.007921159267425537,2,-0.2378871502170939,-0.6436646989007329,0.3155583455391314,-0.6553841739393516,0.9938298463821411,0.09441258758306503,-0.05821091681718826,49.66049957275391,-33.52420043945312,-32.602783203125,2,106319.2205445,1,2,1582559229.392619,1582558685.643339,11,0.6387488,0,0,10.91,0,0,1582558765.788069,106316.633422,0,6.420837,99.28837
1582559229.759609,156,0,1582559228.999396,41.20567378044944,29.07220425755613,177.7211,0.09100353,141.8427980408434,3,16.00241654736175,-9999,106319.5783935,0.956939697265625,0.101715087890625,-0.0736846923828125,106319.5723815,-0.8084765173588262,1.512644697372155,-0.09517501615065271,0.01805626042187214,0.0402669794857502,-0.06332956254482269,-0.03835618495941162,0.003970235586166382,-0.01221317052841187,2,-0.2377980141879364,-0.6438355298250746,0.315775719628568,-0.6551439514854328,0.9937915802001953,0.09503139555454254,-0.05785582959651947,49.63558197021484,-33.55150604248047,-32.71295166015625,2,106319.2205445,1,2,1582559229.392619,1582558685.643339,11,0.6387488,0,0,10.91,0,0,1582558765.788069,106316.633422,0,6.420837,99.28837
1582559229.762772,157,0,1582559228.999396,41.20567378044944,29.07220425755613,177.7211,0.09100353,141.8427980408434,3,16.00241654736175,-9999,106319.5884345,0.9715118408203125,0.09442138671875,-0.0726165771484375,106319.5824225,-0.8088052660690267,1.513226023104722,-0.09592605771450466,0.02752592787146568,0.06006811186671257,-0.07690795511007309,-0.0342288613319397,0.00509914755821228,-0.01616752147674561,2,-0.2377400154252767,-0.6440828291613088,0.3160458285630215,-0.6547916899985445,0.9937536716461182,0.09577900916337967,-0.0572739876806736,49.63558197021484,-33.55150604248047,-32.71295166015625,2,106319.2205445,1,2,1582559229.392619,1582558685.643339,11,0.6387488,0,0,10.91,0,0,1582558765.788069,106316.633422,0,6.420837,99.28837
1582559229.76391,158,0,1582559228.999396,41.20567378044944,29.07220425755613,177.7211,0.09100353,141.8427980408434,3,16.00241654736175,-9999,106319.5984745,0.9733123779296875,0.09088134765625,-0.0780487060546875,106319.5924625,-0.8092008937857309,1.514144713341797,-0.096866248893238,0.03371796756982803,0.09703689813613892,-0.09652543812990189,-0.02187669277191162,-0.004137873649597168,-0.0178794264793396,2,-0.237692783460556,-0.6444565135660252,0.3163560190924554,-0.6542911264422488,0.9937154650688171,0.09671483933925629,-0.05635588616132736,49.78394317626953,-33.61383056640625,-32.72845458984375,2,106319.2205445,1,2,1582559229.392619,1582558685.643339,11,0.6387488,0,0,10.91,0,0,1582558765.788069,106316.633422,0,6.420837,99.28837
1582559229.773466,159,0,1582559228.999396,41.20567378044944,29.07220425755613,177.7211,0.09100353,141.8427980408434,3,16.00241654736175,-9999,106319.6085145,0.9756622314453125,0.0975494384765625,-0.0709686279296875,106319.6025025,-0.8096751660198771,1.515403804471691,-0.09801505471144355,0.04129066690802574,0.1313037872314453,-0.119057908654213,-0.02053838968276978,-0.006014138460159302,-0.02281481027603149,2,-0.2376541568113996,-0.644958342080498,0.3167157856458037,-0.6536363339240561,0.9936740398406982,0.09785819053649902,-0.05509847775101662,49.89861297607422,-33.3326416015625,-32.5491943359375,2,106319.2205445,1,2,1582559229.392619,1582558685.643339,11,0.6387488,0,0,10.91,0,0,1582558765.788069,106316.633422,0,6.420837,99.28837
