loggingTime,loggingSample,identifierForVendor,locationTimestamp_since1970,locationLatitude,locationLongitude,locationAltitude,locationSpeed,locationCourse,locationVerticalAccuracy,locationHorizontalAccuracy,locationFloor,accelerometerTimestamp_sinceReboot,accelerometerAccelerationX,accelerometerAccelerationY,accelerometerAccelerationZ,motionTimestamp_sinceReboot,motionYaw,motionRoll,motionPitch,motionRotationRateX,motionRotationRateY,motionRotationRateZ,motionUserAccelerationX,motionUserAccelerationY,motionUserAccelerationZ,motionAttitudeReferenceFrame,motionQuaternionX,motionQuaternionY,motionQuaternionZ,motionQuaternionW,motionGravityX,motionGravityY,motionGravityZ,motionMagneticFieldX,motionMagneticFieldY,motionMagneticFieldZ,motionMagneticFieldCalibrationAccuracy,activityTimestamp_sinceReboot,activity,activityActivityConfidence,activityActivityStartDate,pedometerStartDate,pedometerNumberofSteps,pedometerAverageActivePace,pedometerCurrentPace,pedometerCurrentCadence,pedometerDistance,pedometerFloorAscended,pedometerFloorDescended,pedometerEndDate,altimeterTimestamp_sinceReboot,altimeterReset,altimeterRelativeAltitude,altimeterPressure
1582558858.163295,1,0,1582558856.102373,41.20642806163414,29.07275857737927,180.2436,0.03453903,320.3471828668639,3,8.001208273680877,-9999,105947.9427090417,0.9666748046875,0.0568389892578125,-0.1383056640625,105947.9366670417,-2.552719060141311,1.439777638577695,-0.05927663741492066,-0.003553221933543682,0.003121012821793556,0.001550397835671902,-0.0147397518157959,-0.001439869403839111,0.009031236171722412,2,0.6241854283813787,0.2125680852326946,-0.7248763839418605,0.1994032771993125,0.9896880984306335,0.05924192816019058,-0.1304147243499756,34.74852752685547,-10.94569396972656,9.131134033203125,2,105946.8017335417,4,2,1582558856.973808,1582558685.643339,11,0.6387488,0,0,10.91,0,0,1582558765.788069,105944.969479,0,3.656967,99.32102
1582558858.183125,2,0,1582558857.102366,41.20642880008847,29.07275954994053,180.2304,0.07688275,320.8804567165018,3,8.001208273680877,-9999,105947.9527500417,0.969085693359375,0.0569305419921875,-0.135406494140625,105947.9467070417,-2.552659792285409,1.439796420363929,-0.05926153929773399,-0.00644594756886363,0.0004051215946674347,0.00173309026286006,-0.02337950468063354,-0.002843886613845825,-0.009282529354095459,2,0.6241877256236454,0.2125830655555596,-0.7248633185313684,0.1994275633590827,0.989691436290741,0.0592268593609333,-0.1303962469100952,34.74852752685547,-10.94569396972656,9.131134033203125,2,105946.8017335417,4,2,1582558856.973808,1582558685.643339,11,0.6387488,0,0,10.91,0,0,1582558765.788069,105944.969479,0,3.656967,99.32102
1582558858.184142,3,0,1582558857.102366,41.20642880008847,29.07275954994053,180.2304,0.07688275,320.8804567165018,3,8.001208273680877,-9999,105947.9627900417,0.9688568115234375,0.0578460693359375,-0.1351470947265625,105947.9567470417,-2.552405713743655,1.439839311160211,-0.05923526611691957,-0.004438344389200211,0.006324391812086105,0.002775027882307768,-0.02070111036300659,-0.002069965004920959,-0.004838764667510986,2,0.6241793758150482,0.2126572576594369,-0.7248223255768975,0.1995234338886599,0.9896985292434692,0.05920062959194183,-0.1303540021181107,34.61998748779297,-10.9333381652832,9.0091552734375,2,105946.8017335417,4,2,1582558856.973808,1582558685.643339,11,0.6387488,0,0,10.91,0,0,1582558765.788069,105944.969479,0,3.656967,99.32102
1582558858.185141,4,0,1582558857.102366,41.20642880008847,29.07275954994053,180.2304,0.07688275,320.8804567165018,3,8.001208273680877,-9999,105947.9728300417,0.967437744140625,0.0566558837890625,-0.1361846923828125,105947.9667880417,-2.552326868048486,1.439861008453619,-0.05918166251559499,-0.007484201807528734,0.001571979373693466,0.006332212593406439,-0.02127170562744141,-0.001406088471412659,-0.005042910575866699,2,0.6241852005659911,0.2126649133794412,-0.7248031537576458,0.1995667936555723,0.9897044897079468,0.05914712324738503,-0.1303329467773438,34.61998748779297,-10.9333381652832,9.0091552734375,2,105946.8017335417,4,2,1582558856.973808,1582558685.643339,11,0.6387488,0,0,10.91,0,0,1582558765.788069,105944.969479,0,3.656967,99.32102
1582558858.186293,5,0,1582558857.102366,41.20642880008847,29.07275954994053,180.2304,0.07688275,320.8804567165018,3,8.001208273680877,-9999,105947.9828700417,0.9690704345703125,0.0563201904296875,-0.1365966796875,105947.9768280417,-2.552062469856961,1.439915382323153,-0.0591318975984176,-0.00683536846190691,0.005490906536579132,0.004960536025464535,-0.02241075038909912,-0.002638116478919983,-0.006530642509460449,2,0.6241826855560051,0.2127350987467403,-0.7247555387089284,0.1996726633478542,0.989714503288269,0.05909744277596474,-0.1302795112133026,34.71952056884766,-10.89573669433594,9.223052978515625,2,105946.8017335417,4,2,1582558856.973808,1582558685.643339,11,0.6387488,0,0,10.91,0,0,1582558765.788069,105944.969479,0,3.656967,99.32102
1582558858.187395,6,0,1582558857.102366,41.20642880008847,29.07275954994053,180.2304,0.07688275,320.8804567165018,3,8.001208273680877,-9999,105947.9929110417,0.9735107421875,0.0569915771484375,-0.132476806640625,105947.9868680417,-2.552017445165245,1.439973060661693,-0.05909388060795945,-0.004191648680716753,0.00741024874150753,0.004220976494252682,-0.01999425888061523,-0.002539113163948059,-0.005916118621826172,2,0.624203304422751,0.2127413442936365,-0.7247297906112944,0.1996949430755488,0.9897242188453674,0.05905949324369431,-0.1302227079868317,34.71952056884766,-10.89573669433594,9.223052978515625,2,105946.8017335417,4,2,1582558856.973808,1582558685.643339,11,0.6387488,0,0,10.91,0,0,1582558765.788069,105944.969479,0,3.656967,99.32102
1582558858.188347,7,0,1582558857.102366,41.20642880008847,29.07275954994053,180.2304,0.07688275,320.8804567165018,3,8.001208273680877,-9999,105948.0029510417,0.973236083984375,0.05609130859375,-0.1318206787109375,105947.9969080417,-2.551815553723029,1.439947283851939,-0.05907571757855758,0.001771115465089679,-0.002989882603287697,0.001343831419944763,-0.01590263843536377,-0.002276837825775146,-0.001495718955993652,2,0.6241746208761616,0.2127953281935547,-0.7247162327542507,0.1997767027575483,0.9897220730781555,0.05904136225581169,-0.1302483826875687,34.79946136474609,-11.07672882080078,9.24322509765625,2,105946.8017335417,4,2,1582558856.973808,1582558685.643339,11,0.6387488,0,0,10.91,0,0,1582558765.788069,105944.969479,0,3.656967,99.32102
1582558858.189171,8,0,1582558857.102366,41.20642880008847,29.07275954994053,180.2304,0.07688275,320.8804567165018,3,8.001208273680877,-9999,105948.0129910417,0.970428466796875,0.05596923828125,-0.1360015869140625,105948.0069490417,-2.551801726092693,1.439935241474784,-0.05905763413723079,-0.00182548351585865,-0.0005522910505533218,0.002371545415371656,-0.01745855808258057,-0.002991214394569397,-0.00275033712387085,2,0.6241709432524627,0.2127919679838235,-0.7247169844495165,0.1997886953251924,0.989721417427063,0.05902330949902534,-0.1302604228258133,34.79946136474609,-11.07672882080078,9.24322509765625,2,105946.8017335417,4,2,1582558856.973808,1582558685.643339,11,0.6387488,0,0,10.91,0,0,1582558765.788069,105944.969479,0,3.656967,99.32102
1582558858.191593,9,0,1582558857.102366,41.20642880008847,29.07275954994053,180.2304,0.07688275,320.8804567165018,3,8.001208273680877,-9999,105948.0230320417,0.9724578857421875,0.0550994873046875,-0.1353302001953125,105948.0169890417,-2.551601389690266,1.43993292995932,-0.05906240605531703,-0.0003529680543579161,0.0002910848706960678,0.0003271689638495445,-0.01918220520019531,-0.003056988120079041,-0.006089746952056885,2,0.6241482250003071,0.2128559549986351,-0.7246980767318243,0.19986000035379,0.9897208213806152,0.05902807414531708,-0.1302626729011536,34.78534698486328,-10.96611785888672,9.102996826171875,2,105946.8017335417,4,2,1582558856.973808,1582558685.643339,11,0.6387488,0,0,10.91,0,0,1582558765.788069,105944.969479,0,3.656967,99.32102
1582558858.201574,10,0,1582558857.102366,41.20642880008847,29.07275954994053,180.2304,0.07688275,320.8804567165018,3,8.001208273680877,-9999,105948.0330720417,0.9744720458984375,0.0553436279296875,-0.1322479248046875,105948.0270290417,-2.551622252645387,1.439864154945637,-0.05910386025104118,0.002183160278946161,-0.006709033623337746,-0.003782088635489345,-0.01704990863800049,-0.004120737314224243,-0.004663944244384766,2,0.6241206046627211,0.2128573661532877,-0.7247251848278343,0.199846576808066,0.9897094964981079,0.05906945466995239,-0.130330428481102,34.78534698486328,-10.96611785888672,9.102996826171875,2,105946.8017335417,4,2,1582558856.973808,1582558685.643339,11,0.6387488,0,0,10.91,0,0,1582558765.788069,105944.969479,0,3.656967,99.32102
1582558858.21164,11,0,1582558857.102366,41.20642880008847,29.07275954994053,180.2304,0.07688275,320.8804567165018,3,8.001208273680877,-9999,105948.0431120417,0.97296142578125,0.0565032958984375,-0.133941650390625,105948.0371000417,-2.551425029426206,1.439738702104879,-0.0591586782453688,0.0001129505690187216,-0.01403959654271603,-0.005159122403711081,-0.01521456241607666,-0.003458306193351746,-0.001671552658081055,2,0.6240476430167761,0.2129259353560175,-0.7247493337448165,0.1999139687792778,0.9896899461746216,0.0591241791844368,-0.1304541677236557,34.50684356689453,-11.2265625,9.05267333984375,2,105946.8017335417,4,2,1582558856.973808,1582558685.643339,11,0.6387488,0,0,10.91,0,0,1582558765.788069,105944.969479,0,3.656967,99.32102
1582558858.223551,12,0,1582558857.102366,41.20642880008847,29.07275954994053,180.2304,0.07688275,320.8804567165018,3,8.001208273680877,-9999,105948.0531520417,0.9673309326171875,0.0577239990234375,-0.1374664306640625,105948.0471400417,-2.55143965579847,1.439643633065527,-0.05919656626771357,0.0003627550613600761,-0.008094355463981628,-0.003536990843713284,-0.01802283525466919,-0.002397537231445312,-0.004568517208099365,2,0.6240102618053932,0.2129253726778016,-0.7247836420690345,0.1999066924380586,0.9896752834320068,0.05916199833154678,-0.1305479556322098,34.50684356689453,-11.2265625,9.05267333984375,2,105946.8017335417,4,2,1582558856.973808,1582558685.643339,11,0.6387488,0,0,10.91,0,0,1582558765.788069,105944.969479,0,3.656967,99.32102
1582558858.242293,13,0,1582558857.102366,41.20642880008847,29.07275954994053,180.2304,0.07688275,320.8804567165018,3,8.001208273680877,-9999,105948.0631930417,0.965972900390625,0.058258056640625,-0.1371612548828125,105948.0571810417,-2.55125298653167,1.43958159837376,-0.05920319705878639,0.001272134948521852,-0.005693802610039711,-0.0009078243747353554,-0.02347713708877563,-0.001275017857551575,-0.007147073745727539,2,0.6239671242080036,0.212979766796242,-0.7247848644012784,0.19997880874732,0.989666759967804,0.05916861817240715,-0.1306092888116837,34.48892974853516,-11.07037734985352,9.094390869140625,2,105946.8017335417,4,2,1582558856.973808,1582558685.643339,11,0.6387488,0,0,10.91,0,0,1582558765.788069,105944.969479,0,3.656967,99.32102
1582558858.243321,14,0,1582558857.102366,41.20642880008847,29.07275954994053,180.2304,0.07688275,320.8804567165018,3,8.001208273680877,-9999,105948.0732330417,0.9659271240234375,0.0570526123046875,-0.1380157470703125,105948.0672210417,-2.551259687980082,1.439564803523353,-0.05918602662760481,-0.0005657125147990882,-0.001371758058667183,0.001205394044518471,-0.02384227514266968,-0.001044243574142456,-0.006855666637420654,2,0.6239637786094921,0.2129698880560957,-0.7247893737287762,0.1999836802113692,0.9896656274795532,0.05915147811174393,-0.1306260526180267,34.48892974853516,-11.07037734985352,9.094390869140625,2,105946.8017335417,4,2,1582558856.973808,1582558685.643339,11,0.6387488,0,0,10.91,0,0,1582558765.788069,105944.969479,0,3.656967,99.32102
1582558858.252158,15,0,1582558857.102366,41.20642880008847,29.07275954994053,180.2304,0.07688275,320.8804567165018,3,8.001208273680877,-9999,105948.0832730417,0.96575927734375,0.0569000244140625,-0.1387176513671875,105948.0772610417,-2.551049556282249,1.439599215661504,-0.05914073954126165,-0.0003344686701893806,0.00428352877497673,0.004991634283214808,-0.02421557903289795,-0.002082392573356628,-0.00780487060546875,2,0.6239592439265623,0.2130227333465714,-0.7247537664029607,0.200070588648561,0.9896727800369263,0.05910627171397209,-0.1305923610925674,34.64949798583984,-11.15634155273438,9.111175537109375,2,105946.8017335417,4,2,1582558856.973808,1582558685.643339,11,0.6387488,0,0,10.91,0,0,1582558765.788069,105944.969479,0,3.656967,99.32102
1582558858.261666,16,0,1582558857.102366,41.20642880008847,29.07275954994053,180.2304,0.07688275,320.8804567165018,3,8.001208273680877,-9999,105948.0933130417,0.969329833984375,0.056365966796875,-0.1378173828125,105948.0873020417,-2.551042315364595,1.439679834926086,-0.05909654269524583,0.0005238681333139539,0.008922755718231201,0.004464860539883375,-0.02367937564849854,-0.002160325646400452,-0.008540451526641846,2,0.6239929391396958,0.213017280743828,-0.7247240776823539,0.2000786694949236,0.9896858334541321,0.05906214937567711,-0.1305128931999207,34.64949798583984,-11.15634155273438,9.111175537109375,2,105946.8017335417,4,2,1582558856.973808,1582558685.643339,11,0.6387488,0,0,10.91,0,0,1582558765.788069,105944.969479,0,3.656967,99.32102
1582558858.271881,17,0,1582558857.102366,41.20642880008847,29.07275954994053,180.2304,0.07688275,320.8804567165018,3,8.001208273680877,-9999,105948.1033540417,0.9737548828125,0.0548248291015625,-0.135406494140625,105948.0973420417,-2.550820877253523,1.439737600281078,-0.05907354277432672,-0.0007413996499963105,0.005928032100200653,0.002168950159102678,-0.01949203014373779,-0.00282403826713562,-0.007086873054504395,2,0.6239930175779661,0.2130839354187318,-0.7246819003244115,0.2001600536258288,0.9896946549415588,0.05903919041156769,-0.1304558962583542,34.55373382568359,-11.12144470214844,9.0830078125,2,105946.8017335417,4,2,1582558856.973808,1582558685.643339,11,0.6387488,0,0,10.91,0,0,1582558765.788069,105944.969479,0,3.656967,99.32102
1582558858.281728,18,0,1582558857.102366,41.20642880008847,29.07275954994053,180.2304,0.07688275,320.8804567165018,3,8.001208273680877,-9999,105948.1133940417,0.9738616943359375,0.0555267333984375,-0.1340789794921875,105948.1073820417,-2.550810381267937,1.439729101763895,-0.05906337949398608,-0.0002335348399356008,-0.0005767401307821274,0.0002376250922679901,-0.01567685604095459,-0.004339739680290222,-0.004682779312133789,2,0.6239900251811975,0.2130827365656073,-0.7246826419462777,0.2001680040342792,0.9896941781044006,0.05902904644608498,-0.1304643899202347,34.55373382568359,-11.12144470214844,9.0830078125,2,105946.8017335417,4,2,1582558856.973808,1582558685.643339,11,0.6387488,0,0,10.91,0,0,1582558765.788069,105944.969479,0,3.656967,99.32102
1582558858.30406,19,0,1582558857.102366,41.20642880008847,29.07275954994053,180.2304,0.07688275,320.8804567165018,3,8.001208273680877,-9999,105948.1234340417,0.9712066650390625,0.056976318359375,-0.135345458984375,105948.1174220417,-2.550595642488876,1.43971223618606,-0.05905041981632585,-0.0003041086602024734,0.0002371221780776978,0.001068531535565853,-0.01649928092956543,-0.003289163112640381,-0.003933370113372803,2,0.6239625517583095,0.2131434525742178,-0.724665418860056,0.2002518178653075,0.9896928668022156,0.05901610851287842,-0.1304811984300613,34.66654205322266,-11.11328887939453,8.95159912109375,2,105946.8017335417,4,2,1582558856.973808,1582558685.643339,11,0.6387488,0,0,10.91,0,0,1582558765.788069,105944.969479,0,3.656967,99.32102
1582558858.305591,20,0,1582558857.102366,41.20642880008847,29.07275954994053,180.2304,0.07688275,320.8804567165018,3,8.001208273680877,-9999,105948.1334750417,0.96978759765625,0.057647705078125,-0.1353607177734375,105948.1274630417,-2.550588406352855,1.439695502272833,-0.05903250621836551,-0.0001318021095357835,-0.001147987321019173,0.001940716523677111,-0.01927530765533447,-0.001760661602020264,-0.005427241325378418,2,0.6239578427890675,0.2131376480906791,-0.7246683965668332,0.2002619347745431,0.9896917939186096,0.0589982271194458,-0.1304979026317596,34.66654205322266,-11.11328887939453,8.95159912109375,2,105946.8017335417,4,2,1582558856.973808,1582558685.643339,11,0.6387488,0,0,10.91,0,0,1582558765.788069,105944.969479,0,3.656967,99.32102
1582558858.311946,21,0,1582558857.102366,41.20642880008847,29.07275954994053,180.2304,0.07688275,320.8804567165018,3,8.001208273680877,-9999,105948.1435150417,0.9703826904296875,0.0566253662109375,-0.135498046875,105948.1375030417,-2.550381998746113,1.439673456596982,-0.05902058478699458,-0.0001312694512307644,-0.003676924854516983,0.000598483718931675,-0.01980721950531006,-0.001428350806236267,-0.004718899726867676,2,0.6239292940200446,0.2131955451328674,-0.7246534455262984,0.2003427712225693,0.9896894097328186,0.05898632481694221,-0.1305197924375534,34.76338958740234,-11.02811050415039,9.0787353515625,2,105946.8017335417,4,2,1582558856.973808,1582558685.643339,11,0.6387488,0,0,10.91,0,0,1582558765.788069,105944.969479,0,3.656967,99.32102
1582558858.321939,22,0,1582558857.102366,41.20642880008847,29.07275954994053,180.2304,0.07688275,320.8804567165018,3,8.001208273680877,-9999,105948.1535550417,0.9713592529296875,0.055908203125,-0.1362152099609375,105948.1475430417,-2.550379563960308,1.439688785563092,-0.05899997140424685,-0.0002907928428612649,0.003587113693356514,0.002684005070477724,-0.01962721347808838,-0.002597928047180176,-0.005817115306854248,2,0.623937020985963,0.2131905138099522,-0.7246467569164048,0.2003486512969661,0.989692747592926,0.05896574631333351,-0.1305048018693924,34.76338958740234,-11.02811050415039,9.0787353515625,2,105946.8017335417,4,2,1582558856.973808,1582558685.643339,11,0.6387488,0,0,10.91,0,0,1582558765.788069,105944.969479,0,3.656967,99.32102
1582558858.332079,23,0,1582558857.102366,41.20642880008847,29.07275954994053,180.2304,0.07688275,320.8804567165018,3,8.001208273680877,-9999,105948.1635950417,0.971435546875,0.056671142578125,-0.1343231201171875,105948.1575840417,-2.550179010844596,1.439653352217522,-0.05899524925759194,0.000145335856359452,-0.003709331154823303,-0.0001085391268134117,-0.0181121826171875,-0.003050997853279114,-0.005263209342956543,2,0.6239033656162567,0.2132478395392584,-0.7246372962545947,0.2004265851792805,0.9896883964538574,0.05896103382110596,-0.1305398941040039,34.65044403076172,-10.9662971496582,8.963409423828125,2,105946.8017335417,4,2,1582558856.973808,1582558685.643339,11,0.6387488,0,0,10.91,0,0,1582558765.788069,105944.969479,0,3.656967,99.32102
1582558858.342163,24,0,1582558857.102366,41.20642880008847,29.07275954994053,180.2304,0.07688275,320.8804567165018,3,8.001208273680877,-9999,105948.1736360417,0.9685516357421875,0.0577392578125,-0.1358795166015625,105948.1676240417,-2.550169800425537,1.439562155543342,-0.05897990008308775,-0.001001452561467886,-0.01015007495880127,0.0009034164249897003,-0.01890987157821655,-0.002059087157249451,-0.003997862339019775,2,0.6238711643385574,0.21323609887788,-0.7246635111114281,0.2004445335387876,0.989677369594574,0.05894571170210838,-0.1306302696466446,34.65044403076172,-10.9662971496582,8.963409423828125,2,105946.8017335417,4,2,1582558856.973808,1582558685.643339,11,0.6387488,0,0,10.91,0,0,1582558765.788069,105944.969479,0,3.656967,99.32102
1582558858.365083,25,0,1582558857.102366,41.20642880008847,29.07275954994053,180.2304,0.07688275,320.8804567165018,3,8.001208273680877,-9999,105948.1836760417,0.9662017822265625,0.059234619140625,-0.1378936767578125,105948.1776640417,-2.549971409074219,1.439497037630197,-0.05892292439547892,0.002231495222076774,-0.004021583124995232,0.005516691133379936,-0.02218532562255859,-0.0009950995445251465,-0.005962371826171875,2,0.6238331908825449,0.2132711264776499,-0.7246590426122631,0.2005414827726857,0.9896721243858337,0.05888883396983147,-0.1306951493024826,34.59563446044922,-10.91462326049805,9.0064697265625,2,105946.8017335417,4,2,1582558856.973808,1582558685.643339,11,0.6387488,0,0,10.91,0,0,1582558765.788069,105944.969479,0,3.656967,99.32102
1582558858.365752,26,0,1582558857.102366,41.20642880008847,29.07275954994053,180.2304,0.07688275,320.8804567165018,3,8.001208273680877,-9999,105948.1937470417,0.9658660888671875,0.058563232421875,-0.137359619140625,105948.1877040417,-2.549969634802521,1.439452576942689,-0.05883860685041328,0.0007571692112833261,-0.003634359687566757,0.008285047486424446,-0.02386289834976196,0.0005844384431838989,-0.007245302200317383,2,0.6238269151171862,0.2132371433302131,-0.7246655115104449,0.2005736992058888,0.9896712303161621,0.05880466476082802,-0.1307398080825806,34.59563446044922,-10.91462326049805,9.0064697265625,2,105946.8017335417,4,2,1582558856.973808,1582558685.643339,11,0.6387488,0,0,10.91,0,0,1582558765.788069,105944.969479,0,3.656967,99.32102
1582558858.372241,27,0,1582558857.102366,41.20642880008847,29.07275954994053,180.2304,0.07688275,320.8804567165018,3,8.001208273680877,-9999,105948.2037870417,0.9680023193359375,0.0572509765625,-0.1367645263671875,105948.1977450417,-2.549774730436948,1.43946898359226,-0.05873992829020545,0.002618565689772367,0.002846663817763329,0.01016450487077236,-0.02379447221755981,-0.0003088414669036865,-0.006604671478271484,2,0.6238238083559173,0.2132643810098999,-0.7246323883391074,0.2006739701320443,0.9896790981292725,0.05870615318417549,-0.1307243257761002,34.63191986083984,-11.20119094848633,8.958648681640625,2,105946.8017335417,4,2,1582558856.973808,1582558685.643339,11,0.6387488,0,0,10.91,0,0,1582558765.788069,105944.969479,0,3.656967,99.32102
1582558858.382169,28,0,1582558857.102366,41.20642880008847,29.07275954994053,180.2304,0.07688275,320.8804567165018,3,8.001208273680877,-9999,105948.2138270417,0.9715423583984375,0.054534912109375,-0.1364288330078125,105948.2077850417,-2.549781838259713,1.43951012604793,-0.05865731205524539,0.002385539002716541,0.004215795546770096,0.00873918179422617,-0.02128714323043823,-0.001706510782241821,-0.006141364574432373,2,0.6238493002504577,0.2132368109636504,-0.7246131479925549,0.200693270491076,0.9896891713142395,0.05862368270754814,-0.1306842267513275,34.63191986083984,-11.20119094848633,8.958648681640625,2,105946.8017335417,4,2,1582558856.973808,1582558685.643339,11,0.6387488,0,0,10.91,0,0,1582558765.788069,105944.969479,0,3.656967,99.32102
1582558858.392297,29,0,1582558857.102366,41.20642880008847,29.07275954994053,180.2304,0.07688275,320.8804567165018,3,8.001208273680877,-9999,105948.2238680417,0.9719696044921875,0.0540618896484375,-0.13775634765625,105948.2178250417,-2.54958867114811,1.439595043757811,-0.05861679181555023,0.001766151282936335,0.008899787440896034,0.003336987923830748,-0.01808083057403564,-0.004549935460090637,-0.006087660789489746,2,0.6238642702314364,0.2132911572832503,-0.724563886568747,0.2007671550826323,0.9897027611732483,0.05858322978019714,-0.1306005120277405,34.55280303955078,-11.26551055908203,9.0909423828125,2,105946.8017335417,4,2,1582558856.973808,1582558685.643339,11,0.6387488,0,0,10.91,0,0,1582558765.788069,105944.969479,0,3.656967,99.32102
1582558858.402244,30,0,1582558857.102366,41.20642880008847,29.07275954994053,180.2304,0.07688275,320.8804567165018,3,8.001208273680877,-9999,105948.2339080417,0.975799560546875,0.0543212890625,-0.135467529296875,105948.2278660417,-2.54960560277868,1.439682845657815,-0.05861561488307963,0.001028455677442253,0.008323481306433678,-0.0008790623396635056,-0.01769560575485229,-0.004197821021080017,-0.00730365514755249,2,0.6238980252374098,0.2132942679080869,-0.7245380907343565,0.2007520280943323,0.9897142648696899,0.05858205631375313,-0.1305136233568192,34.55280303955078,-11.26551055908203,9.0909423828125,2,105946.8017335417,4,2,1582558856.973808,1582558685.643339,11,0.6387488,0,0,10.91,0,0,1582558765.788069,105944.969479,0,3.656967,99.32102
1582558858.412579,31,0,1582558857.102366,41.20642880008847,29.07275954994053,180.2304,0.07688275,320.8804567165018,3,8.001208273680877,-9999,105948.2439480417,0.972015380859375,0.0550689697265625,-0.1349639892578125,105948.2379060417,-2.549399535242367,1.439730433736225,-0.058637946534255,-0.0009925926569849253,0.004670439288020134,-0.002335154451429844,-0.01412999629974365,-0.004143819212913513,-0.004650115966796875,2,0.6238906310474095,0.2133712888890885,-0.7245044595787765,0.2008144853042202,0.9897191524505615,0.05860434845089912,-0.1304663419723511,34.51491546630859,-10.95776748657227,8.837921142578125,2,105946.8017335417,4,2,1582558856.973808,1582558685.643339,11,0.6387488,0,0,10.91,0,0,1582558765.788069,105944.969479,0,3.656967,99.32102
1582558858.422439,32,0,1582558857.102366,41.20642880008847,29.07275954994053,180.2304,0.07688275,320.8804567165018,3,8.001208273680877,-9999,105948.2539890417,0.9686279296875,0.0570068359375,-0.1376953125,105948.2479460417,-2.549399270009395,1.439790022369747,-0.05866804496803488,-0.0004056320176459849,0.005962340161204338,-0.003027842612937093,-0.01900345087051392,-0.003136247396469116,-0.005182206630706787,2,0.6239086010530915,0.2133881022967203,-0.7244884757958975,0.2007986795659129,0.9897252917289734,0.05863439664244652,-0.1304071545600891,34.51491546630859,-10.95776748657227,8.837921142578125,2,105946.8017335417,4,2,1582558856.973808,1582558685.643339,11,0.6387488,0,0,10.91,0,0,1582558765.788069,105944.969479,0,3.656967,99.32102
1582558858.432368,33,0,1582558857.102366,41.20642880008847,29.07275954994053,180.2304,0.07688275,320.8804567165018,3,8.001208273680877,-9999,105948.2640290417,0.966705322265625,0.058135986328125,-0.13702392578125,105948.2579860417,-2.549179097997266,1.439880655782769,-0.05867152761923064,-0.001458428800106049,0.009834835305809975,0.0005884128622710705,-0.02154815196990967,-0.00138498842716217,-0.007713496685028076,2,0.6239175291073928,0.2134671177287225,-0.724438347089241,0.2008676211588925,0.9897368550300598,0.05863787233829498,-0.1303174197673798,34.56560516357422,-10.9290885925293,8.78985595703125,2,105946.8017335417,4,2,1582558856.973808,1582558685.643339,11,0.6387488,0,0,10.91,0,0,1582558765.788069,105944.969479,0,3.656967,99.32102
1582558858.442433,34,0,1582558857.102366,41.20642880008847,29.07275954994053,180.2304,0.07688275,320.8804567165018,3,8.001208273680877,-9999,105948.2740690417,0.96484375,0.0592193603515625,-0.1376800537109375,105948.2680270417,-2.549140249766025,1.440010352927124,-0.05863928627142898,-0.004059271886944771,0.01414676196873188,0.003452642820775509,-0.02399289608001709,-2.528727054595947e-05,-0.006849884986877441,2,0.6239642077404728,0.2134807459268871,-0.7243911402147897,0.2008780572626369,0.9897555112838745,0.05860568583011627,-0.1301892697811127,34.56560516357422,-10.9290885925293,8.78985595703125,2,105946.8017335417,4,2,1582558856.973808,1582558685.643339,11,0.6387488,0,0,10.91,0,0,1582558765.788069,105944.969479,0,3.656967,99.32102
1582558858.452446,35,0,1582558857.102366,41.20642880008847,29.07275954994053,180.2304,0.07688275,320.8804567165018,3,8.001208273680877,-9999,105948.2841090417,0.96630859375,0.0579376220703125,-0.1381072998046875,105948.2780670417,-2.548902075755277,1.440207272845664,-0.05855096274361467,-0.002824581228196621,0.02017430029809475,0.009829366579651833,-0.02506142854690552,0.000307038426399231,-0.008066475391387939,2,0.6240205915044771,0.2135433699875333,-0.7242982886959525,0.2009714775785807,0.9897863268852234,0.05851751565933228,-0.1299950629472733,34.40427398681641,-10.83895111083984,8.897613525390625,2,105946.8017335417,4,2,1582558856.973808,1582558685.643339,11,0.6387488,0,0,10.91,0,0,1582558765.788069,105944.969479,0,3.656967,99.32102
1582558858.462503,36,0,1582558857.102366,41.20642880008847,29.07275954994053,180.2304,0.07688275,320.8804567165018,3,8.001208273680877,-9999,105948.2941500417,0.97039794921875,0.0566558837890625,-0.1356353759765625,105948.2881070417,-2.54887848386349,1.440446681543119,-0.05845284854920492,-0.001796068390831351,0.02457650564610958,0.008983546867966652,-0.02320623397827148,-0.000708848237991333,-0.008333206176757812,2,0.624116428781059,0.2135398278615341,-0.7242128607735249,0.2009857454197861,0.9898232221603394,0.05841956660151482,-0.1297588497400284,34.40427398681641,-10.83895111083984,8.897613525390625,2,105946.8017335417,4,2,1582558856.973808,1582558685.643339,11,0.6387488,0,0,10.91,0,0,1582558765.788069,105944.969479,0,3.656967,99.32102
1582558858.474755,37,0,1582558857.102366,41.20642880008847,29.07275954994053,180.2304,0.07688275,320.8804567165018,3,8.001208273680877,-9999,105948.3041900417,0.97674560546875,0.055419921875,-0.1334991455078125,105948.2981780417,-2.548649710284312,1.440641412914808,-0.05835079990023306,-0.001942630158737302,0.02121739089488983,0.009725030511617661,-0.01846134662628174,-0.00204131007194519,-0.005610764026641846,2,0.6241746391534103,0.2135944298540844,-0.7241203788451255,0.2010803146551848,0.9898543953895569,0.05831769481301308,-0.129566878080368,34.44467926025391,-10.96287536621094,8.947174072265625,2,105946.8017335417,4,2,1582558856.973808,1582558685.643339,11,0.6387488,0,0,10.91,0,0,1582558765.788069,105945.90585,0,3.54599,99.32232
1582558858.482593,38,0,1582558857.102366,41.20642880008847,29.07275954994053,180.2304,0.07688275,320.8804567165018,3,8.001208273680877,-9999,105948.314211375,0.9792633056640625,0.054901123046875,-0.1307373046875,105948.3082180417,-2.548617083784522,1.440708615563141,-0.05826983351463815,-0.002137307310476899,0.007824622094631195,0.008862964808940887,-0.01214241981506348,-0.003104865550994873,-0.00364762544631958,2,0.6242051465627336,0.2135824607915656,-0.724088986546858,0.2011106060797469,0.9898675680160522,0.05823686346411705,-0.1295009404420853,34.44467926025391,-10.96287536621094,8.947174072265625,2,105946.8017335417,4,2,1582558856.973808,1582558685.643339,11,0.6387488,0,0,10.91,0,0,1582558765.788069,105945.90585,0,3.54599,99.32232
1582558858.49271,39,0,1582558857.102366,41.20642880008847,29.07275954994053,180.2304,0.07688275,320.8804567165018,3,8.001208273680877,-9999,105948.324252375,0.97467041015625,0.056915283203125,-0.13116455078125,105948.318240375,-2.548394684363433,1.440648717322361,-0.05820492176069914,-0.002126292092725635,-0.00710676796734333,0.006723928730934858,-0.01122289896011353,-0.00296376645565033,-0.001207470893859863,2,0.6241674324211051,0.2136227042696776,-0.7240797190693842,0.2012181824767894,0.9898635149002075,0.05817206203937531,-0.1295607089996338,34.44905853271484,-10.88407897949219,9.036041259765625,2,105946.8017335417,4,2,1582558856.973808,1582558685.643339,11,0.6387488,0,0,10.91,0,0,1582558765.788069,105945.90585,0,3.54599,99.32232
1582558858.503113,40,0,1582558857.102366,41.20642880008847,29.07275954994053,180.2304,0.07688275,320.8804567165018,3,8.001208273680877,-9999,105948.334292375,0.968841552734375,0.05865478515625,-0.134124755859375,105948.328280375,-2.548363993359247,1.440550649538618,-0.05811407457631795,-0.002698605414479971,-0.00890626572072506,0.009503202512860298,-0.01692229509353638,-0.0006299912929534912,-0.002513468265533447,2,0.6241394457196263,0.2135900510829201,-0.7240995002542725,0.2012687477438572,0.9898561239242554,0.05808136984705925,-0.1296584904193878,34.44905853271484,-10.88407897949219,9.036041259765625,2,105946.8017335417,4,2,1582558856.973808,1582558685.643339,11,0.6387488,0,0,10.91,0,0,1582558765.788069,105945.90585,0,3.54599,99.32232
1582558858.512689,41,0,1582558857.102366,41.20642880008847,29.07275954994053,180.2304,0.07688275,320.8804567165018,3,8.001208273680877,-9999,105948.344332375,0.965576171875,0.0603485107421875,-0.1356964111328125,105948.338320375,-2.548109260886304,1.440425010201428,-0.05793085030217879,-0.004311761818826199,-0.01395040564239025,0.02080947905778885,-0.02201312780380249,0.001139864325523376,-0.004798769950866699,2,0.6240885544243713,0.2135915786276234,-0.724097301821975,0.2014327265950662,0.9898503422737122,0.05789845436811447,-0.1297842264175415,34.55570220947266,-10.91644668579102,8.91937255859375,2,105946.8017335417,4,2,1582558856.973808,1582558685.643339,11,0.6387488,0,0,10.91,0,0,1582558765.788069,105945.90585,0,3.54599,99.32232
1582558858.522853,42,0,1582558857.102366,41.20642880008847,29.07275954994053,180.2304,0.07688275,320.8804567165018,3,8.001208273680877,-9999,105948.354372375,0.96502685546875,0.059295654296875,-0.1379547119140625,105948.348360375,-2.548078993012228,1.440391001589926,-0.05768410447585507,-0.0003636255278252065,-0.002761933952569962,0.02494110912084579,-0.02499830722808838,0.002744287252426147,-0.006533265113830566,2,0.624102357956702,0.2135096502417,-0.7240836843182367,0.2015259080368536,0.9898601174354553,0.05765211954712868,-0.1298197507858276,34.55570220947266,-10.91644668579102,8.91937255859375,2,105946.8017335417,4,2,1582558856.973808,1582558685.643339,11,0.6387488,0,0,10.91,0,0,1582558765.788069,105945.90585,0,3.54599,99.32232
1582558858.533474,43,0,1582558857.102366,41.20642880008847,29.07275954994053,180.2304,0.07688275,320.8804567165018,3,8.001208273680877,-9999,105948.364413375,0.969573974609375,0.05743408203125,-0.136810302734375,105948.358401375,-2.547861390266532,1.440496367618978,-0.05739233884123448,0.0003498103760648519,0.01308136619627476,0.03072096034884453,-0.02479970455169678,0.001357153058052063,-0.008496999740600586,2,0.6241519834506345,0.2134841624104563,-0.7240037237722302,0.2016863095851015,0.9898903965950012,0.05736083537340164,-0.1297176331281662,34.55344390869141,-11.10171890258789,8.913482666015625,2,105946.8017335417,4,2,1582558856.973808,1582558685.643339,11,0.6387488,0,0,10.91,0,0,1582558765.788069,105945.90585,0,3.54599,99.32232
1582558858.542912,44,0,1582558857.102366,41.20642880008847,29.07275954994053,180.2304,0.07688275,320.8804567165018,3,8.001208273680877,-9999,105948.374453375,0.980438232421875,0.0600128173828125,-0.122833251953125,105948.368441375,-2.547914141364721,1.440430902433849,-0.05706020329309137,0.0106924632564187,-0.001595580950379372,0.03244828432798386,-0.01882869005203247,0.0009106099605560303,-0.00534743070602417,2,0.6241734049343171,0.2133427017938558,-0.7240008846816766,0.2017799563047823,0.9899007678031921,0.05702924355864525,-0.1297848969697952,34.55344390869141,-11.10171890258789,8.913482666015625,2,105946.8017335417,4,2,1582558856.973808,1582558685.643339,11,0.6387488,0,0,10.91,0,0,1582558765.788069,105945.90585,0,3.54599,99.32232
1582558858.552849,45,0,1582558857.102366,41.20642880008847,29.07275954994053,180.2304,0.07688275,320.8804567165018,3,8.001208273680877,-9999,105948.384493375,0.9743804931640625,0.055572509765625,-0.1336669921875,105948.378481375,-2.547725043269375,1.440127403662931,-0.05667983570241288,0.003410833422094584,-0.03169438242912292,0.03953083232045174,-0.008526086807250977,0.002724811434745789,0.007758200168609619,2,0.6240885792933835,0.2132354742026998,-0.7240437517707288,0.2020018805041056,0.9898828268051147,0.05664949119091034,-0.1300881505012512,34.50685882568359,-11.11125183105469,8.801116943359375,2,105946.8017335417,4,2,1582558856.973808,1582558685.643339,11,0.6387488,0,0,10.91,0,0,1582558765.788069,105945.90585,0,3.54599,99.32232
1582558858.562891,46,0,1582558857.102366,41.20642880008847,29.07275954994053,180.2304,0.07688275,320.8804567165018,3,8.001208273680877,-9999,105948.394534375,0.96868896484375,0.053924560546875,-0.1392974853515625,105948.388522375,-2.547775624911583,1.439962488512806,-0.05633715583106611,0.008232752792537212,-0.01490741223096848,0.03345482796430588,-0.01810646057128906,-0.00177001953125,-0.006587326526641846,2,0.6240749963360349,0.2130808284374562,-0.7240707252937356,0.2021101807393458,0.9898805022239685,0.0563073605298996,-0.1302539259195328,34.50685882568359,-11.11125183105469,8.801116943359375,2,105946.8017335417,4,2,1582558856.973808,1582558685.643339,11,0.6387488,0,0,10.91,0,0,1582558765.788069,105945.90585,0,3.54599,99.32232
1582558858.573057,47,0,1582558857.102366,41.20642880008847,29.07275954994053,180.2304,0.07688275,320.8804567165018,3,8.001208273680877,-9999,105948.404574375,0.9676055908203125,0.0493927001953125,-0.1389617919921875,105948.398562375,-2.547631192194347,1.439863858935477,-0.05605633636840056,0.01042016409337521,-0.01024928502738476,0.02777561731636524,-0.02131348848342896,-0.002252534031867981,-0.008455634117126465,2,0.6240572509458951,0.2130158069282244,-0.72406275407886,0.2022624046495414,0.9898834228515625,0.05602698400616646,-0.1303536295890808,34.37082672119141,-11.31966018676758,9.0279541015625,2,105946.8017335417,4,2,1582558856.973808,1582558685.643339,11,0.6387488,0,0,10.91,0,0,1582558765.788069,105945.90585,0,3.54599,99.32232
1582558858.58292,48,0,1582558857.102366,41.20642880008847,29.07275954994053,180.2304,0.07688275,320.8804567165018,3,8.001208273680877,-9999,105948.414614375,0.9635009765625,0.04754638671875,-0.1455841064453125,105948.408602375,-2.547677315184111,1.439943082747113,-0.05590581979678259,0.004034968093037605,0.007106270641088486,0.01306138373911381,-0.02340728044509888,-0.008068367838859558,-0.01039469242095947,2,0.6241087396521164,0.2129557215163354,-0.7240295915892058,0.2022850904575038,0.9899019002914429,0.05587670207023621,-0.1302762776613235,34.37082672119141,-11.31966018676758,9.0279541015625,2,105948.408388375,2,0,1582558858.580463,1582558685.643339,11,0.6387488,0,0,10.91,0,0,1582558765.788069,105945.90585,0,3.54599,99.32232
1582558858.594631,49,0,1582558857.102366,41.20642880008847,29.07275954994053,180.2304,0.07688275,320.8804567165018,3,8.001208273680877,-9999,105948.424654375,0.9649505615234375,0.051483154296875,-0.141021728515625,105948.418642375,-2.547561498776534,1.440307747415797,-0.05582716527310769,0.009941209107637405,0.04108986258506775,0.00696247722953558,-0.02709090709686279,-0.006967514753341675,-0.01580601930618286,2,0.6242377466056532,0.213000709014069,-0.7238972907564803,0.2023132236993405,0.9899537563323975,0.05579816922545433,-0.129915863275528,34.31478118896484,-11.47433090209961,8.983306884765625,2,105948.408388375,2,0,1582558858.580463,1582558685.643339,11,0.6387488,0,0,10.91,0,0,1582558765.788069,105945.90585,0,3.54599,99.32232
1582558858.603128,50,0,1582558857.102366,41.20642880008847,29.07275954994053,180.2304,0.07688275,320.8804567165018,3,8.001208273680877,-9999,105948.434695375,0.9661865234375,0.053802490234375,-0.137420654296875,105948.428683375,-2.547651451369381,1.440756808965019,-0.05578058088894156,0.00921869371086359,0.04560312628746033,0.0042862668633461,-0.02460354566574097,-0.004510119557380676,-0.01031458377838135,2,0.6244153731865993,0.2130014493712108,-0.7237622217319407,0.2022476996448107,0.9900146126747131,0.05575165897607803,-0.1294716447591782,34.31478118896484,-11.47433090209961,8.983306884765625,2,105948.408388375,2,0,1582558858.580463,1582558685.643339,11,0.6387488,0,0,10.91,0,0,1582558765.788069,105945.90585,0,3.54599,99.32232
1582558858.613138,51,0,1582558857.102366,41.20642880008847,29.07275954994053,180.2304,0.07688275,320.8804567165018,3,8.001208273680877,-9999,105948.444765375,0.9629669189453125,0.056793212890625,-0.1397247314453125,105948.438723375,-2.547545510434656,1.441328119735742,-0.05572577083446922,0.01219103205949068,0.05889741703867912,0.003813931718468666,-0.02513813972473145,-0.00082378089427948,-0.009171068668365479,2,0.6246173139465463,0.2130727653246424,-0.7235683705816865,0.2022426273922573,0.9900914430618286,0.05569693446159363,-0.1289064139127731,34.35417938232422,-11.32129669189453,8.854705810546875,2,105948.408388375,2,0,1582558858.580463,1582558685.643339,11,0.6387488,0,0,10.91,0,0,1582558765.788069,105945.90585,0,3.54599,99.32232
1582558858.623218,52,0,1582558857.102366,41.20642880008847,29.07275954994053,180.2304,0.07688275,320.8804567165018,3,8.001208273680877,-9999,105948.454806375,0.966461181640625,0.0564117431640625,-0.135345458984375,105948.448763375,-2.54744110022667,1.441988377987146,-0.0556272616797636,0.01120113488286734,0.06662137806415558,0.008538379333913326,-0.02718180418014526,0.001029357314109802,-0.01136547327041626,2,0.6248567149696765,0.2131370410360258,-0.7233430384116292,0.202241414959752,0.9901818037033081,0.05559857562184334,-0.1282533705234528,34.34038543701172,-11.28475570678711,8.927154541015625,2,105948.408388375,2,0,1582558858.580463,1582558685.643339,11,0.6387488,0,0,10.91,0,0,1582558765.788069,105945.90585,0,3.54599,99.32232
1582558858.633312,53,0,1582558857.102366,41.20642880008847,29.07275954994053,180.2304,0.07688275,320.8804567165018,3,8.001208273680877,-9999,105948.464846375,0.96826171875,0.054656982421875,-0.1333160400390625,105948.458804375,-2.547572146816728,1.442691874553332,-0.05550686821838599,0.01304979436099529,0.07040882110595703,0.01067471131682396,-0.02378422021865845,0.0009512454271316528,-0.007254958152770996,2,0.6251393629310459,0.21312431732588,-0.7231259981248218,0.2021574025346949,0.9902783632278442,0.05547836795449257,-0.1275576055049896,34.34038543701172,-11.28475570678711,8.927154541015625,2,105948.408388375,2,0,1582558858.580463,1582558685.643339,11,0.6387488,0,0,10.91,0,0,1582558765.788069,105945.90585,0,3.54599,99.32232
1582558858.643319,54,0,1582558857.102366,41.20642880008847,29.07275954994053,180.2304,0.07688275,320.8804567165018,3,8.001208273680877,-9999,105948.474886375,0.9705810546875,0.0507049560546875,-0.13482666015625,105948.468844375,-2.547484118808359,1.443418117900198,-0.05540875667396597,0.01158505491912365,0.07221311330795288,0.008199304342269897,-0.02121186256408691,-0.001987293362617493,-0.006631135940551758,2,0.6254041668219711,0.2131902808587785,-0.7228814691029655,0.2021430390587058,0.9903760552406311,0.05538040772080421,-0.1268390715122223,34.38571929931641,-11.35116577148438,8.9085693359375,2,105948.408388375,2,0,1582558858.580463,1582558685.643339,11,0.6387488,0,0,10.91,0,0,1582558765.788069,105945.90585,0,3.54599,99.32232
1582558858.653384,55,0,1582558857.102366,41.20642880008847,29.07275954994053,180.2304,0.07688275,320.8804567165018,3,8.001208273680877,-9999,105948.484927375,0.9756927490234375,0.0521087646484375,-0.1292724609375,105948.478884375,-2.54760244334715,1.444131631852856,-0.05533855308585406,0.01323868706822395,0.07326307892799377,0.005028315354138613,-0.02005469799041748,-0.004526436328887939,-0.008802056312561035,2,0.6256829368271963,0.2132004076667661,-0.7226642881996906,0.2020466867446506,0.990470290184021,0.05531031265854836,-0.1261328905820847,34.38571929931641,-11.35116577148438,8.9085693359375,2,105948.408388375,2,0,1582558858.580463,1582558685.643339,11,0.6387488,0,0,10.91,0,0,1582558765.788069,105945.90585,0,3.54599,99.32232
1582558858.663315,56,0,1582558857.102366,41.20642880008847,29.07275954994053,180.2304,0.07688275,320.8804567165018,3,8.001208273680877,-9999,105948.494967375,0.9789581298828125,0.052154541015625,-0.125,105948.488924375,-2.547500288973398,1.444674149705007,-0.05527579570502694,0.01264853123575449,0.05389896407723427,0.004098073113709688,-0.0133974552154541,-0.003212541341781616,-0.002198278903961182,2,0.6258755019030893,0.2132648143797481,-0.7224786778343064,0.2020457022780396,0.9905418753623962,0.05524765327572823,-0.1255959570407867,34.35713958740234,-11.11814117431641,8.85546875,2,105948.408388375,2,0,1582558858.580463,1582558685.643339,11,0.6387488,0,0,10.91,0,0,1582558765.788069,105945.90585,0,3.54599,99.32232
1582558858.673434,57,0,1582558857.102366,41.20642880008847,29.07275954994053,180.2304,0.07688275,320.8804567165018,3,8.001208273680877,-9999,105948.505007375,0.97357177734375,0.055816650390625,-0.1274566650390625,105948.498965375,-2.547569244201509,1.44507563227732,-0.05517573968895828,0.007891954854130745,0.0394933819770813,0.008292065933346748,-0.01261413097381592,-0.002654895186424255,-0.0003217458724975586,2,0.6260397149643427,0.2132482009226128,-0.7223513726494127,0.2020099580985789,0.9905978441238403,0.05514774844050407,-0.1251989603042603,34.35713958740234,-11.11814117431641,8.85546875,2,105948.408388375,2,0,1582558858.580463,1582558685.643339,11,0.6387488,0,0,10.91,0,0,1582558765.788069,105945.90585,0,3.54599,99.32232
1582558858.683392,58,0,1582558857.102366,41.20642880008847,29.07275954994053,180.2304,0.07688275,320.8804567165018,3,8.001208273680877,-9999,105948.515047375,0.9709625244140625,0.056121826171875,-0.1294097900390625,105948.509005375,-2.547444317336013,1.445431877817804,-0.05499948671989941,0.01117376796901226,0.03591223061084747,0.01633747480809689,-0.01825296878814697,0.001305341720581055,-0.003374338150024414,2,0.6261759310189159,0.2132605740860096,-0.7222118735785847,0.2020733011945312,0.9906519055366516,0.05497176200151443,-0.1248472630977631,34.34537506103516,-11.138916015625,8.890411376953125,2,105948.408388375,2,0,1582558858.580463,1582558685.643339,11,0.6387488,0,0,10.91,0,0,1582558765.788069,105945.90585,0,3.54599,99.32232
1582558858.693487,59,0,1582558857.102366,41.20642880008847,29.07275954994053,180.2304,0.07688275,320.8804567165018,3,8.001208273680877,-9999,105948.525088375,0.9709625244140625,0.053192138671875,-0.132568359375,105948.519045375,-2.547568937007619,1.445843813353269,-0.05480688587755058,0.0143140722066164,0.04197333380579948,0.01774677447974682,-0.02049684524536133,0.0008568465709686279,-0.005581796169281006,2,0.6263607576529315,0.2131946506960632,-0.7220787330934764,0.2020458590110335,0.9907137751579285,0.05477945134043694,-0.1244404837489128,34.34537506103516,-11.138916015625,8.890411376953125,2,105948.408388375,2,0,1582558858.580463,1582558685.643339,11,0.6387488,0,0,10.91,0,0,1582558765.788069,105945.90585,0,3.54599,99.32232
1582558858.703599,60,0,1582558857.102366,41.20642880008847,29.07275954994053,180.2304,0.07688275,320.8804567165018,3,8.001208273680877,-9999,105948.535128375,0.9771728515625,0.0499267578125,-0.1279754638671875,105948.529086375,-2.547516969958991,1.446301080547588,-0.05464321298664701,0.01741132698953152,0.04934575781226158,0.01494193263351917,-0.01915884017944336,-0.002046778798103333,-0.008811116218566895,2,0.6265396697972592,0.2131988899424992,-0.7219159560988488,0.2020680805409593,0.9907793402671814,0.05461602285504341,-0.1239885538816452,34.34900665283203,-11.19228744506836,8.906341552734375,2,105948.408388375,2,0,1582558858.580463,1582558685.643339,11,0.6387488,0,0,10.91,0,0,1582558765.788069,105945.90585,0,3.54599,99.32232
1582558858.713688,61,0,1582558857.102366,41.20642880008847,29.07275954994053,180.2304,0.07688275,320.8804567165018,3,8.001208273680877,-9999,105948.545168375,0.9826202392578125,0.0467529296875,-0.123687744140625,105948.539126375,-2.547664141558685,1.446604395123006,-0.05455203518986673,0.01530031114816666,0.03143253922462463,0.006937389262020588,-0.01251816749572754,-0.005282074213027954,-0.002961874008178711,2,0.6266755988481828,0.213151027719883,-0.7218279861865733,0.2020118324045704,0.9908220171928406,0.0545249804854393,-0.123688668012619,34.34900665283203,-11.19228744506836,8.906341552734375,2,105948.408388375,2,0,1582558858.580463,1582558685.643339,11,0.6387488,0,0,10.91,0,0,1582558765.788069,105945.90585,0,3.54599,99.32232
1582558858.724084,62,0,1582558857.102366,41.20642880008847,29.07275954994053,180.2304,0.07688275,320.8804567165018,3,8.001208273680877,-9999,105948.555209375,0.98358154296875,0.0477294921875,-0.12298583984375,105948.549197375,-2.547566097838548,1.446731801701225,-0.05452570011004431,0.01071141846477985,0.01521389000117779,0.0005716350860893726,-0.007927060127258301,-0.007956579327583313,-0.0001277327537536621,2,0.6267142589985313,0.213185230533156,-0.721775779520806,0.2020419849199868,0.9908390641212463,0.05449868738651276,-0.1235625892877579,34.32355499267578,-11.26601028442383,8.927581787109375,2,105948.408388375,2,0,1582558858.580463,1582558685.643339,11,0.6387488,0,0,10.91,0,0,1582558765.788069,105945.90585,0,3.54599,99.32232
1582558858.733698,63,0,1582558857.102366,41.20642880008847,29.07275954994053,180.2304,0.07688275,320.8804567165018,3,8.001208273680877,-9999,105948.565249375,0.98052978515625,0.0501708984375,-0.1243133544921875,105948.559237375,-2.547669710104457,1.446685281260672,-0.05455594902034934,0.01050877850502729,-0.002362573519349098,-0.004699301905930042,-0.008178949356079102,-0.006201505661010742,0.000162661075592041,2,0.6267049215703742,0.213158844992931,-0.7218035460432676,0.201999953692947,0.9908318519592285,0.05452888831496239,-0.1236084997653961,34.32355499267578,-11.26601028442383,8.927581787109375,2,105948.408388375,2,0,1582558858.580463,1582558685.643339,11,0.6387488,0,0,10.91,0,0,1582558765.788069,105945.90585,0,3.54599,99.32232
1582558858.743687,64,0,1582558857.102366,41.20642880008847,29.07275954994053,180.2304,0.07688275,320.8804567165018,3,8.001208273680877,-9999,105948.575289375,0.9747467041015625,0.0472259521484375,-0.12847900390625,105948.569277375,-2.547595009995255,1.446558605959956,-0.05468093514258821,0.01336501911282539,-0.01151399500668049,-0.01272340677678585,-0.01126933097839355,-0.004663139581680298,-0.001131772994995117,2,0.626636462095909,0.2132138961957296,-0.7218465364021965,0.2020004822858505,0.9908093214035034,0.05465368926525116,-0.1237331554293633,34.29842376708984,-11.15454864501953,8.72900390625,2,105948.408388375,2,0,1582558858.580463,1582558685.643339,11,0.6387488,0,0,10.91,0,0,1582558765.788069,105945.90585,0,3.54599,99.32232
1582558858.754359,65,0,1582558857.102366,41.20642880008847,29.07275954994053,180.2304,0.07688275,320.8804567165018,3,8.001208273680877,-9999,105948.585329375,0.9650421142578125,0.046905517578125,-0.134063720703125,105948.579317375,-2.547710352635441,1.446467656774063,-0.05497047396395912,0.006197587586939335,-0.009576182812452316,-0.03279254585504532,-0.0183834433555603,-0.009087428450584412,-0.005956947803497314,2,0.6265816746873484,0.2132715469921082,-0.7219118675213129,0.2018760986496742,0.9907823204994202,0.05494279414415359,-0.1238213032484055,34.29842376708984,-11.15454864501953,8.72900390625,2,105948.408388375,2,0,1582558858.580463,1582558685.643339,11,0.6387488,0,0,10.91,0,0,1582558765.788069,105945.90585,0,3.54599,99.32232
1582558858.763756,66,0,1582558857.102366,41.20642880008847,29.07275954994053,180.2304,0.07688275,320.8804567165018,3,8.001208273680877,-9999,105948.595370375,0.959442138671875,0.0601654052734375,-0.1359100341796875,105948.589358375,-2.547629329566689,1.446572065130492,-0.05524033407831259,0.008220525458455086,0.01093628257513046,-0.02827156707644463,-0.02773517370223999,-0.005725353956222534,-0.01129603385925293,2,0.6265787895671078,0.2134034167844717,-0.7218943706305413,0.20180798537164,0.9907804131507874,0.05521224439144135,-0.1237160041928291,34.22782135009766,-10.90798187255859,8.84375,2,105948.408388375,2,0,1582558858.580463,1582558685.643339,11,0.6387488,0,0,10.91,0,0,1582558765.788069,105945.90585,0,3.54599,99.32232
1582558858.776549,67,0,1582558857.102366,41.20642880008847,29.07275954994053,180.2304,0.07688275,320.8804567165018,3,8.001208273680877,-9999,105948.605410375,0.9642181396484375,0.0574188232421875,-0.129302978515625,105948.599398375,-2.547780292047937,1.446803505513182,-0.05545207487773711,0.01322883367538452,0.02620981261134148,-0.02372716553509235,-0.03115487098693848,0.00524786114692688,-0.01204556226730347,2,0.6266533624983772,0.2134547651216149,-0.7218555226491891,0.2016612026055828,0.9907974600791931,0.05542366206645966,-0.1234852522611618,34.22782135009766,-10.90798187255859,8.84375,2,105948.408388375,2,0,1582558858.580463,1582558685.643339,11,0.6387488,0,0,10.91,0,0,1582558765.788069,105945.90585,0,3.54599,99.32232
1582558858.78384,68,0,1582558857.102366,41.20642880008847,29.07275954994053,180.2304,0.07688275,320.8804567165018,3,8.001208273680877,-9999,105948.615450375,0.958953857421875,0.0584564208984375,-0.1307220458984375,105948.609438375,-2.547691229352897,1.447025058065232,-0.05559267796703318,0.007730470970273018,0.02107444033026695,-0.01506124064326286,-0.02685630321502686,0.001201212406158447,-0.005384385585784912,2,0.626707159995432,0.2135550139485853,-0.7217893920863663,0.2016248228971311,0.990817129611969,0.05556404590606689,-0.1232647821307182,34.29177093505859,-10.96554946899414,8.775665283203125,2,105948.408388375,2,0,1582558858.580463,1582558685.643339,11,0.6387488,0,0,10.91,0,0,1582558765.788069,105945.90585,0,3.54599,99.32232
1582558858.793959,69,0,1582558857.102366,41.20642880008847,29.07275954994053,180.2304,0.07688275,320.8804567165018,3,8.001208273680877,-9999,105948.625491375,0.9558868408203125,0.06024169921875,-0.1332855224609375,105948.619479375,-2.547875514504833,1.447432095558951,-0.05565693232269865,0.01814358867704868,0.0416242778301239,-0.008662340231239796,-0.03344887495040894,0.003669992089271545,-0.009252071380615234,2,0.6268661291211213,0.2135611044470617,-0.7216859135864436,0.2014942806145998,0.9908636212348938,0.05562820285558701,-0.1228610202670097,34.29177093505859,-10.96554946899414,8.775665283203125,2,105948.408388375,2,0,1582558858.580463,1582558685.643339,11,0.6387488,0,0,10.91,0,0,1582558765.788069,105945.90585,0,3.54599,99.32232
1582558858.804072,70,0,1582558857.102366,41.20642880008847,29.07275954994053,180.2304,0.07688275,320.8804567165018,3,8.001208273680877,-9999,105948.635531375,0.9554901123046875,0.05816650390625,-0.1327667236328125,105948.629519375,-2.547916277687513,1.448110719763613,-0.05566610628171565,0.02472612261772156,0.06988148391246796,-0.00432378426194191,-0.0356525182723999,0.004164367914199829,-0.01106905937194824,2,0.6271142279932668,0.2136199568898534,-0.7214781344940421,0.2014042122367772,0.990946352481842,0.05563736334443092,-0.1221885159611702,34.34050750732422,-11.05918502807617,8.52276611328125,2,105948.408388375,2,0,1582558858.580463,1582558685.643339,11,0.6387488,0,0,10.91,0,0,1582558765.788069,105945.90585,0,3.54599,99.32232
1582558858.814086,71,0,1582558857.102366,41.20642880008847,29.07275954994053,180.2304,0.07688275,320.8804567165018,3,8.001208273680877,-9999,105948.645571375,0.9631805419921875,0.05511474609375,-0.1286468505859375,105948.639559375,-2.54826363655524,1.449010602865018,-0.05565381513462286,0.03527974709868431,0.09251716732978821,-0.004421554505825043,-0.03509151935577393,0.00226929783821106,-0.01154917478561401,2,0.627477354284787,0.2135972029441736,-0.7212297440030648,0.2011867205683817,0.991056501865387,0.05562508851289749,-0.1212968081235886,34.34050750732422,-11.05918502807617,8.52276611328125,2,105948.408388375,2,0,1582558858.580463,1582558685.643339,11,0.6387488,0,0,10.91,0,0,1582558765.788069,105945.90585,0,3.54599,99.32232
1582558858.824159,72,0,1582558857.102366,41.20642880008847,29.07275954994053,180.2304,0.07688275,320.8804567165018,3,8.001208273680877,-9999,105948.655611375,0.9734344482421875,0.0526885986328125,-0.1176910400390625,105948.649599375,-2.548416909178089,1.449894555845446,-0.05563904042391939,0.03683103993535042,0.09143698960542679,-0.004862308036535978,-0.02583056688308716,-0.001683250069618225,-0.006596803665161133,2,0.6278141823675231,0.2136327383606006,-0.720966451208694,0.2010417601954902,0.9911641478538513,0.05561033636331558,-0.1204208135604858,34.22551727294922,-11.31285858154297,8.73126220703125,2,105948.408388375,2,0,1582558858.580463,1582558685.643339,11,0.6387488,0,0,10.91,0,0,1582558765.788069,105945.90585,0,3.54599,99.32232
1582558858.847281,73,0,1582558857.102366,41.20642880008847,29.07275954994053,180.2304,0.07688275,320.8804567165018,3,8.001208273680877,-9999,105948.665652375,0.984222412109375,0.053741455078125,-0.10943603515625,105948.659640375,-2.548812395794103,1.450560895209432,-0.05561466381485408,0.0394812598824501,0.07190831005573273,-0.002779469126835465,-0.01663476228713989,-0.002330273389816284,0.003820598125457764,2,0.6280994686571758,0.2135668664099686,-0.7207948907577166,0.200835875448398,0.9912455677986145,0.05558599904179573,-0.1197604984045029,34.22551727294922,-11.31285858154297,8.73126220703125,2,105948.408388375,2,0,1582558858.580463,1582558685.643339,11,0.6387488,0,0,10.91,0,0,1582558765.788069,105945.90585,0,3.54599,99.32232
1582558858.848647,74,0,1582558857.102366,41.20642880008847,29.07275954994053,180.2304,0.07688275,320.8804567165018,3,8.001208273680877,-9999,105948.675692375,1.006622314453125,0.0481719970703125,-0.0975799560546875,105948.669680375,-2.548993932435694,1.450658576717048,-0.05562577296998559,0.04063227772712708,0.01357602700591087,-0.005344625562429428,-0.003431558609008789,-0.002265095710754395,0.0122075080871582,2,0.6281527612202825,0.2135235751447683,-0.7207832977646126,0.200756390727977,0.9912564754486084,0.05559708923101425,-0.1196635812520981,34.20479583740234,-11.06956100463867,8.714263916015625,2,105948.408388375,2,0,1582558858.580463,1582558685.643339,11,0.6387488,0,0,10.91,0,0,1582558765.788069,105945.90585,0,3.54599,99.32232
1582558858.854343,75,0,1582558857.102366,41.20642880008847,29.07275954994053,180.2304,0.07688275,320.8804567165018,3,8.001208273680877,-9999,105948.685732375,1.008071899414062,0.0471343994140625,-0.096710205078125,105948.679720375,-2.549365977286023,1.449989958590572,-0.05573320291737466,0.03446546196937561,-0.0639837458729744,-0.01441774889826775,0.01792550086975098,-0.008521676063537598,0.02400869131088257,2,0.6279387789902787,0.2133777967157002,-0.7210399420972904,0.20065926997685,0.991170346736908,0.05570435523986816,-0.1203256100416183,34.20479583740234,-11.06956100463867,8.714263916015625,2,105948.408388375,2,0,1582558858.580463,1582558685.643339,11,0.6387488,0,0,10.91,0,0,1582558765.788069,105945.90585,0,3.54599,99.32232
1582558858.86482,76,0,1582558857.102366,41.20642880008847,29.07275954994053,180.2304,0.07688275,320.8804567165018,3,8.001208273680877,-9999,105948.695803375,0.99609375,0.05401611328125,-0.0986480712890625,105948.689761375,-2.54960247050811,1.448639841352415,-0.05595300407616911,0.04059259593486786,-0.1335513740777969,-0.02710504829883575,0.01491206884384155,-0.007886707782745361,0.02412509918212891,2,0.6274511553944947,0.2132462070600183,-0.7215064646758121,0.2006476670076456,0.9909948110580444,0.05592381209135056,-0.1216622069478035,34.35157012939453,-10.77182388305664,8.64898681640625,2,105948.408388375,2,0,1582558858.580463,1582558685.643339,11,0.6387488,0,0,10.91,0,0,1582558765.788069,105945.90585,0,3.54599,99.32232
1582558858.874291,77,0,1582558857.102366,41.20642880008847,29.07275954994053,180.2304,0.07688275,320.8804567165018,3,8.001208273680877,-9999,105948.705843375,0.96685791015625,0.0585479736328125,-0.1078338623046875,105948.699801375,-2.550227476517277,1.446788119026284,-0.05628372747517817,0.0583823174238205,-0.1822211444377899,-0.03883856907486916,0.0006462335586547852,-0.0008469521999359131,0.02437090873718262,2,0.6268103826228426,0.2129820891767587,-0.7221783687384422,0.2005136694662567,0.9907494187355042,0.05625401437282562,-0.1234947443008423,34.35157012939453,-10.77182388305664,8.64898681640625,2,105948.408388375,2,0,1582558858.580463,1582558685.643339,11,0.6387488,0,0,10.91,0,0,1582558765.788069,105945.90585,0,3.54599,99.32232
1582558858.887212,78,0,1582558857.102366,41.20642880008847,29.07275954994053,180.2304,0.07688275,320.8804567165018,3,8.001208273680877,-9999,105948.715884375,0.9061279296875,0.0583953857421875,-0.171142578125,105948.709841375,-2.550985189812617,1.445163347260371,-0.05677307716700245,0.08627599477767944,-0.1864427924156189,-0.05717922747135162,-0.03214430809020996,0.002662181854248047,0.01204633712768555,2,0.6262462872948524,0.2127560743036066,-0.7228055405675511,0.2002566401817117,0.990520179271698,0.0567425824701786,-0.1251008808612823,34.26732635498047,-10.81942367553711,8.51995849609375,2,105948.408388375,2,0,1582558858.580463,1582558685.643339,11,0.6387488,0,0,10.91,0,0,1582558765.788069,105945.90585,0,3.54599,99.32232
1582558858.916264,79,0,1582558857.102366,41.20642880008847,29.07275954994053,180.2304,0.07688275,320.8804567165018,3,8.001208273680877,-9999,105948.725924375,0.8982391357421875,0.01953125,-0.2476806640625,105948.719881375,-2.552130789361053,1.446662879685182,-0.0575887518933494,0.1020770221948624,0.1968566477298737,-0.09438230842351913,-0.09945368766784668,-0.006178483366966248,-0.0757032036781311,2,0.626813749399717,0.2128372641623622,-0.7225202757328558,0.1994225178420597,0.9906603693962097,0.05755692347884178,-0.123609647154808,34.26732635498047,-10.81942367553711,8.51995849609375,2,105948.408388375,2,0,1582558858.580463,1582558685.643339,11,0.6387488,0,0,10.91,0,0,1582558765.788069,105945.90585,0,3.54599,99.32232
1582558858.917507,80,0,1582558857.102366,41.20642880008847,29.07275954994053,180.2304,0.07688275,320.8804567165018,3,8.001208273680877,-9999,105948.735964375,1.02862548828125,0.0446014404296875,-0.0928497314453125,105948.729922375,-2.552709640014495,1.44854832174851,-0.0585963697778413,0.06337489932775497,0.1937018781900406,-0.1113106906414032,-0.06801080703735352,-0.04005208611488342,-0.1033052206039429,2,0.6274375055935016,0.2132016697239937,-0.7220729615583322,0.1986902890620998,0.9908335208892822,0.05856284499168396,-0.1217344477772713,34.32224273681641,-10.8489990234375,8.612823486328125,2,105948.408388375,2,0,1582558858.580463,1582558685.643339,11,0.6387488,0,0,10.91,0,0,1582558765.788069,105945.90585,0,3.54599,99.32232
1582558858.91859,81,0,1582558857.102366,41.20642880008847,29.07275954994053,180.2304,0.07688275,320.8804567165018,3,8.001208273680877,-9999,105948.746004375,0.9954986572265625,0.0709228515625,-0.0983123779296875,105948.739962375,-2.553215676742973,1.448967200878984,-0.05941096952385232,0.03749599307775497,0.03664793819189072,-0.08568119257688522,0.04561817646026611,-0.006212770938873291,0.04425346851348877,2,0.6275466379947778,0.213373939439731,-0.7220613834538429,0.1982021121433482,0.9908367395401001,0.05937602370977402,-0.1213135570287704,34.32224273681641,-10.8489990234375,8.612823486328125,2,105948.408388375,2,0,1582558858.580463,1582558685.643339,11,0.6387488,0,0,10.91,0,0,1582558765.788069,105945.90585,0,3.54599,99.32232
1582558858.924776,82,0,1582558857.102366,41.20642880008847,29.07275954994053,180.2304,0.07688275,320.8804567165018,3,8.001208273680877,-9999,105948.756045375,0.9370269775390625,0.06427001953125,-0.1506805419921875,105948.750002375,-2.553462124339085,1.449253941829434,-0.06006801769619716,0.03771756961941719,0.02036324329674244,-0.07043379545211792,-0.01107972860336304,0.01104503870010376,0.009494662284851074,2,0.6275989424006171,0.2135584654666488,-0.7220519636411873,0.1978721602788254,0.9908326268196106,0.06003190204501152,-0.1210246980190277,34.39269256591797,-10.71133804321289,8.878814697265625,2,105948.408388375,2,0,1582558858.580463,1582558685.643339,11,0.6387488,0,0,10.91,0,0,1582558765.788069,105945.90585,0,3.54599,99.32232
1582558858.934571,83,0,1582558857.102366,41.20642880008847,29.07275954994053,180.2304,0.07688275,320.8804567165018,3,8.001208273680877,-9999,105948.766085375,0.939605712890625,0.0620574951171875,-0.1555938720703125,105948.760043375,-2.553887856720392,1.450426963008669,-0.06063407018825472,0.03572661057114601,0.1257386654615402,-0.06207193061709404,-0.05905389785766602,0.0021943598985672,-0.0367007851600647,2,0.6280010648348231,0.2137417693565356,-0.7217739919287989,0.1974117485762594,0.9909399151802063,0.06059692427515984,-0.1198582351207733,34.39269256591797,-10.71133804321289,8.878814697265625,2,105948.408388375,2,0,1582558858.580463,1582558685.643339,11,0.6387488,0,0,10.91,0,0,1582558765.788069,105945.90585,0,3.54599,99.32232
1582558858.94575,84,0,1582558857.102366,41.20642880008847,29.07275954994053,180.2304,0.07688275,320.8804567165018,3,8.001208273680877,-9999,105948.776125375,0.990966796875,0.063812255859375,-0.110015869140625,105948.770083375,-2.553988633206551,1.451632405010217,-0.06104096482371595,0.02438820153474808,0.1278303116559982,-0.04534647986292839,-0.04298341274261475,0.001742333173751831,-0.0301012396812439,2,0.6283987802807406,0.2139734347110165,-0.7214399237857941,0.197115986839903,0.9910591244697571,0.06100306659936905,-0.118660680949688,34.39591217041016,-10.43857192993164,8.6988525390625,2,105948.408388375,2,0,1582558858.580463,1582558685.643339,11,0.6387488,0,0,10.91,0,0,1582558765.788069,105945.90585,0,3.54599,99.32232
1582558858.971078,85,0,1582558857.102366,41.20642880008847,29.07275954994053,180.2304,0.07688275,320.8804567165018,3,8.001208273680877,-9999,105948.786166375,1.003036499023438,0.06317138671875,-0.0988311767578125,105948.780123375,-2.554199411655775,1.451989568547922,-0.06127511532819269,0.01638366095721722,0.03103483654558659,-0.02432513795793056,0.007632553577423096,0.002637714147567749,0.0153958797454834,2,0.6285225407843832,0.2140254810993437,-0.7213684321030279,0.196926647178973,0.9910872578620911,0.06123677641153336,-0.1183050200343132,34.39591217041016,-10.43857192993164,8.6988525390625,2,105948.408388375,2,0,1582558858.580463,1582558685.643339,11,0.6387488,0,0,10.91,0,0,1582558765.788069,105945.90585,0,3.54599,99.32232
1582558858.972934,86,0,1582558857.102366,41.20642880008847,29.07275954994053,180.2304,0.07688275,320.8804567165018,3,8.001208273680877,-9999,105948.796206375,0.975311279296875,0.05657958984375,-0.1280975341796875,105948.790163375,-2.554208743570085,1.452046099616836,-0.06151363708174111,0.01850380375981331,0.003600282594561577,-0.02556989900767803,0.007045209407806396,0.001011073589324951,0.01460570096969604,2,0.6285157924151303,0.2141127452637473,-0.7213719036636327,0.1968407076815268,0.9910794496536255,0.06147485226392746,-0.1182472631335258,34.47579193115234,-10.46606063842773,8.746185302734375,2,105948.408388375,2,0,1582558858.580463,1582558685.643339,11,0.6387488,0,0,10.91,0,0,1582558765.788069,105945.90585,0,3.54599,99.32232
1582558858.975255,87,0,1582558857.102366,41.20642880008847,29.07275954994053,180.2304,0.07688275,320.8804567165018,3,8.001208273680877,-9999,105948.806246375,0.95562744140625,0.0587310791015625,-0.140655517578125,105948.800234375,-2.554426834870167,1.452364145365945,-0.06180574109900835,0.01696578040719032,0.03593168407678604,-0.03109506703913212,-0.02076083421707153,-0.005963876843452454,-0.01462721824645996,2,0.6286193863580449,0.2141791316354876,-0.7213183065424141,0.1966342932969036,0.9910992383956909,0.06176640093326569,-0.1179299354553223,34.47579193115234,-10.46606063842773,8.746185302734375,2,105948.408388375,2,0,1582558858.580463,1582558685.643339,11,0.6387488,0,0,10.91,0,0,1582558765.788069,105945.90585,0,3.54599,99.32232
1582558858.984786,88,0,1582558857.102366,41.20642880008847,29.07275954994053,180.2304,0.07688275,320.8804567165018,3,8.001208273680877,-9999,105948.816286375,0.9466705322265625,0.0579376220703125,-0.14947509765625,105948.810274375,-2.554449846234753,1.453339508611538,-0.06213547179649055,0.01776392944157124,0.1040268391370773,-0.037284255027771,-0.03931814432144165,-0.002371564507484436,-0.02565205097198486,2,0.6289346748599409,0.2143846535287594,-0.7210418692266337,0.1964155700655705,0.991193413734436,0.06209549680352211,-0.1169607937335968,34.33336639404297,-10.60858917236328,8.897064208984375,2,105948.408388375,2,0,1582558858.580463,1582558685.643339,11,0.6387488,0,0,10.91,0,0,1582558765.788069,105945.90585,0,3.54599,99.32232
1582558858.994818,89,0,1582558857.102366,41.20642880008847,29.07275954994053,180.2304,0.07688275,320.8804567165018,3,8.001208273680877,-9999,105948.826327375,0.97412109375,0.0495758056640625,-0.13189697265625,105948.820315375,-2.554672359887512,1.455042864638131,-0.06263612428458799,0.01631149090826511,0.1779206842184067,-0.05237381532788277,-0.04278081655502319,-0.006609752774238586,-0.03445512056350708,2,0.6295133872526325,0.2146591834351469,-0.72057033243135,0.1959917831492633,0.9913601875305176,0.0625951737165451,-0.115268662571907,34.33336639404297,-10.60858917236328,8.897064208984375,2,105948.408388375,2,0,1582558858.580463,1582558685.643339,11,0.6387488,0,0,10.91,0,0,1582558765.788069,105945.90585,0,3.54599,99.32232
1582558859.006812,90,0,1582558857.102366,41.20642880008847,29.07275954994053,180.2304,0.07688275,320.8804567165018,3,8.001208273680877,-9999,105948.836367375,0.9976959228515625,0.052734375,-0.1059112548828125,105948.830355375,-2.554659356172976,1.456515021033885,-0.06332126014708998,0.01208105869591236,0.1450210511684418,-0.06834745407104492,-0.009962916374206543,-0.013580322265625,-0.01060569286346436,2,0.6299614237276283,0.2150500273565737,-0.7201637037783,0.1956179265762161,0.9914860129356384,0.06327895075082779,-0.1138041839003563,34.41004180908203,-10.45766830444336,8.895843505859375,2,105948.408388375,2,0,1582558858.580463,1582558685.643339,11,0.6387488,0,0,10.91,0,0,1582558765.788069,105945.90585,0,3.54599,99.32232
1582558859.032548,91,0,1582558857.102366,41.20642880008847,29.07275954994053,180.2304,0.07688275,320.8804567165018,3,8.001208273680877,-9999,105948.846407375,0.9999542236328125,0.0471649169921875,-0.1093292236328125,105948.840395375,-2.554834124432594,1.457652408738476,-0.06421448462427419,0.007468277588486671,0.1212272346019745,-0.09017031639814377,0.006246209144592285,-0.01143538951873779,0.006219625473022461,2,0.6302843068534821,0.2154221594966295,-0.7198981856799217,0.1951450151635286,0.9915581941604614,0.06417036056518555,-0.112669974565506,34.41004180908203,-10.45766830444336,8.895843505859375,2,105948.408388375,2,0,1582558858.580463,1582558685.643339,11,0.6387488,0,0,10.91,0,0,1582558765.788069,105945.90585,0,3.54599,99.32232
1582558859.033958,92,0,1582558857.102366,41.20642880008847,29.07275954994053,180.2304,0.07688275,320.8804567165018,3,8.001208273680877,-9999,105948.856448375,0.9994659423828125,0.0522308349609375,-0.103607177734375,105948.850436375,-2.554775152173037,1.45836976776932,-0.06530913130317247,0.002652216935530305,0.07446958124637604,-0.1114130169153214,0.009333670139312744,-0.01890614628791809,0.003562510013580322,2,0.6304068317517505,0.2158978358022559,-0.7197591425246638,0.1947362843754355,0.9915684461593628,0.06526271253824234,-0.1119507029652596,34.43726348876953,-10.54426956176758,9.043121337890625,2,105948.408388375,2,0,1582558858.580463,1582558685.643339,11,0.6387488,0,0,10.91,0,0,1582558765.788069,105945.90585,0,3.54599,99.32232
1582558859.035062,93,0,1582558857.102366,41.20642880008847,29.07275954994053,180.2304,0.07688275,320.8804567165018,3,8.001208273680877,-9999,105948.866488375,0.9828338623046875,0.0608367919921875,-0.111236572265625,105948.860476375,-2.554878278473754,1.458744606459825,-0.06646025980117222,-0.003068090649321675,0.0334090068936348,-0.1138266399502754,0.005277931690216064,-0.01166273653507233,0.007912516593933105,2,0.6304167476890888,0.2163087177190857,-0.719748241562568,0.1942875837067637,0.9915348887443542,0.0664113461971283,-0.1115705221891403,34.43726348876953,-10.54426956176758,9.043121337890625,2,105948.408388375,2,0,1582558858.580463,1582558685.643339,11,0.6387488,0,0,10.91,0,0,1582558765.788069,105945.90585,0,3.54599,99.32232
1582558859.045038,94,0,1582558857.102366,41.20642880008847,29.07275954994053,180.2304,0.07688275,320.8804567165018,3,8.001208273680877,-9999,105948.876528375,0.982879638671875,0.0629425048828125,-0.1147613525390625,105948.870516375,-2.554720416596936,1.459038210833278,-0.06761124549579128,-0.008004259318113327,0.03493020683526993,-0.1153971031308174,-0.0122562050819397,-0.006082266569137573,-0.003129184246063232,2,0.6303689785241824,0.216793773566991,-0.7197375835584917,0.1939415772021632,0.9914911389350891,0.06755974888801575,-0.1112708225846291,34.45446014404297,-10.42781448364258,9.033660888671875,2,105948.408388375,2,0,1582558858.580463,1582558685.643339,11,0.6387488,0,0,10.91,0,0,1582558765.788069,105945.90585,0,3.54599,99.32232
1582558859.055258,95,0,1582558857.102366,41.20642880008847,29.07275954994053,180.2304,0.07688275,320.8804567165018,3,8.001208273680877,-9999,105948.886568375,1.005661010742188,0.0644073486328125,-0.09014892578125,105948.880556375,-2.554724449350001,1.458792784662385,-0.06868502504947205,-0.01050069741904736,-0.0214198175817728,-0.1075592488050461,-0.003931522369384766,-0.005475312471389771,0.0007833242416381836,2,0.6301537269372856,0.217148103474129,-0.7199055741209424,0.1936203953917915,0.9913909435272217,0.06863103061914444,-0.111505962908268,34.45446014404297,-10.42781448364258,9.033660888671875,2,105948.408388375,2,0,1582558858.580463,1582558685.643339,11,0.6387488,0,0,10.91,0,0,1582558765.788069,105945.90585,0,3.54599,99.32232
1582558859.066429,96,0,1582558857.102366,41.20642880008847,29.07275954994053,180.2304,0.07688275,320.8804567165018,3,8.001208273680877,-9999,105948.896609375,1.00482177734375,0.0639801025390625,-0.094512939453125,105948.890597375,-2.554458761605541,1.457748921407918,-0.06968449794428512,-0.01710533909499645,-0.1050236374139786,-0.09733404219150543,0.01598381996154785,-0.004885688424110413,0.02469897270202637,2,0.629630225115938,0.2174839756396239,-0.7202926388419362,0.1935073073432475,0.9912055134773254,0.06962811201810837,-0.1125330030918121,34.56609344482422,-10.23528671264648,9.099822998046875,2,105948.408388375,2,0,1582558858.580463,1582558685.643339,11,0.6387488,0,0,10.91,0,0,1582558765.788069,105945.90585,0,3.54599,99.32232
1582558859.090514,97,0,1582558857.102366,41.20642880008847,29.07275954994053,180.2304,0.07688275,320.8804567165018,3,8.001208273680877,-9999,105948.906649375,0.9992828369140625,0.06243896484375,-0.10272216796875,105948.900637375,-2.55431706374638,1.4561142435556,-0.07064635414503544,-0.02522090263664722,-0.1618032306432724,-0.09513881057500839,0.0121314525604248,-0.007218703627586365,0.01648485660552979,2,0.6289113254058029,0.2177104460099878,-0.7208736830809138,0.1934262020622977,0.9909530282020569,0.07058760523796082,-0.1141454130411148,34.56609344482422,-10.23528671264648,9.099822998046875,2,105948.408388375,2,0,1582558858.580463,1582558685.643339,11,0.6387488,0,0,10.91,0,0,1582558765.788069,105945.90585,0,3.54599,99.32232
1582558859.091611,98,0,1582558857.102366,41.20642880008847,29.07275954994053,180.2304,0.07688275,320.8804567165018,3,8.001208273680877,-9999,105948.916689375,0.9851226806640625,0.0685272216796875,-0.1170196533203125,105948.910677375,-2.553891065741892,1.454157314341288,-0.07152977764474855,-0.03269745782017708,-0.1994145214557648,-0.08675038814544678,0.007200419902801514,-0.007962808012962341,0.0118250846862793,2,0.6280538169159613,0.2179675302626092,-0.7215212146127032,0.1935085749775247,0.9906654953956604,0.07146879285573959,-0.1160771176218987,34.58762359619141,-10.09128570556641,9.111572265625,2,105948.408388375,2,0,1582558858.580463,1582558685.643339,11,0.6387488,0,0,10.91,0,0,1582558765.788069,105945.90585,0,3.54599,99.32232
1582558859.095201,99,0,1582558857.102366,41.20642880008847,29.07275954994053,180.2304,0.07688275,320.8804567165018,3,8.001208273680877,-9999,105948.926730375,0.9758148193359375,0.07501220703125,-0.123016357421875,105948.920718375,-2.553588686697807,1.452150925740987,-0.07233999751477813,-0.04066722095012665,-0.2026377320289612,-0.0773959681391716,-0.008788049221038818,-0.002453967928886414,-0.002337813377380371,2,0.6271997501517964,0.2181550942664341,-0.722189119978637,0.1935759305195732,0.9903728365898132,0.07227692008018494,-0.1180576533079147,34.58762359619141,-10.09128570556641,9.111572265625,2,105948.408388375,2,0,1582558858.580463,1582558685.643339,11,0.6387488,0,0,10.91,0,0,1582558765.788069,105945.90585,0,3.54599,99.32232
1582558859.105471,100,0,1582558857.102366,41.20642880008847,29.07275954994053,180.2304,0.07688275,320.8804567165018,3,8.001208273680877,-9999,105948.936770375,0.95654296875,0.08270263671875,-0.1316986083984375,105948.930758375,-2.553082540348243,1.450192855412485,-0.07305745774539221,-0.03960755094885826,-0.2010811120271683,-0.06841153651475906,-0.0167887806892395,0.00358995795249939,-0.003303706645965576,2,0.6263511140510019,0.2183783063236555,-0.72281346631365,0.1937420322044249,0.990088164806366,0.07299248874187469,-0.1199903935194016,34.60434722900391,-9.962615966796875,8.896240234375,2,105948.408388375,2,0,1582558858.580463,1582558685.643339,11,0.6387488,0,0,10.91,0,0,1582558765.788069,105945.90585,0,3.54599,99.32232
1582558859.115397,101,0,1582558857.102366,41.20642880008847,29.07275954994053,180.2304,0.07688275,320.8804567165018,3,8.001208273680877,-9999,105948.946810375,0.95184326171875,0.0796051025390625,-0.13519287109375,105948.940798375,-2.5527939460762,1.448525795144442,-0.0736581828712722,-0.03527302294969559,-0.1674567461013794,-0.05723328143358231,-0.03734135627746582,0.009216278791427612,-0.01307201385498047,2,0.6256447030724638,0.2185200491665482,-0.7233570846660901,0.1938356187131582,0.9898430109024048,0.07359159737825394,-0.1216353848576546,34.60434722900391,-9.962615966796875,8.896240234375,2,105948.408388375,2,0,1582558858.580463,1582558685.643339,11,0.6387488,0,0,10.91,0,0,1582558765.788069,105945.90585,0,3.54599,99.32232
1582558859.126568,102,0,1582558857.102366,41.20642880008847,29.07275954994053,180.2304,0.07688275,320.8804567165018,3,8.001208273680877,-9999,105948.956881375,0.977630615234375,0.082366943359375,-0.1143646240234375,105948.950838375,-2.552307887356804,1.446834451794473,-0.07416972934571665,-0.03582802414894104,-0.1680098921060562,-0.04753458499908447,-0.03406012058258057,0.005471140146255493,-0.008823513984680176,2,0.6249180458124414,0.2186894619264245,-0.7238811222320436,0.1940323238665065,0.9895983934402466,0.07410174608230591,-0.1233047097921371,34.70688629150391,-10.02500534057617,8.650238037109375,2,105948.408388375,2,0,1582558858.580463,1582558685.643339,11,0.6387488,0,0,10.91,0,0,1582558765.788069,105945.90585,0,3.54599,99.32232
1582558859.152557,103,0,1582558857.102366,41.20642880008847,29.07275954994053,180.2304,0.07688275,320.8804567165018,3,8.001208273680877,-9999,105948.966921375,0.9939117431640625,0.0792083740234375,-0.1113128662109375,105948.960879375,-2.552096907923002,1.444776145308538,-0.07467291707479176,-0.02686815708875656,-0.2072745859622955,-0.04754483699798584,-0.006789624691009521,0.007944688200950623,0.01339602470397949,2,0.6240889788369212,0.2187341637552038,-0.7245448497543285,0.1941725395032196,0.9893052577972412,0.07460354268550873,-0.125336617231369,34.70688629150391,-10.02500534057617,8.650238037109375,2,105948.408388375,2,0,1582558858.580463,1582558685.643339,11,0.6387488,0,0,10.91,0,0,1582558765.788069,105945.90585,0,3.54599,99.32232
1582558859.154135,104,0,1582558857.102366,41.20642880008847,29.07275954994053,180.2304,0.07688275,320.8804567165018,3,8.001208273680877,-9999,105948.976961375,0.986083984375,0.0759124755859375,-0.1253814697265625,105948.970919375,-2.551745557820344,1.442387338002826,-0.07522960149025172,-0.0221791286021471,-0.2468707263469696,-0.0517483688890934,0.004219889640808105,0.003269568085670471,0.01459449529647827,2,0.6231174265583944,0.2188094517160149,-0.7253015064283257,0.1943830955782607,0.9889617562294006,0.07515866309404373,-0.1276941895484924,34.72177886962891,-9.840038299560547,8.544189453125,2,105948.408388375,2,0,1582558858.580463,1582558685.643339,11,0.6387488,0,0,10.91,0,0,1582558765.788069,105945.90585,0,3.54599,99.32232
1582558859.156165,105,0,1582558857.102366,41.20642880008847,29.07275954994053,180.2304,0.07688275,320.8804567165018,3,8.001208273680877,-9999,105948.987002375,0.9812469482421875,0.072052001953125,-0.13427734375,105948.980959375,-2.551619053711747,1.43993894566285,-0.07588996436380029,-0.02021230384707451,-0.2462368309497833,-0.06462845206260681,-0.004631459712982178,-0.0007764995098114014,0.001445651054382324,2,0.6221352176230809,0.2188456667165624,-0.7261058552892079,0.1944859358272048,0.9885968565940857,0.07581713795661926,-0.1301086843013763,34.72177886962891,-9.840038299560547,8.544189453125,2,105948.408388375,2,0,1582558858.580463,1582558685.643339,11,0.6387488,0,0,10.91,0,0,1582558765.788069,105945.90585,0,3.54599,99.32232
1582558859.16552,106,0,1582558857.102366,41.20642880008847,29.07275954994053,180.2304,0.07688275,320.8804567165018,3,8.001208273680877,-9999,105948.997042375,1.003509521484375,0.0708465576171875,-0.1400909423828125,105948.991000375,-2.551275101475181,1.437444535176417,-0.07672115783228199,-0.02531172335147858,-0.2529000639915466,-0.08062073588371277,-0.004851102828979492,-0.004794538021087646,-0.002993464469909668,2,0.6210906211542566,0.219005776865892,-0.7269158172496926,0.1946186301379284,0.9882063865661621,0.07664591819047928,-0.132565826177597,34.59012603759766,-9.839553833007812,8.467559814453125,2,105948.408388375,2,0,1582558858.580463,1582558685.643339,11,0.6387488,0,0,10.91,0,0,1582558765.788069,105945.90585,0,3.54599,99.32232
1582558859.175634,107,0,1582558858.102359,41.20642966503831,29.07276141325542,180.2267,0.09588102,319.326834567134,3,8.001208273680877,-9999,105949.007082375,1.040176391601562,0.0745086669921875,-0.124176025390625,105949.001040375,-2.551147710893563,1.434801649307333,-0.07790436970591226,-0.02912432514131069,-0.2609640955924988,-0.1131551936268806,0.02086198329925537,-0.007713988423347473,-0.004620730876922607,2,0.6199715919963766,0.2192096968926003,-0.7278200290958529,0.1945773216786253,0.9877619743347168,0.07782559096813202,-0.13516466319561,34.59012603759766,-9.839553833007812,8.467559814453125,2,105948.408388375,2,0,1582558858.580463,1582558685.643339,11,0.6387488,0,0,10.91,0,0,1582558765.788069,105945.90585,0,3.54599,99.32232
1582558859.185877,108,0,1582558858.102359,41.20642966503831,29.07276141325542,180.2267,0.09588102,319.326834567134,3,8.001208273680877,-9999,105949.017123375,1.102203369140625,0.081634521484375,-0.105712890625,105949.011080375,-2.550970529697465,1.431316302869357,-0.07970671660227326,-0.02292741648852825,-0.3460424840450287,-0.1777767986059189,0.06534862518310547,-0.002522662281990051,0.02027112245559692,2,0.618462859866893,0.2195684289490409,-0.7290283035868502,0.1944505232396021,0.9871442317962646,0.07962234318256378,-0.1385867893695831,34.69142913818359,-9.70965576171875,8.433837890625,2,105948.408388375,2,0,1582558858.580463,1582558685.643339,11,0.6387488,0,0,10.91,0,0,1582558765.788069,105945.90585,0,3.54599,99.32232
1582558859.202282,109,0,1582558858.102359,41.20642966503831,29.07276141325542,180.2267,0.09588102,319.326834567134,3,8.001208273680877,-9999,105949.027163375,1.049209594726562,0.076751708984375,-0.118072509765625,105949.021120375,-2.551127916114162,1.426718393714273,-0.08211572875124037,-0.02145188301801682,-0.4624470174312592,-0.2448369562625885,0.1197933554649353,-0.00242188572883606,0.03529506921768188,2,0.6165071440652435,0.2199337340280845,-0.7306576007635182,0.1941332193830622,0.9863041639328003,0.08202347904443741,-0.1430961936712265,34.69142913818359,-9.70965576171875,8.433837890625,2,105948.408388375,2,0,1582558858.580463,1582558685.643339,11,0.6387488,0,0,10.91,0,0,1582558765.788069,105945.90585,0,3.54599,99.32232
1582558859.205932,110,0,1582558858.102359,41.20642966503831,29.07276141325542,180.2267,0.09588102,319.326834567134,3,8.001208273680877,-9999,105949.037203375,0.945709228515625,0.092926025390625,-0.14111328125,105949.031161375,-2.551236411728486,1.421664502118511,-0.08456180057388396,-0.006838585715740919,-0.5073396563529968,-0.2465610802173615,0.03847062587738037,-0.004783704876899719,0.02730929851531982,2,0.6143695674833719,0.2202854149620503,-0.7324186166769453,0.1938745285636316,0.9853668808937073,0.08446105569601059,-0.1480487436056137,34.84352874755859,-9.597053527832031,8.195343017578125,2,105948.408388375,2,0,1582558858.580463,1582558685.643339,11,0.6387488,0,0,10.91,0,0,1582558765.788069,105945.90585,0,3.54599,99.32232
1582558859.215775,111,0,1582558858.102359,41.20642966503831,29.07276141325542,180.2267,0.09588102,319.326834567134,3,8.001208273680877,-9999,105949.047243375,0.8838653564453125,0.090423583984375,-0.17816162109375,105949.041201375,-2.551605678601408,1.417065782071253,-0.0867025760136455,0.005902574397623539,-0.4600779414176941,-0.2174059748649597,-0.05317103862762451,0.007456645369529724,0.003979980945587158,2,0.6124598250191037,0.2204941929089532,-0.7340342338939488,0.1935690915227734,0.984494686126709,0.08659398555755615,-0.1525505483150482,34.84352874755859,-9.597053527832031,8.195343017578125,2,105948.408388375,2,0,1582558858.580463,1582558685.643339,11,0.6387488,0,0,10.91,0,0,1582558765.788069,105945.90585,0,3.54599,99.32232
1582558859.226261,112,0,1582558858.102359,41.20642966503831,29.07276141325542,180.2267,0.09588102,319.326834567134,3,8.001208273680877,-9999,105949.057284375,0.8612518310546875,0.0833740234375,-0.193450927734375,105949.051272375,-2.551690416892431,1.413407651915948,-0.08831997737081405,0.003129424992948771,-0.3619260787963867,-0.162857785820961,-0.1084053516387939,0.0001382678747177124,-0.02825331687927246,2,0.61092493531993,0.2206951139762979,-0.7352882525698667,0.1934311694716223,0.9837904572486877,0.08820520341396332,-0.156128779053688,34.94680023193359,-9.346900939941406,7.83642578125,2,105948.408388375,2,0,1582558858.580463,1582558685.643339,11,0.6387488,0,0,10.91,0,0,1582558765.788069,105945.90585,0,3.54599,99.32232
1582558859.235825,113,0,1582558858.102359,41.20642966503831,29.07276141325542,180.2267,0.09588102,319.326834567134,3,8.001208273680877,-9999,105949.067324375,0.895172119140625,0.089080810546875,-0.179168701171875,105949.061312375,-2.551627759821083,1.410526558283212,-0.0894514934367263,-0.006883060559630394,-0.2836202383041382,-0.1134738177061081,-0.1193270087242126,-0.005993947386741638,-0.03356814384460449,2,0.6097174759984726,0.2208423788664617,-0.7362496644915737,0.1934158154245415,0.9832373857498169,0.08933225274085999,-0.1589464843273163,34.94048309326172,-9.148685455322266,7.645263671875,2,105948.408388375,2,0,1582558858.580463,1582558685.643339,11,0.6387488,0,0,10.91,0,0,1582558765.788069,105945.90585,0,3.54599,99.32232
1582558859.266641,114,0,1582558858.102359,41.20642966503831,29.07276141325542,180.2267,0.09588102,319.326834567134,3,8.001208273680877,-9999,105949.077364375,0.92022705078125,0.0948028564453125,-0.16754150390625,105949.071352375,-2.551746212317395,1.407995155046438,-0.09025282467625011,-0.0001314144465140998,-0.253664493560791,-0.08005353808403015,-0.0800321102142334,0.000821918249130249,-0.01403135061264038,2,0.6086983457134237,0.2208498924608954,-0.7370944804743048,0.1933996760468502,0.9827609658241272,0.09013034403324127,-0.1614232957363129,34.94048309326172,-9.148685455322266,7.645263671875,2,105948.408388375,2,0,1582558858.580463,1582558685.643339,11,0.6387488,0,0,10.91,0,0,1582558765.788069,105945.90585,0,3.54599,99.32232
1582558859.268048,115,0,1582558858.102359,41.20642966503831,29.07276141325542,180.2267,0.09588102,319.326834567134,3,8.001208273680877,-9999,105949.087405375,0.9315032958984375,0.0942230224609375,-0.171295166015625,105949.081393375,-2.551699423055264,1.405650336478513,-0.09083556199090549,0.004693434573709965,-0.2361099869012833,-0.05941856652498245,-0.05974733829498291,0.004559636116027832,-0.003679096698760986,2,0.6077558817653701,0.2208472314599186,-0.7378481111948992,0.1934927610513847,0.9823277592658997,0.09071069955825806,-0.163718581199646,35.08827972412109,-9.281715393066406,7.47088623046875,2,105948.408388375,2,0,1582558858.580463,1582558685.643339,11,0.6387488,0,0,10.91,0,0,1582558765.788069,105945.90585,0,3.54599,99.32232
1582558859.269159,116,0,1582558858.102359,41.20642966503831,29.07276141325542,180.2267,0.09588102,319.326834567134,3,8.001208273680877,-9999,105949.097445375,0.925262451171875,0.0872955322265625,-0.190399169921875,105949.091433375,-2.551836562801228,1.403681635098615,-0.09126331453367328,0.00732543645426631,-0.1998936533927917,-0.04452883452177048,-0.05058050155639648,0.001875236630439758,-0.00912177562713623,2,0.6069909986903351,0.2207693063302835,-0.7384921802208444,0.1935252207346815,0.9819650650024414,0.09113667905330658,-0.1656456887722015,35.08827972412109,-9.281715393066406,7.47088623046875,2,105948.408388375,2,0,1582558858.580463,1582558685.643339,11,0.6387488,0,0,10.91,0,0,1582558765.788069,105945.90585,0,3.54599,99.32232
1582558859.276032,117,0,1582558858.102359,41.20642966503831,29.07276141325542,180.2267,0.09588102,319.326834567134,3,8.001208273680877,-9999,105949.107485375,0.9184417724609375,0.0817718505859375,-0.199493408203125,105949.101473375,-2.551757290765019,1.402397697523419,-0.09159682398250663,0.00417321128770709,-0.1308656930923462,-0.03520968928933144,-0.05819535255432129,-0.005811676383018494,-0.02700042724609375,2,0.6064663116907625,0.2207894557987036,-0.7388998367169201,0.193591784083523,0.9817217588424683,0.09146879613399506,-0.1669012606143951,34.98726654052734,-9.265037536621094,7.48236083984375,2,105948.408388375,2,0,1582558858.580463,1582558685.643339,11,0.6387488,0,0,10.91,0,0,1582558765.788069,105945.90585,0,3.54599,99.32232
1582558859.285945,118,0,1582558858.102359,41.20642966503831,29.07276141325542,180.2267,0.09588102,319.326834567134,3,8.001208273680877,-9999,105949.117525375,0.9285888671875,0.0782012939453125,-0.2029876708984375,105949.111513375,-2.551817683989559,1.401912563764479,-0.09188940443017442,0.001885289559140801,-0.04728958010673523,-0.02925645932555199,-0.06409972906112671,-0.01077230274677277,-0.03312027454376221,2,0.6062571414296071,0.2208297685636027,-0.7390751894435058,0.1935312962750791,0.9816141724586487,0.09176014363765717,-0.1673729866743088,34.98726654052734,-9.265037536621094,7.48236083984375,2,105948.408388375,2,0,1582558858.580463,1582558685.643339,11,0.6387488,0,0,10.91,0,0,1582558765.788069,105945.90585,0,3.54599,99.32232
1582558859.296071,119,0,1582558858.102359,41.20642966503831,29.07276141325542,180.2267,0.09588102,319.326834567134,3,8.001208273680877,-9999,105949.127566375,0.97015380859375,0.0828857421875,-0.18084716796875,105949.121554375,-2.551638726803436,1.40187425637599,-0.09226211840956683,-0.006408542860299349,-4.391372203826904e-05,-0.03591117262840271,-0.04634404182434082,-0.0141952782869339,-0.03401929140090942,2,0.6061765682028947,0.2210148274502714,-0.7390981277232648,0.1934848873356125,0.9815739989280701,0.09213127940893173,-0.16740483045578,35.08348846435547,-9.042751312255859,7.535797119140625,2,105948.408388375,2,0,1582558858.580463,1582558685.643339,11,0.6387488,0,0,10.91,0,0,1582558765.788069,105945.90585,0,3.54599,99.32232
1582558859.306778,120,0,1582558858.102359,41.20642966503831,29.07276141325542,180.2267,0.09588102,319.326834567134,3,8.001208273680877,-9999,105949.137606375,0.9885101318359375,0.09906005859375,-0.15167236328125,105949.131594375,-2.551694986325383,1.401598532777899,-0.09272651410647806,-0.002848961856216192,-0.02293644659221172,-0.04635262861847878,-0.003698825836181641,-0.006830006837844849,-0.006427347660064697,2,0.6060227271537872,0.2211387193508789,-0.7392227581879934,0.1933490665320915,0.9814854860305786,0.09259369224309921,-0.1676682382822037,35.08348846435547,-9.042751312255859,7.535797119140625,2,105948.408388375,2,0,1582558858.580463,1582558685.643339,11,0.6387488,0,0,10.91,0,0,1582558765.788069,105945.90585,0,3.54599,99.32232
1582558859.329081,121,0,1582558858.102359,41.20642966503831,29.07276141325542,180.2267,0.09588102,319.326834567134,3,8.001208273680877,-9999,105949.147646375,0.9410247802734375,0.09771728515625,-0.1652984619140625,105949.141634375,-2.551689486338264,1.400957860464704,-0.09316087975118846,0.01072585768997669,-0.06448803842067719,-0.04790150001645088,0.002475857734680176,0.00759945809841156,0.01810538768768311,2,0.6057308504740312,0.2212352478991041,-0.7394495879486072,0.1932858825223616,0.9813381433486938,0.09302618354558945,-0.1682901978492737,35.24047088623047,-9.074020385742188,7.4957275390625,2,105948.408388375,2,0,1582558858.580463,1582558685.643339,11,0.6387488,0,0,10.91,0,0,1582558765.788069,105945.90585,0,3.54599,99.32232
1582558859.330365,122,0,1582558858.102359,41.20642966503831,29.07276141325542,180.2267,0.09588102,319.326834567134,3,8.001208273680877,-9999,105949.157687375,0.8754425048828125,0.0880889892578125,-0.207489013671875,105949.151675375,-2.551755777050153,1.40073929871386,-0.09330500099075832,0.00378406117670238,-0.02485380694270134,-0.01581360399723053,-0.05527448654174805,0.002695187926292419,-0.004997849464416504,2,0.6056393020202127,0.2212460832833877,-0.7395332174199489,0.1932404136762576,0.9812881350517273,0.0931696742773056,-0.1685024201869965,35.24047088623047,-9.074020385742188,7.4957275390625,2,105948.408388375,2,0,1582558858.580463,1582558685.643339,11,0.6387488,0,0,10.91,0,0,1582558765.788069,105945.90585,0,3.54599,99.32232
1582558859.336156,123,0,1582558858.102359,41.20642966503831,29.07276141325542,180.2267,0.09588102,319.326834567134,3,8.001208273680877,-9999,105949.167727375,0.8575439453125,0.086822509765625,-0.2145843505859375,105949.161715375,-2.551421944777766,1.40156577147861,-0.09297190570124589,-0.009430249221622944,0.08282390981912613,0.03520285338163376,-0.1144190430641174,-0.00602152943611145,-0.04521721601486206,2,0.605949662061437,0.2213068511843919,-0.7392251215627974,0.1933767415668723,0.9814575910568237,0.09283802658319473,-0.1676965653896332,35.24900054931641,-9.111923217773438,7.515899658203125,2,105948.408388375,2,0,1582558858.580463,1582558685.643339,11,0.6387488,0,0,10.91,0,0,1582558765.788069,105945.90585,0,3.54599,99.32232
1582558859.34629,124,0,1582558858.102359,41.20642966503831,29.07276141325542,180.2267,0.09588102,319.326834567134,3,8.001208273680877,-9999,105949.177767375,0.8952178955078125,0.0944671630859375,-0.18402099609375,105949.171755375,-2.551057399177852,1.403106016446347,-0.09211941676656757,-0.0209492202848196,0.1591136306524277,0.09026477485895157,-0.1210864186286926,-0.003753438591957092,-0.04477858543395996,2,0.6065852238302837,0.2212587917812762,-0.7386574231924049,0.1936081725116912,0.9817923903465271,0.0919891819357872,-0.1661978214979172,35.24900054931641,-9.111923217773438,7.515899658203125,2,105948.408388375,2,0,1582558858.580463,1582558685.643339,11,0.6387488,0,0,10.91,0,0,1582558765.788069,105945.90585,0,3.54599,99.32232
1582558859.356389,125,0,1582558858.102359,41.20642966503831,29.07276141325542,180.2267,0.09588102,319.326834567134,3,8.001208273680877,-9999,105949.187807375,0.94940185546875,0.091552734375,-0.1660003662109375,105949.181795375,-2.550398906773536,1.404630054627692,-0.09095278933470637,-0.02651286497712135,0.1479817926883698,0.1226139739155769,-0.07472145557403564,0.003985092043876648,-0.01306986808776855,2,0.6072210577590762,0.2211856581319682,-0.7380410828411829,0.1940485765949039,0.9821497201919556,0.09082744270563126,-0.1647189855575562,35.22148895263672,-9.22454833984375,7.66119384765625,2,105948.408388375,2,0,1582558858.580463,1582558685.643339,11,0.6387488,0,0,10.91,0,0,1582558765.788069,105945.90585,0,3.54599,99.32232
1582558859.387845,126,0,1582558858.102359,41.20642966503831,29.07276141325542,180.2267,0.09588102,319.326834567134,3,8.001208273680877,-9999,105949.197848375,0.9622802734375,0.087371826171875,-0.1669158935546875,105949.191836375,-2.549873829323258,1.406042044695336,-0.08971310046158956,-0.03087432309985161,0.1329661011695862,0.1301576495170593,-0.02766960859298706,0.001054346561431885,-0.002414822578430176,2,0.6078388697791455,0.2210355600851921,-0.7374649901228805,0.1944751963891561,0.9824916124343872,0.08959280699491501,-0.163350373506546,35.22148895263672,-9.22454833984375,7.66119384765625,2,105948.408388375,2,0,1582558858.580463,1582558685.643339,11,0.6387488,0,0,10.91,0,0,1582558765.788069,105945.90585,0,3.54599,99.32232
1582558859.389871,127,0,1582558858.102359,41.20642966503831,29.07276141325542,180.2267,0.09588102,319.326834567134,3,8.001208273680877,-9999,105949.207919375,0.9405364990234375,0.081207275390625,-0.1786651611328125,105949.201876375,-2.54911779994743,1.407538235594032,-0.08841024960721899,-0.03752987086772919,0.1423434764146805,0.1367297470569611,-0.02227497100830078,-0.002652555704116821,-0.006964325904846191,2,0.6084695374090501,0.2209418676516626,-0.7368347252675449,0.19499756854857,0.9828492403030396,0.08829511702060699,-0.1618990302085876,35.18378448486328,-8.958713531494141,7.779998779296875,2,105948.408388375,2,0,1582558858.580463,1582558685.643339,11,0.6387488,0,0,10.91,0,0,1582558765.788069,105945.90585,0,3.54599,99.32232
1582558859.391352,128,0,1582558858.102359,41.20642966503831,29.07276141325542,180.2267,0.09588102,319.326834567134,3,8.001208273680877,-9999,105949.217959375,0.9242401123046875,0.080810546875,-0.187530517578125,105949.211916375,-2.548434595389143,1.40951694408348,-0.08697732029110844,-0.04444476962089539,0.1916529685258865,0.1523268073797226,-0.04920655488967896,-0.005756661295890808,-0.02153915166854858,2,0.6093014655144061,0.2208272633886073,-0.7360531353034917,0.1954808215344157,0.9832915067672729,0.08686769753694534,-0.1599740833044052,35.18378448486328,-8.958713531494141,7.779998779296875,2,105948.408388375,2,0,1582558858.580463,1582558685.643339,11,0.6387488,0,0,10.91,0,0,1582558765.788069,105945.90585,0,3.54599,99.32232
1582558859.396537,129,0,1582558858.102359,41.20642966503831,29.07276141325542,180.2267,0.09588102,319.326834567134,3,8.001208273680877,-9999,105949.227999375,0.9595794677734375,0.07928466796875,-0.1724395751953125,105949.221957375,-2.547524104446572,1.411959209001144,-0.08547364572222174,-0.04915539920330048,0.24380062520504,0.1614577770233154,-0.05692464113235474,-0.005265325307846069,-0.02973473072052002,2,0.6102865080017494,0.2208031876140434,-0.7351006597324856,0.1960190219400791,0.9838072657585144,0.08536960929632187,-0.1575926542282104,35.13080596923828,-9.504550933837891,7.75177001953125,2,105948.408388375,2,0,1582558858.580463,1582558685.643339,11,0.6387488,0,0,10.91,0,0,1582558765.788069,105945.90585,0,3.54599,99.32232
1582558859.407297,130,0,1582558858.102359,41.20642966503831,29.07276141325542,180.2267,0.09588102,319.326834567134,3,8.001208273680877,-9999,105949.238039375,0.9979705810546875,0.0819854736328125,-0.152313232421875,105949.231997375,-2.546844595008558,1.414235531708568,-0.08401895453344775,-0.04334651306271553,0.2222884148359299,0.1549639254808426,-0.01531887054443359,-0.004151225090026855,-0.01164674758911133,2,0.6112286833650561,0.2207113851728844,-0.7342229593974432,0.1964752316065692,0.9842848777770996,0.08392013609409332,-0.1553719639778137,35.13080596923828,-9.504550933837891,7.75177001953125,2,105948.408388375,2,0,1582558858.580463,1582558685.643339,11,0.6387488,0,0,10.91,0,0,1582558765.788069,105945.90585,0,3.54599,99.32232
1582558859.416689,131,0,1582558858.102359,41.20642966503831,29.07276141325542,180.2267,0.09588102,319.326834567134,3,8.001208273680877,-9999,105949.248080375,1.018508911132812,0.081085205078125,-0.147613525390625,105949.242037375,-2.546056286469032,1.416114745993444,-0.08276059992259939,-0.04199204593896866,0.1863038241863251,0.1328094005584717,0.01810061931610107,-0.0003639757633209229,0.002281367778778076,2,0.6119875804642506,0.2206855708182681,-0.7334700286269205,0.1969536269284511,0.9846787452697754,0.08266615867614746,-0.1535381674766541,35.11859893798828,-9.479831695556641,8.00506591796875,2,105948.408388375,2,0,1582558858.580463,1582558685.643339,11,0.6387488,0,0,10.91,0,0,1582558765.788069,105946.842202,0,3.482574,99.32306
1582558859.4277,132,0,1582558858.102359,41.20642966503831,29.07276141325542,180.2267,0.09588102,319.326834567134,3,8.001208273680877,-9999,105949.258120375,1.026229858398438,0.079864501953125,-0.137664794921875,105949.252077375,-2.545450350514878,1.417399330091674,-0.08175214549098585,-0.04643845930695534,0.1279992312192917,0.109303817152977,0.03633111715316772,-0.001281306147575378,0.005514800548553467,2,0.6125168403613412,0.2206359332479076,-0.7329359786372698,0.1973520557830961,0.9849571585655212,0.08166111260652542,-0.1522858142852783,35.11859893798828,-9.479831695556641,8.00506591796875,2,105948.408388375,2,0,1582558858.580463,1582558685.643339,11,0.6387488,0,0,10.91,0,0,1582558765.788069,105946.842202,0,3.482574,99.32306
1582558859.451733,133,0,1582558858.102359,41.20642966503831,29.07276141325542,180.2267,0.09588102,319.326834567134,3,8.001208273680877,-9999,105949.268160375,1.005355834960938,0.0813446044921875,-0.139007568359375,105949.262118375,-2.544717338135932,1.417965353905664,-0.08096442669870979,-0.04146605730056763,0.04810968786478043,0.08601628243923187,0.03969103097915649,-9.930133819580078e-05,0.01625806093215942,2,0.6127411152361495,0.2206338949670728,-0.7326265174308035,0.1978066097837031,0.9851064682006836,0.08087600022554398,-0.1517380177974701,34.96811676025391,-9.359790802001953,8.107330322265625,2,105948.408388375,2,0,1582558858.580463,1582558685.643339,11,0.6387488,0,0,10.91,0,0,1582558765.788069,105946.842202,0,3.482574,99.32306
1582558859.452733,134,0,1582558858.102359,41.20642966503831,29.07276141325542,180.2267,0.09588102,319.326834567134,3,8.001208273680877,-9999,105949.278201375,0.96099853515625,0.0771636962890625,-0.161529541015625,105949.272158375,-2.544099257172078,1.418270223906056,-0.0802375444511504,-0.04888375848531723,0.02420116402208805,0.08016824722290039,0.01141905784606934,0.0002133846282958984,0.007528305053710938,2,0.6128747910251354,0.2205928438627955,-0.7324129719485403,0.1982286168887376,0.9852105379104614,0.08015147596597672,-0.1514465808868408,34.96811676025391,-9.359790802001953,8.107330322265625,2,105948.408388375,2,0,1582558858.580463,1582558685.643339,11,0.6387488,0,0,10.91,0,0,1582558765.788069,105946.842202,0,3.482574,99.32306
1582558859.456764,135,0,1582558858.102359,41.20642966503831,29.07276141325542,180.2267,0.09588102,319.326834567134,3,8.001208273680877,-9999,105949.288241375,0.9501190185546875,0.07635498046875,-0.166839599609375,105949.282198375,-2.543224858420357,1.418664681929239,-0.07944274622649526,-0.0560479424893856,0.03345008194446564,0.09003844857215881,-0.03075629472732544,-0.002427399158477783,-0.01288533210754395,2,0.6130213942037955,0.2206150469721475,-0.7321406198683924,0.1987559216622798,0.9853328466415405,0.07935921102762222,-0.1510675400495529,34.86257171630859,-9.713260650634766,8.052734375,2,105948.408388375,2,0,1582558858.580463,1582558685.643339,11,0.6387488,0,0,10.91,0,0,1582558765.788069,105946.842202,0,3.482574,99.32306
1582558859.466958,136,0,1582558858.102359,41.20642966503831,29.07276141325542,180.2267,0.09588102,319.326834567134,3,8.001208273680877,-9999,105949.298281375,0.9634552001953125,0.0705718994140625,-0.166412353515625,105949.292239375,-2.542443315485072,1.41928251418617,-0.07864513441997245,-0.06523425132036209,0.05839884281158447,0.09061501920223236,-0.03303277492523193,-0.00340212881565094,-0.0171775221824646,2,0.6132602804950206,0.2206302485033872,-0.731808284859562,0.1992253587508628,0.9854881763458252,0.07856408506631851,-0.1504682451486588,34.86257171630859,-9.713260650634766,8.052734375,2,105948.408388375,2,0,1582558858.580463,1582558685.643339,11,0.6387488,0,0,10.91,0,0,1582558765.788069,105946.842202,0,3.482574,99.32306
1582558859.476976,137,0,1582558858.102359,41.20642966503831,29.07276141325542,180.2267,0.09588102,319.326834567134,3,8.001208273680877,-9999,105949.308321375,0.9597015380859375,0.0735321044921875,-0.1563568115234375,105949.302309375,-2.541441596940835,1.419977710520764,-0.07783061001962495,-0.06829988211393356,0.06482258439064026,0.09077306091785431,-0.02167963981628418,-0.007274314761161804,-0.01487767696380615,2,0.6135051505587484,0.2207149763491558,-0.7314283387709328,0.1997720155899637,0.9856554865837097,0.07775205373764038,-0.1497926563024521,35.03079986572266,-9.672046661376953,7.99725341796875,2,105948.408388375,2,0,1582558858.580463,1582558685.643339,11,0.6387488,0,0,10.91,0,0,1582558765.788069,105946.842202,0,3.482574,99.32306
1582558859.507361,138,0,1582558858.102359,41.20642966503831,29.07276141325542,180.2267,0.09588102,319.326834567134,3,8.001208273680877,-9999,105949.318380625,0.973480224609375,0.072418212890625,-0.159149169921875,105949.312368625,-2.540613229988525,1.420668656550428,-0.07703515351476446,-0.06941148638725281,0.06297382712364197,0.08916451781988144,-0.02503275871276855,-0.002803683280944824,-0.007187962532043457,2,0.6137650830192545,0.2207533241141107,-0.7310679837605547,0.2002495734212739,0.9858195185661316,0.07695898413658142,-0.1491207927465439,35.03079986572266,-9.672046661376953,7.99725341796875,2,105948.408388375,2,0,1582558858.580463,1582558685.643339,11,0.6387488,0,0,10.91,0,0,1582558765.788069,105946.842202,0,3.482574,99.32306
1582558859.508619,139,0,1582558858.102359,41.20642966503831,29.07276141325542,180.2267,0.09588102,319.326834567134,3,8.001208273680877,-9999,105949.328420625,0.976959228515625,0.0687255859375,-0.158843994140625,105949.322408625,-2.539560216511882,1.421409850757306,-0.07633279822861501,-0.077597975730896,0.06553184986114502,0.08522798120975494,-0.0120125412940979,-0.005063444375991821,-0.01116073131561279,2,0.6140068528810537,0.2208993986023743,-0.730676906941082,0.2007742142095469,0.9859830737113953,0.07625868916511536,-0.1483980864286423,34.96949005126953,-9.701877593994141,8.176727294921875,2,105948.408388375,2,0,1582558858.580463,1582558685.643339,11,0.6387488,0,0,10.91,0,0,1582558765.788069,105946.842202,0,3.482574,99.32306
1582558859.509546,140,0,1582558858.102359,41.20642966503831,29.07276141325542,180.2267,0.09588102,319.326834567134,3,8.001208273680877,-9999,105949.338460625,0.98187255859375,0.06719970703125,-0.1606292724609375,105949.332448625,-2.538665139597601,1.422229248749191,-0.07579485815120841,-0.07811090350151062,0.07518687844276428,0.06653311848640442,-0.007306516170501709,-0.007059887051582336,-0.01119965314865112,2,0.6142740347999696,0.2210640739549635,-0.7302907204877676,0.2011803873381784,0.9861447811126709,0.07572230696678162,-0.1475961655378342,34.96949005126953,-9.701877593994141,8.176727294921875,2,105948.408388375,2,0,1582558858.580463,1582558685.643339,11,0.6387488,0,0,10.91,0,0,1582558765.788069,105946.842202,0,3.482574,99.32306
1582558859.516972,141,0,1582558858.102359,41.20642966503831,29.07276141325542,180.2267,0.09588102,319.326834567134,3,8.001208273680877,-9999,105949.348500625,0.96527099609375,0.07708740234375,-0.15252685546875,105949.342489625,-2.537551546395277,1.423089948805044,-0.0753507858586433,-0.08805295079946518,0.07812706381082535,0.05618928372859955,-0.00566565990447998,-0.007837682962417603,-0.01421022415161133,2,0.6145202343279246,0.2213340017715467,-0.7298772249358707,0.2016319217492297,0.9863046407699585,0.07527950406074524,-0.1467522829771042,35.01967620849609,-9.755340576171875,8.25311279296875,2,105948.408388375,2,0,1582558858.580463,1582558685.643339,11,0.6387488,0,0,10.91,0,0,1582558765.788069,105946.842202,0,3.482574,99.32306
1582558859.527487,142,0,1582558858.102359,41.20642966503831,29.07276141325542,180.2267,0.09588102,319.326834567134,3,8.001208273680877,-9999,105949.358541625,0.9495391845703125,0.0886688232421875,-0.1429901123046875,105949.352529625,-2.53667675351112,1.423962804827066,-0.0748058670087665,-0.07734411954879761,0.0806027352809906,0.06819108128547668,-0.02708917856216431,0.005675807595252991,-0.003804504871368408,2,0.6148095975509437,0.2214960841992996,-0.7294750591743759,0.2020264652926606,0.9864726662635803,0.07473611831665039,-0.1458972841501236,35.01967620849609,-9.755340576171875,8.25311279296875,2,105948.408388375,2,0,1582558858.580463,1582558685.643339,11,0.6387488,0,0,10.91,0,0,1582558765.788069,105946.842202,0,3.482574,99.32306
1582558859.540747,143,0,1582558858.102359,41.20642966503831,29.07276141325542,180.2267,0.09588102,319.326834567134,3,8.001208273680877,-9999,105949.368581625,0.950347900390625,0.0853424072265625,-0.140167236328125,105949.362569625,-2.535759889007398,1.424817080911197,-0.07413843106933579,-0.06265696138143539,0.08168533444404602,0.07645557820796967,-0.03618884086608887,0.01494751870632172,0.002806305885314941,2,0.6151025178768393,0.2216258620380718,-0.7290636940010563,0.2024769850739092,0.9866461157798767,0.07407053560018539,-0.1450617462396622,34.98723602294922,-9.874393463134766,8.38629150390625,2,105948.408388375,2,0,1582558858.580463,1582558685.643339,11,0.6387488,0,0,10.91,0,0,1582558765.788069,105946.842202,0,3.482574,99.32306
1582558859.557215,144,0,1582558858.102359,41.20642966503831,29.07276141325542,180.2267,0.09588102,319.326834567134,3,8.001208273680877,-9999,105949.378621625,0.9634552001953125,0.0762176513671875,-0.150726318359375,105949.372609625,-2.53511545552539,1.425695698045885,-0.07341395671197547,-0.05134597793221474,0.08246510475873947,0.08104047924280167,-0.03603297472000122,0.01069584488868713,0.00312197208404541,2,0.6154413703444838,0.221654353082024,-0.7286671766498969,0.2028434277218155,0.9868261218070984,0.0733480304479599,-0.1442025303840637,34.98723602294922,-9.874393463134766,8.38629150390625,2,105948.408388375,2,0,1582558858.580463,1582558685.643339,11,0.6387488,0,0,10.91,0,0,1582558765.788069,105946.842202,0,3.482574,99.32306
1582558859.557998,145,0,1582558858.102359,41.20642966503831,29.07276141325542,180.2267,0.09588102,319.326834567134,3,8.001208273680877,-9999,105949.388662625,0.9763031005859375,0.065948486328125,-0.1586761474609375,105949.382650625,-2.534332130901637,1.426791127091508,-0.07278577330457978,-0.04939752817153931,0.1073605865240097,0.07146406918764114,-0.0211295485496521,0.001068577170372009,-0.01057171821594238,2,0.6158316047768135,0.221782365628811,-0.728197390385053,0.2032058394976513,0.9870288968086243,0.07272152602672577,-0.1431280374526978,34.84812164306641,-10.05300140380859,8.5096435546875,2,105949.372182625,4,2,1582558859.544257,1582558685.643339,11,0.6387488,0,0,10.91,0,0,1582558765.788069,105946.842202,0,3.482574,99.32306
1582558859.567032,146,0,1582558858.102359,41.20642966503831,29.07276141325542,180.2267,0.09588102,319.326834567134,3,8.001208273680877,-9999,105949.398702625,0.9942169189453125,0.0632476806640625,-0.1541290283203125,105949.392690625,-2.533682883476676,1.428039518203906,-0.07234876250123271,-0.05841925367712975,0.1198300421237946,0.05521345511078835,-0.008429884910583496,-0.00743710994720459,-0.01666742563247681,2,0.6162683084656483,0.2219532890388982,-0.7277097406005989,0.2034418082999633,0.9872380495071411,0.07228565961122513,-0.1419002115726471,34.84812164306641,-10.05300140380859,8.5096435546875,2,105949.372182625,4,2,1582558859.544257,1582558685.643339,11,0.6387488,0,0,10.91,0,0,1582558765.788069,105946.842202,0,3.482574,99.32306
1582558859.577157,147,0,1582558858.102359,41.20642966503831,29.07276141325542,180.2267,0.09588102,319.326834567134,3,8.001208273680877,-9999,105949.408742625,0.986663818359375,0.0633392333984375,-0.1500091552734375,105949.402730625,-2.532791358571637,1.429234451619612,-0.07209016382768803,-0.06817358732223511,0.1124617531895638,0.03471330180764198,0.009220480918884277,-0.009544193744659424,-0.01233625411987305,2,0.6166360875846729,0.2222574988338798,-0.7272287576088967,0.2037152515860228,0.9874255061149597,0.07202773541212082,-0.1407230794429779,34.80001068115234,-10.02658843994141,8.472564697265625,2,105949.372182625,4,2,1582558859.544257,1582558685.643339,11,0.6387488,0,0,10.91,0,0,1582558765.788069,105946.842202,0,3.482574,99.32306
1582558859.587133,148,0,1582558858.102359,41.20642966503831,29.07276141325542,180.2267,0.09588102,319.326834567134,3,8.001208273680877,-9999,105949.418782625,0.9654541015625,0.0755462646484375,-0.138092041015625,105949.412771625,-2.531985034957231,1.430203523978651,-0.07178757901378535,-0.0713142529129982,0.09197644889354706,0.03806515783071518,-0.005814135074615479,-0.005992203950881958,-0.008941352367401123,2,0.61693635111032,0.2224970832820979,-0.7268219047599388,0.2039963858704212,0.9875829219818115,0.07172593474388123,-0.1397691667079926,34.80001068115234,-10.02658843994141,8.472564697265625,2,105949.372182625,4,2,1582558859.544257,1582558685.643339,11,0.6387488,0,0,10.91,0,0,1582558765.788069,105946.842202,0,3.482574,99.32306
1582558859.597144,149,0,1582558858.102359,41.20642966503831,29.07276141325542,180.2267,0.09588102,319.326834567134,3,8.001208273680877,-9999,105949.428823625,0.9620513916015625,0.0757904052734375,-0.140472412109375,105949.422811625,-2.53094045179566,1.43086485147982,-0.07131225133396295,-0.07431548088788986,0.06061333417892456,0.05628719180822372,-0.0241890549659729,0.006307616829872131,0.002495467662811279,2,0.61711953262601,0.2227175325834118,-0.7264705465795922,0.2044527984813244,0.9877087473869324,0.07125182449817657,-0.1391207724809647,34.89238739013672,-10.03525161743164,8.499237060546875,2,105949.372182625,4,2,1582558859.544257,1582558685.643339,11,0.6387488,0,0,10.91,0,0,1582558765.788069,105946.842202,0,3.482574,99.32306
1582558859.613352,150,0,1582558858.102359,41.20642966503831,29.07276141325542,180.2267,0.09588102,319.326834567134,3,8.001208273680877,-9999,105949.438863625,0.9676055908203125,0.071014404296875,-0.1403961181640625,105949.432851625,-2.529907990662714,1.4313053798325,-0.07070552595772972,-0.09417547285556793,0.04430946707725525,0.07301157712936401,-0.02511674165725708,0.004212155938148499,-0.004342257976531982,2,0.6172400754073557,0.2228651487244889,-0.7261768675563349,0.2049708154587118,0.9878126382827759,0.07064662873744965,-0.138691633939743,34.89238739013672,-10.03525161743164,8.499237060546875,2,105949.372182625,4,2,1582558859.544257,1582558685.643339,11,0.6387488,0,0,10.91,0,0,1582558765.788069,105946.842202,0,3.482574,99.32306
1582558859.617392,151,0,1582558858.102359,41.20642966503831,29.07276141325542,180.2267,0.09588102,319.326834567134,3,8.001208273680877,-9999,105949.448903625,0.9806060791015625,0.0775909423828125,-0.1301727294921875,105949.442891625,-2.528616701930546,1.431433490506191,-0.07000184858851549,-0.1077577695250511,0.006817057728767395,0.090929314494133,-0.02124643325805664,0.0004281699657440186,0.000100553035736084,2,0.6172303612341513,0.2230262483189138,-0.7259441248649118,0.2056480966111413,0.9878793358802795,0.06994469463825226,-0.1385719478130341,34.84458160400391,-9.825534820556641,8.572967529296875,2,105949.372182625,4,2,1582558859.544257,1582558685.643339,11,0.6387488,0,0,10.91,0,0,1582558765.788069,105946.842202,0,3.482574,99.32306
1582558859.62731,152,0,1582558858.102359,41.20642966503831,29.07276141325542,180.2267,0.09588102,319.326834567134,3,8.001208273680877,-9999,105949.458974625,0.986114501953125,0.0626678466796875,-0.134979248046875,105949.452932625,-2.527548470377759,1.431135524767779,-0.06935548204828698,-0.0884205549955368,-0.04535320401191711,0.07710164785385132,-0.00171816349029541,0.008183747529983521,0.01085376739501953,2,0.6170837133027252,0.223095064503353,-0.7258702017236777,0.2062736547196287,0.9878826141357422,0.06929989159107208,-0.1388725638389587,34.84458160400391,-9.825534820556641,8.572967529296875,2,105949.372182625,4,2,1582558859.544257,1582558685.643339,11,0.6387488,0,0,10.91,0,0,1582558765.788069,105946.842202,0,3.482574,99.32306
1582558859.637506,153,0,1582558858.102359,41.20642966503831,29.07276141325542,180.2267,0.09588102,319.326834567134,3,8.001208273680877,-9999,105949.469014625,0.987579345703125,0.065155029296875,-0.145660400390625,105949.462972625,-2.526233697010989,1.430813689126645,-0.06880664203483568,-0.101597860455513,-0.03355138376355171,0.06986649334430695,-0.003404617309570312,-0.007152974605560303,-0.001380980014801025,2,0.6168887608610334,0.2232719736132682,-0.7257859706388502,0.2069603030447126,0.9878752827644348,0.06875236332416534,-0.1391957700252533,34.95475006103516,-10.13784790039062,8.498443603515625,2,105949.372182625,4,2,1582558859.544257,1582558685.643339,11,0.6387488,0,0,10.91,0,0,1582558765.788069,105946.842202,0,3.482574,99.32306
1582558859.647385,154,0,1582558858.102359,41.20642966503831,29.07276141325542,180.2267,0.09588102,319.326834567134,3,8.001208273680877,-9999,105949.479055625,0.9720306396484375,0.0632781982421875,-0.1459808349609375,105949.473012625,-2.525067312234512,1.430383094706896,-0.06832474952336992,-0.1020252928137779,-0.0589400976896286,0.06559664756059647,-0.0009357929229736328,-0.004749521613121033,-0.004673957824707031,2,0.6166625128948426,0.2234154648840657,-0.7257559705051789,0.2075840573632525,0.9878479838371277,0.06827159970998764,-0.1396257430315018,34.95475006103516,-10.13784790039062,8.498443603515625,2,105949.372182625,4,2,1582558859.544257,1582558685.643339,11,0.6387488,0,0,10.91,0,0,1582558765.788069,105946.842202,0,3.482574,99.32306
1582558859.657545,155,0,1582558858.102359,41.20642966503831,29.07276141325542,180.2267,0.09588102,319.326834567134,3,8.001208273680877,-9999,105949.489095625,0.9711456298828125,0.076995849609375,-0.12890625,105949.483052625,-2.523833731466962,1.429902911908756,-0.06781330040395418,-0.09277763962745667,-0.04666465520858765,0.06253279000520706,-0.01684850454330444,0.001345604658126831,-0.004698216915130615,2,0.6164144717102898,0.2235636831071682,-0.7257310755640671,0.2082469658759832,0.9878152012825012,0.06776133924722672,-0.1401049643754959,34.90143585205078,-10.32675552368164,8.54718017578125,2,105949.372182625,4,2,1582558859.544257,1582558685.643339,11,0.6387488,0,0,10.91,0,0,1582558765.788069,105946.842202,0,3.482574,99.32306
1582558859.675248,156,0,1582558858.102359,41.20642966503831,29.07276141325542,180.2267,0.09588102,319.326834567134,3,8.001208273680877,-9999,105949.499135625,0.958892822265625,0.078460693359375,-0.145538330078125,105949.493093625,-2.52270307163493,1.429307108356085,-0.06719139166854722,-0.1195330917835236,-0.06191471219062805,0.07774263620376587,-0.02118557691574097,0.006345510482788086,0.009843111038208008,2,0.6161498113463628,0.223628492969428,-0.7257424297828374,0.208920397170643,0.9877732396125793,0.0671408474445343,-0.1406994163990021,34.90143585205078,-10.32675552368164,8.54718017578125,2,105949.372182625,4,2,1582558859.544257,1582558685.643339,11,0.6387488,0,0,10.91,0,0,1582558765.788069,105946.842202,0,3.482574,99.32306
1582558859.67761,157,0,1582558858.102359,41.20642966503831,29.07276141325542,180.2267,0.09588102,319.326834567134,3,8.001208273680877,-9999,105949.509176625,0.96954345703125,0.07861328125,-0.133880615234375,105949.503133625,-2.521632229813934,1.428609164329333,-0.06644635269450021,-0.0720042809844017,-0.08271413296461105,0.08924977481365204,-0.02804839611053467,0.01549667119979858,-0.002155721187591553,2,0.6158703228110797,0.2236198573965097,-0.7257798053434097,0.2096221191696865,0.9877238273620605,0.06639746576547623,-0.1413958072662354,34.91017913818359,-10.41889572143555,8.5308837890625,2,105949.372182625,4,2,1582558859.544257,1582558685.643339,11,0.6387488,0,0,10.91,0,0,1582558765.788069,105946.842202,0,3.482574,99.32306
1582558859.687775,158,0,1582558858.102359,41.20642966503831,29.07276141325542,180.2267,0.09588102,319.326834567134,3,8.001208273680877,-9999,105949.519216625,0.9727783203125,0.062591552734375,-0.1548614501953125,105949.513173625,-2.520757127413758,1.428081959492151,-0.06576375017612501,-0.08049310743808746,-0.05486705899238586,0.08176975697278976,-0.01689457893371582,0.008807942271232605,0.00429224967956543,2,0.6156668554131078,0.223590789148517,-0.7257903272765386,0.2102140992732052,0.9876939654350281,0.06571635603904724,-0.1419229656457901,34.91017913818359,-10.41889572143555,8.5308837890625,2,105949.372182625,4,2,1582558859.544257,1582558685.643339,11,0.6387488,0,0,10.91,0,0,1582558765.788069,105946.842202,0,3.482574,99.32306
1582558859.698088,159,0,1582558858.102359,41.20642966503831,29.07276141325542,180.2267,0.09588102,319.326834567134,3,8.001208273680877,-9999,105949.529256625,0.9765777587890625,0.064117431640625,-0.1509857177734375,105949.523214625,-2.519858925758653,1.427768336177053,-0.06521312339571,-0.06442636251449585,-0.03497790172696114,0.0644116997718811,-0.01468861103057861,-0.003520950675010681,-0.01379513740539551,2,0.6155218253787694,0.2236380175676928,-0.725743650326535,0.2107486859576777,0.987684965133667,0.06516691297292709,-0.1422378420829773,34.93134307861328,-10.39427185058594,8.369873046875,2,105949.372182625,4,2,1582558859.544257,1582558685.643339,11,0.6387488,0,0,10.91,0,0,1582558765.788069,105946.842202,0,3.482574,99.32306
1582558859.707674,160,0,1582558858.102359,41.20642966503831,29.07276141325542,180.2267,0.09588102,319.326834567134,3,8.001208273680877,-9999,105949.539296625,0.9728851318359375,0.0685272216796875,-0.1512908935546875,105949.533254625,-2.519239986340241,1.427591987786837,-0.06473161354404133,-0.0537572056055069,-0.02459876425564289,0.0575263649225235,-0.01101714372634888,0.0008659064769744873,-0.007131457328796387,2,0.6154491508663387,0.2236383217356811,-0.7256901105687824,0.2111448359951863,0.9876908659934998,0.06468641757965088,-0.1424164921045303,34.93134307861328,-10.39427185058594,8.369873046875,2,105949.372182625,4,2,1582558859.544257,1582558685.643339,11,0.6387488,0,0,10.91,0,0,1582558765.788069,105946.842202,0,3.482574,99.32306
