loggingTime,loggingSample,identifierForVendor,locationTimestamp_since1970,locationLatitude,locationLongitude,locationAltitude,locationSpeed,locationCourse,locationVerticalAccuracy,locationHorizontalAccuracy,locationFloor,accelerometerTimestamp_sinceReboot,accelerometerAccelerationX,accelerometerAccelerationY,accelerometerAccelerationZ,motionTimestamp_sinceReboot,motionYaw,motionRoll,motionPitch,motionRotationRateX,motionRotationRateY,motionRotationRateZ,motionUserAccelerationX,motionUserAccelerationY,motionUserAccelerationZ,motionAttitudeReferenceFrame,motionQuaternionX,motionQuaternionY,motionQuaternionZ,motionQuaternionW,motionGravityX,motionGravityY,motionGravityZ,motionMagneticFieldX,motionMagneticFieldY,motionMagneticFieldZ,motionMagneticFieldCalibrationAccuracy,activityTimestamp_sinceReboot,activity,activityActivityConfidence,activityActivityStartDate,pedometerStartDate,pedometerNumberofSteps,pedometerAverageActivePace,pedometerCurrentPace,pedometerCurrentCadence,pedometerDistance,pedometerFloorAscended,pedometerFloorDescended,pedometerEndDate,altimeterTimestamp_sinceReboot,altimeterReset,altimeterRelativeAltitude,altimeterPressure
1582550251.952019,1,0,1582550247.981439,41.20730592650001,29.07233430265877,161.3114,-1,-1,19.68582725524902,65,-9999,103139.77141625,0.970703125,0.1043243408203125,-0.055633544921875,103139.76638025,-0.201197808829269,1.546374517136881,-0.09402801788975639,0.0004668788751587272,0.001040270552039146,-0.007114727515727282,-0.01978349685668945,0.01120948791503906,-0.02752923965454102,2,-0.03659939108755828,-0.6974989088870259,0.1044541324596913,-0.7079866721640313,0.9952857494354248,0.09388952702283859,-0.02431151270866394,43.70289611816406,-28.24651718139648,3.205535888671875,2,103139.09993725,2,0,1582550251.258434,0,0,0,0,0,0,0,0,0,103137.296751,0,-2.55249,99.12743
1582550251.974568,2,0,1582550247.981439,41.20730592650001,29.07233430265877,161.3114,-1,-1,19.68582725524902,65,-9999,103139.78145625,0.973358154296875,0.10546875,-0.0548095703125,103139.77642025,-0.2012238139679375,1.546393738817476,-0.09410752624064844,0.002563677728176117,0.004804397001862526,-0.008798393420875072,-0.02447617053985596,0.01018419861793518,-0.03180599212646484,2,-0.0365810676658303,-0.6975067937007894,0.1044904512761323,-0.7079743855669103,0.9952786564826965,0.09396868199110031,-0.02429219707846642,43.63493347167969,-28.38478088378906,3.293914794921875,2,103139.09993725,2,0,1582550251.258434,0,0,0,0,0,0,0,0,0,103137.296751,0,-2.55249,99.12743
1582550251.975841,3,0,1582550247.981439,41.20730592650001,29.07233430265877,161.3114,-1,-1,19.68582725524902,65,-9999,103139.79149625,0.9773712158203125,0.10430908203125,-0.053985595703125,103139.78646125,-0.201261343907528,1.546399227956022,-0.09414536874581921,0.003751713782548904,0.001234697178006172,-0.001542611047625542,-0.02299267053604126,0.01135200262069702,-0.03063666820526123,2,-0.03658092498103294,-0.6975087906961246,0.1045167067986795,-0.7079685258627036,0.9952751994132996,0.09400635957717896,-0.02428664639592171,43.63493347167969,-28.38478088378906,3.293914794921875,2,103139.09993725,2,0,1582550251.258434,0,0,0,0,0,0,0,0,0,103137.296751,0,-2.55249,99.12743
1582550251.976889,4,0,1582550247.981439,41.20730592650001,29.07233430265877,161.3114,-1,-1,19.68582725524902,65,-9999,103139.80153625,0.97607421875,0.1020355224609375,-0.054473876953125,103139.79650125,-0.2013015402896139,1.546394705774444,-0.0941998625018997,0.003152086399495602,0.002127647399902344,-0.004169207997620106,-0.0181199312210083,0.01067215204238892,-0.02954888343811035,2,-0.0365752356725621,-0.6975075204754063,0.1045498380385982,-0.7079651966419805,0.9952699542045593,0.09406060725450516,-0.02429102174937725,43.79463195800781,-28.22506713867188,3.08734130859375,2,103139.09993725,2,0,1582550251.258434,0,0,0,0,0,0,0,0,0,103137.296751,0,-2.55249,99.12743
1582550251.977841,5,0,1582550247.981439,41.20730592650001,29.07233430265877,161.3114,-1,-1,19.68582725524902,65,-9999,103139.81157725,0.9764862060546875,0.102569580078125,-0.0544586181640625,103139.80654125,-0.2013599671605814,1.546370164199262,-0.0942688583441962,0.006070644594728947,0.001175833866000175,-0.006244343239814043,-0.01911985874176025,0.008513033390045166,-0.03033304214477539,2,-0.03656966668773037,-0.6974991133795441,0.1045947925483198,-0.7079672353779494,0.9952630400657654,0.0941293016076088,-0.02431529201567173,43.79463195800781,-28.22506713867188,3.08734130859375,2,103139.09993725,2,0,1582550251.258434,0,0,0,0,0,0,0,0,0,103137.296751,0,-2.55249,99.12743
1582550251.981578,6,0,1582550247.981439,41.20730592650001,29.07233430265877,161.3114,-1,-1,19.68582725524902,65,-9999,103139.82161725,0.974700927734375,0.1033782958984375,-0.052978515625,103139.81658225,-0.2014135443852381,1.546312137770074,-0.09433657431165907,0.004697357304394245,-0.003484705463051796,-0.006316903978586197,-0.01874589920043945,0.008003056049346924,-0.03019940853118896,2,-0.03656113194793331,-0.6974789182345731,0.1046382099113053,-0.7079810522042584,0.9952551126480103,0.09419671446084976,-0.02437288500368595,43.72554016113281,-28.34465026855469,3.4051513671875,2,103139.09993725,2,0,1582550251.258434,0,0,0,0,0,0,0,0,0,103137.296751,0,-2.55249,99.12743
1582550251.991725,7,0,1582550247.981439,41.20730592650001,29.07233430265877,161.3114,-1,-1,19.68582725524902,65,-9999,103139.83165725,0.9737091064453125,0.104156494140625,-0.0553741455078125,103139.82662225,-0.2014589563355873,1.546256040686194,-0.09439649384533862,0.003766848705708981,-0.002642346546053886,-0.00454749958589673,-0.02020370960235596,0.009179383516311646,-0.02841949462890625,2,-0.03655262608225934,-0.6974594020734027,0.1046760046550126,-0.7079951055204721,0.9952480792999268,0.09425636380910873,-0.02442857623100281,43.72554016113281,-28.34465026855469,3.4051513671875,2,103139.09993725,2,0,1582550251.258434,0,0,0,0,0,0,0,0,0,103137.296751,0,-2.55249,99.12743
1582550252.017464,8,0,1582550247.981439,41.20730592650001,29.07233430265877,161.3114,-1,-1,19.68582725524902,65,-9999,103139.84172825,0.9744415283203125,0.103912353515625,-0.0556640625,103139.83666225,-0.2014947442103774,1.546201849016167,-0.09445128431778174,0.003147143870592117,-0.003499353304505348,-0.003481872379779816,-0.02152466773986816,0.009765744209289551,-0.03060853481292725,2,-0.03654268438574693,-0.697440635032303,0.1047085810030196,-0.7080093650556905,0.995241641998291,0.09431090950965881,-0.02448238618671894,43.603515625,-28.35379409790039,3.23199462890625,2,103139.09993725,2,0,1582550251.258434,0,0,0,0,0,0,0,0,0,103137.296751,0,-2.55249,99.12743
1582550252.018666,9,0,1582550247.981439,41.20730592650001,29.07233430265877,161.3114,-1,-1,19.68582725524902,65,-9999,103139.85176825,0.9756927490234375,0.1042022705078125,-0.053375244140625,103139.84670225,-0.2015353678016224,1.546121854901708,-0.09449633663663327,0.004754894413053989,-0.006728436797857285,-0.003043249947950244,-0.02130460739135742,0.009705603122711182,-0.03171896934509277,2,-0.03653655969841618,-0.6974124547905219,0.1047399791576119,-0.7080328313902498,0.9952355027198792,0.09435576200485229,-0.02456189505755901,43.603515625,-28.35379409790039,3.23199462890625,2,103139.09993725,2,0,1582550251.258434,0,0,0,0,0,0,0,0,0,103137.296751,0,-2.55249,99.12743
1582550252.02239,10,0,1582550247.981439,41.20730592650001,29.07233430265877,161.3114,-1,-1,19.68582725524902,65,-9999,103139.86180925,0.9741668701171875,0.103271484375,-0.0559539794921875,103139.85674325,-0.2015643483617736,1.546049119375582,-0.09454492255188576,0.003431451972573996,-0.00583893246948719,-0.00359236728399992,-0.01957404613494873,0.00967252254486084,-0.02876299619674683,2,-0.03652550702748447,-0.6973871264758558,0.1047683502884516,-0.7080540195483782,0.9952289462089539,0.09440413117408752,-0.02463416568934917,43.60247802734375,-28.25499725341797,3.253326416015625,2,103139.09993725,2,0,1582550251.258434,0,0,0,0,0,0,0,0,0,103137.296751,0,-2.55249,99.12743
1582550252.031773,11,0,1582550247.981439,41.20730592650001,29.07233430265877,161.3114,-1,-1,19.68582725524902,65,-9999,103139.87184925,0.9741973876953125,0.101226806640625,-0.0565948486328125,103139.86678325,-0.2015866855971823,1.546023599651135,-0.09459537574217014,0.002868459559977055,-0.0004444345831871033,-0.003630983177572489,-0.02080452442169189,0.009271323680877686,-0.03081268072128296,2,-0.03651391604194293,-0.6973786693746796,0.1047941388313227,-0.7080592645371789,0.9952237606048584,0.09445436298847198,-0.02465945109724998,43.60247802734375,-28.25499725341797,3.253326416015625,2,103139.09993725,2,0,1582550251.258434,0,0,0,0,0,0,0,0,0,103137.296751,0,-2.55249,99.12743
1582550252.041907,12,0,1582550247.981439,41.20730592650001,29.07233430265877,161.3114,-1,-1,19.68582725524902,65,-9999,103139.88188925,0.9741058349609375,0.10430908203125,-0.0550689697265625,103139.87682325,-0.2016082911383823,1.546022298384333,-0.09465743306695359,0.001908551552332938,0.002122601494193077,-0.006447960156947374,-0.02124106884002686,0.006462961435317993,-0.03207802772521973,2,-0.03649921255021005,-0.6973790277995158,0.1048232423642231,-0.7080552877275158,0.9952177405357361,0.09451614320278168,-0.02466059848666191,43.80178833007812,-28.29142761230469,3.13427734375,2,103139.09993725,2,0,1582550251.258434,0,0,0,0,0,0,0,0,0,103137.296751,0,-2.55249,99.12743
1582550252.052284,13,0,1582550247.981439,41.20730592650001,29.07233430265877,161.3114,-1,-1,19.68582725524902,65,-9999,103139.89192925,0.9714813232421875,0.1046142578125,-0.056671142578125,103139.88689425,-0.2016407710559368,1.546040213466791,-0.09470445704079919,0.002668085042387247,0.003974564373493195,-0.002754688495770097,-0.02076411247253418,0.009223788976669312,-0.03057008981704712,2,-0.03649466923854383,-0.6973856960998102,0.1048506488917839,-0.7080449341542133,0.9952138066291809,0.09456295520067215,-0.02464265935122967,43.80178833007812,-28.29142761230469,3.13427734375,2,103139.09993725,2,0,1582550251.258434,0,0,0,0,0,0,0,0,0,103137.296751,0,-2.55249,99.12743
1582550252.082423,14,0,1582550247.981439,41.20730592650001,29.07233430265877,161.3114,-1,-1,19.68582725524902,65,-9999,103139.90197025,0.973846435546875,0.1054840087890625,-0.053741455078125,103139.89693425,-0.2017063904490966,1.546082653665001,-0.09473928381574563,0.007284663617610931,0.007932813838124275,-0.002231836784631014,-0.02369159460067749,0.01010459661483765,-0.03213834762573242,2,-0.03650732854161765,-0.697400203513898,0.1048851289422104,-0.7080249059337019,0.9952116012573242,0.09459762275218964,-0.02460034191608429,43.47450256347656,-28.5218334197998,3.155120849609375,2,103139.09993725,2,0,1582550251.258434,0,0,0,0,0,0,0,0,0,103137.296751,0,-2.55249,99.12743
1582550252.083696,15,0,1582550247.981439,41.20730592650001,29.07233430265877,161.3114,-1,-1,19.68582725524902,65,-9999,103139.91201025,0.9757232666015625,0.1052093505859375,-0.053436279296875,103139.90697525,-0.2017799567731555,1.546082666848983,-0.09475176246620277,0.007622085511684418,0.001658406108617783,-0.001495739445090294,-0.02198147773742676,0.01059573888778687,-0.02963590621948242,2,-0.03652852028812348,-0.6973991087205126,0.1049154796053524,-0.7080204182540004,0.9952104091644287,0.09461005032062531,-0.02460030093789101,43.47450256347656,-28.5218334197998,3.155120849609375,2,103139.09993725,2,0,1582550251.258434,0,0,0,0,0,0,0,0,0,103137.296751,0,-2.55249,99.12743
1582550252.084663,16,0,1582550247.981439,41.20730592650001,29.07233430265877,161.3114,-1,-1,19.68582725524902,65,-9999,103139.92205025,0.9716949462890625,0.10498046875,-0.0568084716796875,103139.91701525,-0.2018492425315848,1.54612040951641,-0.09472987308175529,0.006303555797785521,0.007714971899986267,0.003071145620197058,-0.01926827430725098,0.01067858934402466,-0.02843743562698364,2,-0.03656249334538902,-0.6974107763801658,0.104931764571649,-0.7080046485698205,0.9952132701873779,0.0945882573723793,-0.02456278540194035,43.51739501953125,-28.4048957824707,3.20257568359375,2,103139.09993725,2,0,1582550251.258434,0,0,0,0,0,0,0,0,0,103137.296751,0,-2.55249,99.12743
1582550252.092023,17,0,1582550247.981439,41.20730592650001,29.07233430265877,161.3114,-1,-1,19.68582725524902,65,-9999,103139.93209125,0.9716644287109375,0.105194091796875,-0.0560455322265625,103139.92705525,-0.2019245583644811,1.546192168443961,-0.09470101981770818,0.006879331078380346,0.007745863869786263,0.003239457029849291,-0.02305686473846436,0.01053944230079651,-0.03215563297271729,2,-0.03660283601819403,-0.6974342364605474,0.1049471524017677,-0.7079771336776246,0.9952176809310913,0.09455953538417816,-0.02449143677949905,43.51739501953125,-28.4048957824707,3.20257568359375,2,103139.09993725,2,0,1582550251.258434,0,0,0,0,0,0,0,0,0,103137.296751,0,-2.55249,99.12743
1582550252.10207,18,0,1582550247.981439,41.20730592650001,29.07233430265877,161.3114,-1,-1,19.68582725524902,65,-9999,103139.94213125,0.97247314453125,0.1033935546875,-0.0569610595703125,103139.93709525,-0.2020072058820054,1.546325445331728,-0.0946618288603215,0.008215121924877167,0.01408549584448338,0.005244583357125521,-0.02356743812561035,0.010700523853302,-0.03173887729644775,2,-0.03665264780540295,-0.6974791312724498,0.1049604304084406,-0.7079284283462021,0.9952247738838196,0.09452051669359207,-0.02435888908803463,43.58543395996094,-28.37051773071289,3.229705810546875,2,103139.09993725,2,0,1582550251.258434,0,0,0,0,0,0,0,0,0,103137.296751,0,-2.55249,99.12743
1582550252.112093,19,0,1582550247.981439,41.20730592650001,29.07233430265877,161.3114,-1,-1,19.68582725524902,65,-9999,103139.95217125,0.976043701171875,0.1044158935546875,-0.0540008544921875,103139.94713625,-0.2020942776444354,1.54647676274588,-0.09462860456397723,0.008290223777294159,0.01741737686097622,0.004991316702216864,-0.0232386589050293,0.008978843688964844,-0.03265231847763062,2,-0.03670282135602926,-0.6975304413171488,0.1049769984478777,-0.7078728673213512,0.9952316284179688,0.09448744356632233,-0.02420837245881557,43.58543395996094,-28.37051773071289,3.229705810546875,2,103139.09993725,2,0,1582550251.258434,0,0,0,0,0,0,0,0,0,103137.296751,0,-2.55249,99.12743
1582550252.14432,20,0,1582550247.981439,41.20730592650001,29.07233430265877,161.3114,-1,-1,19.68582725524902,65,-9999,103139.96224225,0.9786376953125,0.1020355224609375,-0.055023193359375,103139.95717625,-0.2021769958761622,1.546600577858516,-0.09462968158426703,0.008288709446787834,0.0130828469991684,-0.0002378728240728378,-0.02003729343414307,0.009984850883483887,-0.03099048137664795,2,-0.03673778937851252,-0.6975727651437863,0.1050043745461482,-0.707825255138673,0.995234489440918,0.09448851644992828,-0.02408514358103275,43.55801391601562,-28.176513671875,3.284637451171875,2,103139.09993725,2,0,1582550251.258434,0,0,0,0,0,0,0,0,0,103137.296751,0,-2.55249,99.12743
1582550252.145595,21,0,1582550247.981439,41.20730592650001,29.07233430265877,161.3114,-1,-1,19.68582725524902,65,-9999,103139.97228225,0.9791259765625,0.100860595703125,-0.05572509765625,103139.96721625,-0.2022145007419653,1.546738519292686,-0.09464767890830977,0.002629226539283991,0.01524027436971664,-0.0002927337773144245,-0.01678889989852905,0.008013755083084106,-0.03027331829071045,2,-0.03675167892100784,-0.697621246524557,0.1050213265139441,-0.7077742927617652,0.9952362179756165,0.09450642764568329,-0.0239478200674057,43.55801391601562,-28.176513671875,3.284637451171875,2,103139.09993725,2,0,1582550251.258434,0,0,0,0,0,0,0,0,0,103137.296751,0,-2.55249,99.12743
1582550252.146598,22,0,1582550247.981439,41.20730592650001,29.07233430265877,161.3114,-1,-1,19.68582725524902,65,-9999,103139.98232325,0.9775543212890625,0.102203369140625,-0.051910400390625,103139.97725725,-0.202224024433987,1.546830345759811,-0.09468571588378479,-0.0001490634167566895,0.009898478165268898,-0.00210564723238349,-0.01634496450424194,0.006251722574234009,-0.03239423036575317,2,-0.03674623853927095,-0.697654313794046,0.1050361487927768,-0.7077397538806296,0.9952347278594971,0.09454429894685745,-0.02385634556412697,43.81793212890625,-28.28484725952148,3.333587646484375,2,103139.09993725,2,0,1582550251.258434,0,0,0,0,0,0,0,0,0,103137.296751,0,-2.55249,99.12743
1582550252.152297,23,0,1582550247.981439,41.20730592650001,29.07233430265877,161.3114,-1,-1,19.68582725524902,65,-9999,103139.99236325,0.9764556884765625,0.102294921875,-0.0515594482421875,103139.98729725,-0.202228577844773,1.546861330180655,-0.09472628776388198,-0.0001458675833418965,0.00449465773999691,-0.002832423895597458,-0.01718103885650635,0.007386207580566406,-0.0289766788482666,2,-0.03673496221219358,-0.6976659906598937,0.1050512050742927,-0.707726589857351,0.9952316284179688,0.09458468854427338,-0.02382541634142399,43.81793212890625,-28.28484725952148,3.333587646484375,2,103139.09993725,2,0,1582550251.258434,0,0,0,0,0,0,0,0,0,103137.296751,0,-2.55249,99.12743
1582550252.162355,24,0,1582550247.981439,41.20730592650001,29.07233430265877,161.3114,-1,-1,19.68582725524902,65,-9999,103140.00240325,0.9725799560546875,0.104217529296875,-0.05267333984375,103139.99733725,-0.2022537576187803,1.546834079778872,-0.09475760243942062,0.002169529907405376,-0.001211415976285934,-0.001588949933648109,-0.01867282390594482,0.007614403963088989,-0.02754580974578857,2,-0.03673113138614992,-0.6976564997945968,0.1050714335889197,-0.7077331125376168,0.9952279925346375,0.09461586177349091,-0.02385246381163597,43.61936950683594,-28.2923469543457,3.282867431640625,2,103139.09993725,2,0,1582550251.258434,0,0,0,0,0,0,0,0,0,103137.296751,0,-2.55249,99.12743
1582550252.172365,25,0,1582550247.981439,41.20730592650001,29.07233430265877,161.3114,-1,-1,19.68582725524902,65,-9999,103140.01244325,0.9676666259765625,0.1060943603515625,-0.0540008544921875,103140.00740825,-0.2023193180765034,1.546799355994872,-0.0947911980511959,0.006905162706971169,-0.001720879226922989,-0.002457406837493181,-0.0216594934463501,0.009076356887817383,-0.0289151668548584,2,-0.03674017665934148,-0.6976436672631711,0.1051068758129098,-0.7077400164095745,0.9952239990234375,0.0946493074297905,-0.02388694509863853,43.61936950683594,-28.2923469543457,3.282867431640625,2,103139.09993725,2,0,1582550251.258434,0,0,0,0,0,0,0,0,0,103137.296751,0,-2.55249,99.12743
1582550252.2026,26,0,1582550247.981439,41.20730592650001,29.07233430265877,161.3114,-1,-1,19.68582725524902,65,-9999,103140.02250275,0.970062255859375,0.1063232421875,-0.0551605224609375,103140.01744825,-0.2023868955839422,1.5467950772669,-0.09480887806500209,0.005534423515200615,0.000988885760307312,-0.001553627662360668,-0.02692204713821411,0.01114922761917114,-0.02961277961730957,2,-0.03675720508689662,-0.6976412582846248,0.1051369729542986,-0.7077370726035834,0.995222270488739,0.09466690570116043,-0.02389116585254669,43.76515197753906,-28.20526123046875,3.22174072265625,2,103139.09993725,2,0,1582550251.258434,0,0,0,0,0,0,0,0,0,103137.296751,0,-2.55249,99.12743
1582550252.204004,27,0,1582550247.981439,41.20730592650001,29.07233430265877,161.3114,-1,-1,19.68582725524902,65,-9999,103140.03254275,0.973388671875,0.10601806640625,-0.054779052734375,103140.02750775,-0.2024718573914365,1.546824369125066,-0.09480612348826864,0.009805867448449135,0.004974838346242905,0.0001406753435730934,-0.02626687288284302,0.01173180341720581,-0.03135097026824951,2,-0.0367893665844502,-0.6976500074344696,0.1051655483688479,-0.7077225226472822,0.9952231645584106,0.09466416388750076,-0.02386201918125153,43.76515197753906,-28.20526123046875,3.22174072265625,2,103139.09993725,2,0,1582550251.258434,0,0,0,0,0,0,0,0,0,103137.296751,0,-2.55249,99.12743
1582550252.205542,28,0,1582550247.981439,41.20730592650001,29.07233430265877,161.3114,-1,-1,19.68582725524902,65,-9999,103140.04258275,0.9752044677734375,0.105316162109375,-0.05419921875,103140.03754775,-0.2025343856884052,1.546850813255207,-0.09478016653642865,0.006369258742779493,0.004250973463058472,0.00364613626152277,-0.02219569683074951,0.01125407218933105,-0.03114831447601318,2,-0.03682184698788704,-0.6976577043915279,0.1051782253215977,-0.7077112989943715,0.9952262043952942,0.09463832527399063,-0.02383575774729252,43.78518676757812,-28.26937103271484,3.21905517578125,2,103139.09993725,2,0,1582550251.258434,0,0,0,0,0,0,0,0,0,103137.296751,0,-2.55249,99.12743
1582550252.212591,29,0,1582550247.981439,41.20730592650001,29.07233430265877,161.3114,-1,-1,19.68582725524902,65,-9999,103140.05262375,0.97747802734375,0.1034698486328125,-0.0554046630859375,103140.04758775,-0.2025948480524497,1.546878128559141,-0.09474948857239715,0.0062012136913836,0.004212623462080956,0.003482884727418423,-0.02067339420318604,0.01133042573928833,-0.03033590316772461,2,-0.03685532174445361,-0.6976656520772413,0.1051885154927724,-0.7077003024186819,0.9952298998832703,0.09460778534412384,-0.02380864694714546,43.78518676757812,-28.26937103271484,3.21905517578125,2,103139.09993725,2,0,1582550251.258434,0,0,0,0,0,0,0,0,0,103137.296751,0,-2.55249,99.12743
1582550252.223035,30,0,1582550247.981439,41.20730592650001,29.07233430265877,161.3114,-1,-1,19.68582725524902,65,-9999,103140.06266375,0.976654052734375,0.101654052734375,-0.05560302734375,103140.05762775,-0.2026470588085462,1.546947174495497,-0.09472696246222809,0.005568760447204113,0.008249184116721153,0.001987024210393429,-0.01814419031143188,0.009140372276306152,-0.03156435489654541,2,-0.03688521253558807,-0.6976886775888077,0.1051979362784477,-0.7076746450094192,0.9952336549758911,0.0945853590965271,-0.02373998053371906,43.79629516601562,-28.21269226074219,3.34033203125,2,103139.09993725,2,0,1582550251.258434,0,0,0,0,0,0,0,0,0,103137.296751,0,-2.55249,99.12743
1582550252.232458,31,0,1582550247.981439,41.20730592650001,29.07233430265877,161.3114,-1,-1,19.68582725524902,65,-9999,103140.07270375,0.9762420654296875,0.101318359375,-0.0550689697265625,103140.06766875,-0.2027034326701635,1.547076787640028,-0.09474293580215708,0.005663835443556309,0.01469216868281364,-0.001525685656815767,-0.01848137378692627,0.007430732250213623,-0.03207480907440186,2,-0.03690599473656997,-0.6977338127499879,0.1052210106533355,-0.7076256015661346,0.9952352046966553,0.09460125863552094,-0.02361094765365124,43.79629516601562,-28.21269226074219,3.34033203125,2,103139.09993725,2,0,1582550251.258434,0,0,0,0,0,0,0,0,0,103137.296751,0,-2.55249,99.12743
1582550252.265288,32,0,1582550247.981439,41.20730592650001,29.07233430265877,161.3114,-1,-1,19.68582725524902,65,-9999,103140.08277475,0.9751739501953125,0.102569580078125,-0.05413818359375,103140.07770875,-0.2027825625016986,1.547256437966313,-0.09478948860108213,0.008701170794665813,0.02078255265951157,-0.003215993987396359,-0.01892375946044922,0.006575614213943481,-0.03149080276489258,2,-0.03692643067808316,-0.69779682865889,0.1052617730348125,-0.7075563152460571,0.9952349662780762,0.0946476012468338,-0.02343204990029335,43.74929809570312,-28.32868576049805,3.300445556640625,2,103139.09993725,2,0,1582550251.258434,0,0,0,0,0,0,0,0,0,103137.296751,0,-2.55249,99.12743
1582550252.266932,33,0,1582550247.981439,41.20730592650001,29.07233430265877,161.3114,-1,-1,19.68582725524902,65,-9999,103140.09281475,0.9724884033203125,0.1050567626953125,-0.052734375,103140.08774875,-0.2028773788939835,1.547422486344661,-0.09487146702679436,0.008969084359705448,0.01833244413137436,-0.007619530893862247,-0.01965224742889404,0.007378995418548584,-0.03127479553222656,2,-0.03693898220348774,-0.6978554340736685,0.1053205723608285,-0.7074890795375151,0.9952310919761658,0.0947292149066925,-0.02326660975813866,43.74929809570312,-28.32868576049805,3.300445556640625,2,103139.09993725,2,0,1582550251.258434,0,0,0,0,0,0,0,0,0,103137.296751,0,-2.55249,99.12743
1582550252.268001,34,0,1582550247.981439,41.20730592650001,29.07233430265877,161.3114,-1,-1,19.68582725524902,65,-9999,103140.10285475,0.9701080322265625,0.1034393310546875,-0.05596923828125,103140.09778975,-0.2030285312554783,1.547638781342461,-0.09496535037505875,0.01568477787077427,0.0244276225566864,-0.008225400000810623,-0.02236425876617432,0.01027631759643555,-0.02981150150299072,2,-0.03696959510224163,-0.6979309987793313,0.1054024785227994,-0.7074007557056274,0.9952272176742554,0.09482267498970032,-0.02305114082992077,43.41732788085938,-28.30165481567383,3.208282470703125,2,103139.09993725,2,0,1582550251.258434,0,0,0,0,0,0,0,0,0,103137.296751,0,-2.55249,99.12743
1582550252.273658,35,0,1582550247.981439,41.20730592650001,29.07233430265877,161.3114,-1,-1,19.68582725524902,65,-9999,103140.11289575,0.97210693359375,0.10589599609375,-0.0511932373046875,103140.10782975,-0.2031988177325617,1.547894618453455,-0.09505275286222822,0.01711675897240639,0.02931319177150726,-0.008889325894415379,-0.02480322122573853,0.008709222078323364,-0.03270614147186279,2,-0.03701130144724202,-0.6980200543817691,0.1054881724391951,-0.7072979628053806,0.9952248334884644,0.09490968286991119,-0.02279633469879627,43.41732788085938,-28.30165481567383,3.208282470703125,2,103139.09993725,2,0,1582550251.258434,0,0,0,0,0,0,0,0,0,103137.296751,0,-2.55249,99.12743
1582550252.282664,36,0,1582550247.981439,41.20730592650001,29.07233430265877,161.3114,-1,-1,19.68582725524902,65,-9999,103140.12293575,0.970306396484375,0.105865478515625,-0.0553741455078125,103140.11786975,-0.2033789074735785,1.548160413575929,-0.09511134359626719,0.01865500211715698,0.02967564761638641,-0.005080206785351038,-0.02361351251602173,0.01020726561546326,-0.02961385250091553,2,-0.0370672655264524,-0.6981118654790417,0.1055671813867721,-0.7071926339260977,0.9952253103256226,0.09496800601482391,-0.02253168262541294,43.49087524414062,-28.18244171142578,3.3741455078125,2,103139.09993725,2,0,1582550251.258434,0,0,0,0,0,0,0,0,0,103137.296751,0,-2.55249,99.12743
1582550252.292806,37,0,1582550247.981439,41.20730592650001,29.07233430265877,161.3114,-1,-1,19.68582725524902,65,-9999,103140.13297575,0.974945068359375,0.102935791015625,-0.053802490234375,103140.12794075,-0.2035525896643555,1.548477849435027,-0.09518666635959455,0.01696122996509075,0.0345364473760128,-0.007006204687058926,-0.02483421564102173,0.01147499680519104,-0.03206640481948853,2,-0.03711778472788874,-0.6982223654074682,0.10564874231261,-0.7070685691865889,0.9952250719070435,0.09504298865795135,-0.0222155973315239,43.49087524414062,-28.18244171142578,3.3741455078125,2,103139.09993725,2,0,1582550251.258434,0,0,0,0,0,0,0,0,0,103137.296751,0,-2.55249,99.12743
1582550252.316589,38,0,1582550247.981439,41.20730592650001,29.07233430265877,161.3114,-1,-1,19.68582725524902,65,-9999,103140.14301675,0.9740753173828125,0.1062469482421875,-0.051605224609375,103140.13798075,-0.2037278486431569,1.548770721181537,-0.09524573203882987,0.01671861670911312,0.03232895582914352,-0.00492467824369669,-0.02137124538421631,0.007876217365264893,-0.03272402286529541,2,-0.03717336043383179,-0.6983238075517592,0.1057256708898648,-0.7069540622004704,0.9952260851860046,0.09510178864002228,-0.02192400209605694,43.60592651367188,-28.16848373413086,3.433685302734375,2,103139.09993725,2,0,1582550251.258434,0,0,0,0,0,0,0,0,0,103137.296751,0,-2.55249,99.12743
1582550252.317345,39,0,1582550247.981439,41.20730592650001,29.07233430265877,161.3114,-1,-1,19.68582725524902,65,-9999,103140.15305675,0.971038818359375,0.1038970947265625,-0.0565643310546875,103140.14802075,-0.2039201526748377,1.549107140956635,-0.09531353127486615,0.02004355564713478,0.03715566545724869,-0.006337676662951708,-0.02001416683197021,0.01061627268791199,-0.02979379892349243,2,-0.03723411488534295,-0.6984404755047267,0.1058108241770244,-0.7068228071183036,0.9952268600463867,0.09516928344964981,-0.02158904634416103,43.60592651367188,-28.16848373413086,3.433685302734375,2,103139.09993725,2,0,1582550251.258434,0,0,0,0,0,0,0,0,0,103137.296751,0,-2.55249,99.12743
1582550252.322997,40,0,1582550247.981439,41.20730592650001,29.07233430265877,161.3114,-1,-1,19.68582725524902,65,-9999,103140.16309675,0.976806640625,0.102203369140625,-0.055084228515625,103140.15806175,-0.204099516393551,1.549543282311755,-0.09542940915191554,0.01779751479625702,0.04799853265285492,-0.01147825643420219,-0.02446812391281128,0.009463310241699219,-0.0343785285949707,2,-0.03727849890402135,-0.6985935428897949,0.1059061489331662,-0.7066549400736506,0.995225191116333,0.09528463333845139,-0.02115475013852119,43.60354614257812,-28.14370346069336,3.435577392578125,2,103139.09993725,2,0,1582550251.258434,0,0,0,0,0,0,0,0,0,103137.296751,0,-2.55249,99.12743
1582550252.333294,41,0,1582550247.981439,41.20730592650001,29.07233430265877,161.3114,-1,-1,19.68582725524902,65,-9999,103140.17313675,0.979278564453125,0.1029815673828125,-0.0501861572265625,103140.16810175,-0.2042554732098971,1.549925407461131,-0.09555651405987053,0.01566964946687222,0.04113876074552536,-0.01210063695907593,-0.01958119869232178,0.006635963916778564,-0.0355372428894043,2,-0.03730788396012458,-0.6987281472483378,0.1059980808533356,-0.706506522242868,0.9952211380004883,0.09541115909814835,-0.02077419683337212,43.60354614257812,-28.14370346069336,3.435577392578125,2,103139.09993725,2,0,1582550251.258434,0,0,0,0,0,0,0,0,0,103137.296751,0,-2.55249,99.12743
1582550252.342966,42,0,1582550247.981439,41.20730592650001,29.07233430265877,161.3114,-1,-1,19.68582725524902,65,-9999,103140.18317775,0.977020263671875,0.1039581298828125,-0.0515899658203125,103140.17814175,-0.2043777135796427,1.550229412434801,-0.09566462068168527,0.01174299139529467,0.03325572609901428,-0.009730295278131962,-0.01609814167022705,0.007489711046218872,-0.03011798858642578,2,-0.03732815978031861,-0.6988353837291026,0.1060729830911469,-0.7063881064928796,0.9952170252799988,0.09551876783370972,-0.02047142945230007,43.89236450195312,-28.11800765991211,3.431610107421875,2,103139.09993725,2,0,1582550251.258434,0,0,0,0,0,0,0,0,0,103137.296751,0,-2.55249,99.12743
1582550252.352949,43,0,1582550247.981439,41.20730592650001,29.07233430265877,161.3114,-1,-1,19.68582725524902,65,-9999,103140.19324875,0.97625732421875,0.105255126953125,-0.0518341064453125,103140.18818275,-0.204467210464174,1.550513733832072,-0.09573190209040694,0.00827315915375948,0.0323859378695488,-0.006944362539798021,-0.01771485805511475,0.008277207612991333,-0.03099620342254639,2,-0.03735052469674732,-0.6989354545511643,0.1061225584114788,-0.7062804686541906,0.9952163696289062,0.09558574855327606,-0.02018833719193935,43.89236450195312,-28.11800765991211,3.431610107421875,2,103139.09993725,2,0,1582550251.258434,0,0,0,0,0,0,0,0,0,103137.296751,0,-2.55249,99.12743
1582550252.365669,44,0,1582550247.981439,41.20730592650001,29.07233430265877,161.3114,-1,-1,19.68582725524902,65,-9999,103140.20328875,0.9740447998046875,0.106842041015625,-0.0517425537109375,103140.19822275,-0.2045045952822114,1.55080235669576,-0.0957271782480542,0.004598080646246672,0.02858458645641804,0.001177770551294088,-0.01907920837402344,0.009182184934616089,-0.03244310617446899,2,-0.0373805842052482,-0.6990365795077518,0.1061287301862892,-0.706177918054115,0.9952226877212524,0.09558103978633881,-0.0199011042714119,43.73651123046875,-28.07571792602539,3.53662109375,2,103139.09993725,2,0,1582550251.258434,0,0,0,0,0,0,0,0,0,103137.296751,0,-2.55249,99.12743
1582550252.373291,45,0,1582550247.981439,41.20730592650001,29.07233430265877,161.3114,-1,-1,19.68582725524902,65,-9999,103140.21332875,0.9756927490234375,0.105712890625,-0.0488739013671875,103140.20826275,-0.2044911290300175,1.551126869397264,-0.09565165010474445,-0.001150352647528052,0.03666754812002182,0.00980428047478199,-0.02061891555786133,0.01127150654792786,-0.03151488304138184,2,-0.03742002395619809,-0.6991499130250567,0.106091772597269,-0.7060691227406581,0.9952362179756165,0.09550586342811584,-0.01957828179001808,43.73651123046875,-28.07571792602539,3.53662109375,2,103139.09993725,2,0,1582550251.258434,0,0,0,0,0,0,0,0,0,103137.296751,0,-2.55249,99.12743
1582550252.38308,46,0,1582550247.981439,41.20730592650001,29.07233430265877,161.3114,-1,-1,19.68582725524902,65,-9999,103140.22336875,0.976715087890625,0.1048736572265625,-0.0482940673828125,103140.21830275,-0.2044713376015716,1.551353173362976,-0.09551998451355273,-0.002671862952411175,0.02288644574582577,0.01433414220809937,-0.02088010311126709,0.01073113083839417,-0.03091597557067871,2,-0.03747203220389922,-0.6992275712731451,0.1060349758915518,-0.7059980281091612,0.9952532649040222,0.09537479281425476,-0.01935330033302307,43.73359680175781,-27.98386764526367,3.727996826171875,2,103139.09993725,2,0,1582550251.258434,0,0,0,0,0,0,0,0,0,103137.296751,0,-2.55249,99.12743
1582550252.393223,47,0,1582550247.981439,41.20730592650001,29.07233430265877,161.3114,-1,-1,19.68582725524902,65,-9999,103140.23340975,0.9737548828125,0.1048431396484375,-0.0532379150390625,103140.22834375,-0.2044613894631482,1.551669183481152,-0.09534970175844115,-0.0008398744976148009,0.03476414829492569,0.0179991852492094,-0.01777434349060059,0.009573131799697876,-0.02823948860168457,2,-0.03754598537466608,-0.6993359339909272,0.1059665903969597,-0.7058970574638794,0.995275616645813,0.09520528465509415,-0.01903910003602505,43.66436767578125,-28.18986129760742,3.623504638671875,2,103139.09993725,2,0,1582550251.258434,0,0,0,0,0,0,0,0,0,103137.296751,0,-2.55249,99.12743
1582550252.403283,48,0,1582550247.981439,41.20730592650001,29.07233430265877,161.3114,-1,-1,19.68582725524902,65,-9999,103140.24344975,0.983154296875,0.1047515869140625,-0.04443359375,103140.23838375,-0.2044559475268119,1.551964443486278,-0.09512768497220331,0.0003308836603537202,0.03281712532043457,0.0237752627581358,-0.02193605899810791,0.009809404611587524,-0.03443807363510132,2,-0.0376388370074438,-0.6994358458878672,0.1058822550381799,-0.7058057098821681,0.9953022003173828,0.0949842780828476,-0.01874563097953796,43.66436767578125,-28.18986129760742,3.623504638671875,2,103139.09993725,2,0,1582550251.258434,0,0,0,0,0,0,0,0,0,103137.296751,0,-2.55249,99.12743
1582550252.413258,49,0,1582550247.981439,41.20730592650001,29.07233430265877,161.3114,-1,-1,19.68582725524902,65,-9999,103140.25348975,0.980621337890625,0.1027374267578125,-0.0447998046875,103140.24845475,-0.2044161041707726,1.552089718073451,-0.09485199520113195,-0.004099817480891943,0.009293155744671822,0.02967602945864201,-0.01404529809951782,0.01003813743591309,-0.02809244394302368,2,-0.03772975235928194,-0.6994753379093486,0.1057703688800107,-0.705778537218346,0.9953307509422302,0.09470982849597931,-0.01862143538892269,43.96630859375,-28.24241638183594,3.56500244140625,2,103139.09993725,2,0,1582550251.258434,0,0,0,0,0,0,0,0,0,103137.296751,0,-2.55249,99.12743
1582550252.42763,50,0,1582550247.981439,41.20730592650001,29.07233430265877,161.3114,-1,-1,19.68582725524902,65,-9999,103140.26352975,0.975128173828125,0.10302734375,-0.053466796875,103140.25849475,-0.204359635036852,1.552292644572431,-0.09456984973788499,-0.003908168524503708,0.02357460558414459,0.02937421388924122,-0.01288563013076782,0.008732110261917114,-0.02423512935638428,2,-0.03782123870128934,-0.6995424065479925,0.1056488975482251,-0.705725416584517,0.9953612685203552,0.09442894905805588,-0.01841995120048523,43.96630859375,-28.24241638183594,3.56500244140625,2,103139.09993725,2,0,1582550251.258434,0,0,0,0,0,0,0,0,0,103137.296751,0,-2.55249,99.12743
1582550252.433351,51,0,1582550247.981439,41.20730592650001,29.07233430265877,161.3114,-1,-1,19.68582725524902,65,-9999,103140.27357075,0.9787139892578125,0.1017303466796875,-0.0462646484375,103140.26853475,-0.204266498823038,1.55242723381019,-0.09429039809138497,-0.007850179448723793,0.01268813386559486,0.02863864786922932,-0.02048277854919434,0.008720427751541138,-0.03555333614349365,2,-0.03789531693664328,-0.6995860993573152,0.1055166998067184,-0.7056978885374132,0.9953900575637817,0.09415074437856674,-0.01828646846115589,43.72468566894531,-28.21353912353516,3.63800048828125,2,103139.09993725,2,0,1582550251.258434,0,0,0,0,0,0,0,0,0,103137.296751,0,-2.55249,99.12743
1582550252.443413,52,0,1582550247.981439,41.20730592650001,29.07233430265877,161.3114,-1,-1,19.68582725524902,65,-9999,103140.28361075,0.9756927490234375,0.101348876953125,-0.0513458251953125,103140.27857575,-0.2041334519976909,1.552536814090536,-0.09401114469772411,-0.0114090833812952,0.01066815666854382,0.0299851018935442,-0.01694035530090332,0.007991313934326172,-0.02878022193908691,2,-0.03795402981805779,-0.6996217231823805,0.1053709512803913,-0.7056811530039487,0.9954182505607605,0.09387272596359253,-0.01817787252366543,43.72468566894531,-28.21353912353516,3.63800048828125,2,103139.09993725,2,0,1582550251.258434,0,0,0,0,0,0,0,0,0,103137.296751,0,-2.55249,99.12743
1582550252.453484,53,0,1582550247.981439,41.20730592650001,29.07233430265877,161.3114,-1,-1,19.68582725524902,65,-9999,103140.29365075,0.97601318359375,0.1017608642578125,-0.0492706298828125,103140.28861575,-0.2039527238898487,1.552684304294703,-0.09374850936711435,-0.01759640499949455,0.01585626043379307,0.02817601524293423,-0.019012451171875,0.007688254117965698,-0.032420814037323,2,-0.03799211260564062,-0.6996719567458394,0.1052134012686615,-0.7056528560449007,0.9954456090927124,0.09361124783754349,-0.01803150400519371,43.80181884765625,-28.14218902587891,3.553192138671875,2,103139.09993725,2,0,1582550251.258434,0,0,0,0,0,0,0,0,0,103137.296751,0,-2.55249,99.12743
1582550252.463431,54,0,1582550247.981439,41.20730592650001,29.07233430265877,161.3114,-1,-1,19.68582725524902,65,-9999,103140.30369175,0.9746246337890625,0.10260009765625,-0.0477752685546875,103140.29865575,-0.2037542257491247,1.552763931951392,-0.09349079934457347,-0.01989958621561527,0.00545179657638073,0.02728775888681412,-0.01999938488006592,0.008204251527786255,-0.03260684013366699,2,-0.0380186550483006,-0.69969868267803,0.1050525765294504,-0.7056487542940783,0.9954709410667419,0.09335466474294662,-0.01795267127454281,43.80181884765625,-28.14218902587891,3.553192138671875,2,103139.09993725,2,0,1582550251.258434,0,0,0,0,0,0,0,0,0,103137.296751,0,-2.55249,99.12743
1582550252.473616,55,0,1582550247.981439,41.20730592650001,29.07233430265877,161.3114,-1,-1,19.68582725524902,65,-9999,103140.31376175,0.97442626953125,0.101165771484375,-0.050262451171875,103140.30869675,-0.2035466043805781,1.552846919767387,-0.09322488696225507,-0.01987242139875889,0.008061960339546204,0.02864889800548553,-0.02031552791595459,0.009384572505950928,-0.02956092357635498,2,-0.03804507827483622,-0.6997266040504631,0.104885614111145,-0.7056444661826701,0.9954971671104431,0.09308990836143494,-0.01787050254642963,43.68901062011719,-28.35416030883789,3.529937744140625,2,103139.09993725,2,0,1582550251.258434,0,0,0,0,0,0,0,0,0,103137.296751,0,-2.55249,99.12743
1582550252.48586,56,0,1582550247.981439,41.20730592650001,29.07233430265877,161.3114,-1,-1,19.68582725524902,65,-9999,103140.32380275,0.9750823974609375,0.101348876953125,-0.04962158203125,103140.31873675,-0.2032938052319177,1.55292826397195,-0.09296585086574517,-0.02518395707011223,0.007692055776715279,0.02693934924900532,-0.02133285999298096,0.008879601955413818,-0.03222000598907471,2,-0.03805313522118131,-0.6997549428109326,0.1047051131883215,-0.7056428310682208,0.9955228567123413,0.09283199906349182,-0.01778995804488659,43.68901062011719,-28.35416030883789,3.529937744140625,2,103139.09993725,2,0,1582550251.258434,0,0,0,0,0,0,0,0,0,103137.296751,0,-2.55249,99.12743
1582550252.493689,57,0,1582550247.981439,41.20730592650001,29.07233430265877,161.3114,-1,-1,19.68582725524902,65,-9999,103140.33384275,0.97442626953125,0.1007232666015625,-0.05084228515625,103140.32877675,-0.2030052439480138,1.553017400691889,-0.09270970031445171,-0.02810198254883289,0.005478169769048691,0.02701445110142231,-0.0203511118888855,0.008249610662460327,-0.03214043378829956,2,-0.03804805024973101,-0.6997867705840317,0.1045128417201999,-0.7056400823104129,0.9955481886863708,0.09257695078849792,-0.01770164258778095,43.63888549804688,-28.23783874511719,3.537933349609375,2,103139.09993725,2,0,1582550251.258434,0,0,0,0,0,0,0,0,0,103137.296751,0,-2.55249,99.12743
1582550252.503698,58,0,1582550247.981439,41.20730592650001,29.07233430265877,161.3114,-1,-1,19.68582725524902,65,-9999,103140.34388275,0.97576904296875,0.09991455078125,-0.0513916015625,103140.33881675,-0.2026830792287184,1.553184685939043,-0.09247974737902384,-0.03151793405413628,0.01588446088135242,0.02313408255577087,-0.02129089832305908,0.008798986673355103,-0.03270357847213745,2,-0.03802595496624361,-0.6998473333755647,0.1043163089063855,-0.7056101519463296,0.9955722093582153,0.09234797954559326,-0.01753547415137291,43.63888549804688,-28.23783874511719,3.537933349609375,2,103139.09993725,2,0,1582550251.258434,0,0,0,0,0,0,0,0,0,103137.296751,0,-2.55249,99.12743
1582550252.513654,59,0,1582550247.981439,41.20730592650001,29.07233430265877,161.3114,-1,-1,19.68582725524902,65,-9999,103140.35392375,0.9756927490234375,0.101593017578125,-0.049224853515625,103140.34885775,-0.2023501896309808,1.553362029008149,-0.09224631366849496,-0.03262527659535408,0.01455581001937389,0.02439242601394653,-0.02009475231170654,0.007520794868469238,-0.03457355499267578,2,-0.03800182385509271,-0.6999115773995241,0.1041145854472659,-0.7055775121756832,0.9955968260765076,0.09211554378271103,-0.01735929027199745,43.62187194824219,-28.19017028808594,3.518951416015625,2,103139.09993725,2,0,1582550251.258434,0,0,0,0,0,0,0,0,0,103137.296751,0,-2.55249,99.12743
1582550252.523802,60,0,1582550247.981439,41.20730592650001,29.07233430265877,161.3114,-1,-1,19.68582725524902,65,-9999,103140.36396375,0.9737701416015625,0.1025238037109375,-0.0478973388671875,103140.35889775,-0.2019935071763689,1.55359070803775,-0.09200387478807816,-0.03626668453216553,0.02102091163396835,0.02512672170996666,-0.01977026462554932,0.009455949068069458,-0.03252720832824707,2,-0.0379751910599509,-0.6999942019591068,0.1039003632550042,-0.7055286654831282,0.9956232309341431,0.0918741300702095,-0.01713200472295284,43.62187194824219,-28.19017028808594,3.518951416015625,2,103139.09993725,2,0,1582550251.258434,0,0,0,0,0,0,0,0,0,103137.296751,0,-2.55249,99.12743
1582550252.533711,61,0,1582550247.981439,41.20730592650001,29.07233430265877,161.3114,-1,-1,19.68582725524902,65,-9999,103140.37400375,0.9724884033203125,0.1041107177734375,-0.0461273193359375,103140.36896875,-0.201655704272285,1.553845974091889,-0.09172670560857618,-0.03349779546260834,0.02405638247728348,0.02886287122964859,-0.02146315574645996,0.01060172915458679,-0.03134667873382568,2,-0.037968871352558,-0.7000851533963834,0.1036802567065406,-0.7054711320920701,0.995652973651886,0.09159813076257706,-0.0168782863765955,43.73497009277344,-28.49778366088867,3.49444580078125,2,103139.09993725,2,0,1582550251.258434,0,0,0,0,0,0,0,0,0,103137.296751,0,-2.55249,99.12743
1582550252.54696,62,0,1582550247.981439,41.20730592650001,29.07233430265877,161.3114,-1,-1,19.68582725524902,65,-9999,103140.38404375,0.9733123779296875,0.104156494140625,-0.045013427734375,103140.37900875,-0.2013463003910436,1.554093943416353,-0.09141474352024241,-0.03028063103556633,0.02385370247066021,0.03174275159835815,-0.0231589674949646,0.01265192031860352,-0.03000617027282715,2,-0.03798445217434282,-0.7001722982946521,0.1034582355953101,-0.7054163172475501,0.9956855177879333,0.09128747880458832,-0.01663186773657799,43.73497009277344,-28.49778366088867,3.49444580078125,2,103139.09993725,2,0,1582550251.258434,0,0,0,0,0,0,0,0,0,103137.296751,0,-2.55249,99.12743
1582550252.553926,63,0,1582550247.981439,41.20730592650001,29.07233430265877,161.3114,-1,-1,19.68582725524902,65,-9999,103140.39408475,0.97283935546875,0.105865478515625,-0.044281005859375,103140.38904875,-0.201061857824285,1.554331811034892,-0.09105004409695258,-0.02728644013404846,0.0229258555918932,0.03793619945645332,-0.02252483367919922,0.01298466324806213,-0.0287775993347168,2,-0.03802694403254225,-0.7002543561691277,0.1032268949962564,-0.7053665947980071,0.9957228899002075,0.09092429280281067,-0.01639557629823685,43.52716064453125,-28.34969329833984,3.500640869140625,2,103139.09993725,2,0,1582550251.258434,0,0,0,0,0,0,0,0,0,103137.296751,0,-2.55249,99.12743
1582550252.563913,64,0,1582550247.981439,41.20730592650001,29.07233430265877,161.3114,-1,-1,19.68582725524902,65,-9999,103140.40412475,0.9747314453125,0.103424072265625,-0.041015625,103140.39908975,-0.2007975872963777,1.554474697582531,-0.0906464471860169,-0.02477435395121574,0.01310386694967747,0.04195195063948631,-0.02312839031219482,0.01517182588577271,-0.0286141037940979,2,-0.03808540955431389,-0.7003017581757586,0.1029909692191127,-0.7053508555440373,0.9957618117332458,0.09052236378192902,-0.01625389792025089,43.52716064453125,-28.34969329833984,3.500640869140625,2,103139.09993725,2,0,1582550251.258434,0,0,0,0,0,0,0,0,0,103137.296751,0,-2.55249,99.12743
1582550252.574019,65,0,1582550247.981439,41.20730592650001,29.07233430265877,161.3114,-1,-1,19.68582725524902,65,-9999,103140.41416475,0.9753265380859375,0.10040283203125,-0.04541015625,103140.40912975,-0.2005408948356417,1.554559141958664,-0.09024681240410512,-0.0246497169137001,0.00823933444917202,0.04068455100059509,-0.02147203683853149,0.01416602730751038,-0.02497446537017822,2,-0.03814208267194008,-0.7003284820994151,0.1027601860573132,-0.7053549062849124,0.9957992434501648,0.09012436121702194,-0.01617039740085602,43.70542907714844,-28.46380615234375,3.426239013671875,2,103139.09993725,2,0,1582550251.258434,0,0,0,0,0,0,0,0,0,103137.296751,0,-2.55249,99.12743
1582550252.5839,66,0,1582550247.981439,41.20730592650001,29.07233430265877,161.3114,-1,-1,19.68582725524902,65,-9999,103140.42420575,0.9793853759765625,0.0982208251953125,-0.0428924560546875,103140.41916975,-0.2002730344304582,1.554580141561273,-0.08986758202142874,-0.02719881013035774,0.000284731388092041,0.03814464807510376,-0.020591139793396,0.01083576679229736,-0.02865719795227051,2,-0.03818432310707642,-0.7003334486664099,0.1025337445182776,-0.7053805208556776,0.9958335161209106,0.08974666893482208,-0.01615003682672977,43.70542907714844,-28.46380615234375,3.426239013671875,2,103139.09993725,2,0,1582550251.258434,0,0,0,0,0,0,0,0,0,103137.296751,0,-2.55249,99.12743
1582550252.594039,67,0,1582550247.981439,41.20730592650001,29.07233430265877,161.3114,-1,-1,19.68582725524902,65,-9999,103140.43427575,0.9765472412109375,0.096771240234375,-0.048614501953125,103140.42920975,-0.2000118787774931,1.554592485655582,-0.08951323834016116,-0.02564645372331142,0.000592326745390892,0.03630759567022324,-0.01712882518768311,0.009357661008834839,-0.02712786197662354,2,-0.03821959487227938,-0.700335729114544,0.102318450984217,-0.7054076208820956,0.9958654642105103,0.08939374983310699,-0.01613825745880604,43.58699035644531,-28.49922943115234,3.350372314453125,2,103139.09993725,2,0,1582550251.258434,0,0,0,0,0,0,0,0,0,103137.296751,0,-2.55249,99.12743
1582550252.606439,68,0,1582550247.981439,41.20730592650001,29.07233430265877,161.3114,-1,-1,19.68582725524902,65,-9999,103140.44431675,0.98046875,0.0965118408203125,-0.045013427734375,103140.43925075,-0.199767852162178,1.554625068034051,-0.08921748930790234,-0.02322610653936863,0.003423016518354416,0.02979107759892941,-0.01865112781524658,0.007744967937469482,-0.03138649463653564,2,-0.03824103922503991,-0.7003459883459134,0.1021291316842881,-0.705423784659686,0.9958924651145935,0.08909917622804642,-0.01610623858869076,43.58699035644531,-28.49922943115234,3.350372314453125,2,103139.09993725,2,0,1582550251.258434,0,0,0,0,0,0,0,0,0,103137.296751,0,-2.55249,99.12743
1582550252.614077,69,0,1582550247.981439,41.20730592650001,29.07233430265877,161.3114,-1,-1,19.68582725524902,65,-9999,103140.45435675,0.979949951171875,0.0972747802734375,-0.0437164306640625,103140.44929075,-0.1995218696229549,1.554577676251786,-0.08893974652430757,-0.02438884228467941,-0.005765154957771301,0.02810955606400967,-0.01684403419494629,0.007731705904006958,-0.03016400337219238,2,-0.0382513174585149,-0.7003284360817541,0.101946896403494,-0.7054670021587234,0.9959164261817932,0.08882253617048264,-0.01615383662283421,43.408935546875,-28.39877510070801,3.553070068359375,2,103139.09993725,2,0,1582550251.258434,0,0,0,0,0,0,0,0,0,103137.296751,0,-2.55249,99.12743
1582550252.624085,70,0,1582550247.981439,41.20730592650001,29.07233430265877,161.3114,-1,-1,19.68582725524902,65,-9999,103140.46439675,0.972747802734375,0.100677490234375,-0.048309326171875,103140.45933075,-0.199291887972557,1.554584515248428,-0.08867245900158197,-0.02288187481462955,0.001215776428580284,0.027535205706954,-0.01474678516387939,0.00827258825302124,-0.02699661254882812,2,-0.03826625081629137,-0.7003299149173469,0.1017728916008497,-0.7054897929409057,0.9959401488304138,0.08855630457401276,-0.01614740863442421,43.408935546875,-28.39877510070801,3.553070068359375,2,103139.09993725,2,0,1582550251.258434,0,0,0,0,0,0,0,0,0,103137.296751,0,-2.55249,99.12743
1582550252.634143,71,0,1582550247.981439,41.20730592650001,29.07233430265877,161.3114,-1,-1,19.68582725524902,65,-9999,103140.47443675,0.9737701416015625,0.099761962890625,-0.047210693359375,103140.46937175,-0.1991012006102005,1.554702653714033,-0.08842327024248185,-0.01836835034191608,0.01209772005677223,0.02661029063165188,-0.0222933292388916,0.01175564527511597,-0.03196620941162109,2,-0.03829414957398575,-0.7003702632756248,0.1016168882729693,-0.7054707360270981,0.9959641098976135,0.08830808848142624,-0.01603010483086109,43.744140625,-28.47583198547363,3.509063720703125,2,103139.09993725,2,0,1582550251.258434,0,0,0,0,0,0,0,0,0,103137.296751,0,-2.55249,99.12743
1582550252.644209,72,0,1582550247.981439,41.20730592650001,29.07233430265877,161.3114,-1,-1,19.68582725524902,65,-9999,103140.48447775,0.9746856689453125,0.0986480712890625,-0.0460968017578125,103140.47944175,-0.1989685088023495,1.554889959014857,-0.08820380099317301,-0.01206269394606352,0.01767784357070923,0.02363568916916847,-0.02286481857299805,0.01231002807617188,-0.03172492980957031,2,-0.03833527095601436,-0.7004344898627615,0.1014903207544889,-0.7054230331157628,0.9959865808486938,0.0880894735455513,-0.01584386453032494,43.744140625,-28.47583198547363,3.509063720703125,2,103139.09993725,2,0,1582550251.258434,0,0,0,0,0,0,0,0,0,103137.296751,0,-2.55249,99.12743
1582550252.654255,73,0,1582550247.981439,41.20730592650001,29.07233430265877,161.3114,-1,-1,19.68582725524902,65,-9999,103140.49451775,0.9750213623046875,0.09930419921875,-0.0462799072265625,103140.48948275,-0.1988675395685808,1.555174027446731,-0.08800888803354182,-0.01059502642601728,0.02944608777761459,0.02140316180884838,-0.02128434181213379,0.01082566380500793,-0.03055828809738159,2,-0.03838366730456599,-0.7005327211421521,0.1013816070008761,-0.7053383758492767,0.996008038520813,0.08789531886577606,-0.01556120160967112,43.41923522949219,-28.4075756072998,3.689605712890625,2,103139.09993725,2,0,1582550251.258434,0,0,0,0,0,0,0,0,0,103137.296751,0,-2.55249,99.12743
1582550252.665844,74,0,1582550247.981439,41.20730592650001,29.07233430265877,161.3114,-1,-1,19.68582725524902,65,-9999,103140.50455775,0.9788665771484375,0.0994873046875,-0.043212890625,103140.49952275,-0.1988199427965962,1.555467322628056,-0.08782917865023934,-0.005112571641802788,0.02994118444621563,0.01816812343895435,-0.02171659469604492,0.0114472508430481,-0.03121614456176758,2,-0.03844576981824127,-0.7006334723687355,0.1012967923496457,-0.7052472003894343,0.9960284829139709,0.08771630376577377,-0.01526932045817375,43.41923522949219,-28.4075756072998,3.689605712890625,2,103139.09993725,2,0,1582550251.258434,0,0,0,0,0,0,0,0,0,103137.296751,0,-2.55249,99.12743
1582550252.674429,75,0,1582550247.981439,41.20730592650001,29.07233430265877,161.3114,-1,-1,19.68582725524902,65,-9999,103140.51459875,0.974639892578125,0.1022186279296875,-0.0428924560546875,103140.50956275,-0.1988313239809081,1.555773589120436,-0.08759566322780775,0.0008292072452604771,0.03350476175546646,0.02386675588786602,-0.01739299297332764,0.01181712746620178,-0.02878975868225098,2,-0.03854831909709999,-0.7007365691396419,0.1012138263128511,-0.7051510173972143,0.9960534572601318,0.08748368918895721,-0.0149645758792758,43.56184387207031,-28.60702323913574,3.64434814453125,2,103139.09993725,2,0,1582550251.258434,0,0,0,0,0,0,0,0,0,103137.296751,0,-2.55249,99.12743
1582550252.684346,76,0,1582550247.981439,41.20730592650001,29.07233430265877,161.3114,-1,-1,19.68582725524902,65,-9999,103140.52463875,0.9758148193359375,0.102630615234375,-0.0388641357421875,103140.51960275,-0.198921067795526,1.556015675872551,-0.08728644747650734,0.009877447038888931,0.02627611719071865,0.03126241266727448,-0.02055168151855469,0.01467341184616089,-0.02846592664718628,2,-0.03870196666335746,-0.7008139811377252,0.1011334004022785,-0.7050772230775469,0.9960840940475464,0.087175652384758,-0.01472384296357632,43.56184387207031,-28.60702323913574,3.64434814453125,2,103139.09993725,2,0,1582550251.258434,0,0,0,0,0,0,0,0,0,103137.296751,0,-2.55249,99.12743
1582550252.694428,77,0,1582550247.981439,41.20730592650001,29.07233430265877,161.3114,-1,-1,19.68582725524902,65,-9999,103140.53467875,0.978485107421875,0.1003875732421875,-0.0408782958984375,103140.52964375,-0.1990774544315644,1.556152220449391,-0.08691097093469723,0.01672576740384102,0.01459069736301899,0.03845694288611412,-0.02144110202789307,0.01608502864837646,-0.02501595020294189,2,-0.03889717747267485,-0.7008515206900796,0.1010554667699347,-0.7050403184389732,0.9961187243461609,0.08680159598588943,-0.01458831131458282,43.55998229980469,-28.56791114807129,3.381988525390625,2,103139.09993725,2,0,1582550251.258434,0,0,0,0,0,0,0,0,0,103137.296751,0,-2.55249,99.12743
1582550252.704505,78,0,1582550247.981439,41.20730592650001,29.07233430265877,161.3114,-1,-1,19.68582725524902,65,-9999,103140.54471875,0.977447509765625,0.0963592529296875,-0.04376220703125,103140.53968375,-0.1992182555312181,1.556224160514094,-0.08652658271065498,0.01369746774435043,0.00853927806019783,0.03881674259901047,-0.01753854751586914,0.01446908712387085,-0.02555990219116211,2,-0.03908680790776525,-0.700866358719509,0.1009701735160094,-0.7050274007567773,0.9961531758308411,0.08641865104436874,-0.01451713778078556,43.55998229980469,-28.56791114807129,3.381988525390625,2,103139.09993725,2,0,1582550251.258434,0,0,0,0,0,0,0,0,0,103137.296751,0,-2.55249,99.12743
1582550252.714509,79,0,1582550247.981439,41.20730592650001,29.07233430265877,161.3114,-1,-1,19.68582725524902,65,-9999,103140.55478975,0.975616455078125,0.0917816162109375,-0.0488433837890625,103140.54972375,-0.1993196106676259,1.55634118531498,-0.08617731474196008,0.01063776202499866,0.01515643484890461,0.03652269765734673,-0.0185316801071167,0.01149070262908936,-0.02862119674682617,2,-0.03925241314846967,-0.7008985304387521,0.1008822838905355,-0.7049987079281828,0.9961848855018616,0.08607068657875061,-0.01440099626779556,43.59107971191406,-28.75118446350098,3.6719970703125,2,103139.09993725,2,0,1582550251.258434,0,0,0,0,0,0,0,0,0,103137.296751,0,-2.55249,99.12743
1582550252.726794,80,0,1582550247.981439,41.20730592650001,29.07233430265877,161.3114,-1,-1,19.68582725524902,65,-9999,103140.56483075,0.977630615234375,0.0887603759765625,-0.0458221435546875,103140.55976475,-0.1993845949141398,1.556458136851178,-0.08594000663838765,0.007711159996688366,0.01059916242957115,0.02464389055967331,-0.02078163623809814,0.006645947694778442,-0.03445947170257568,2,-0.03936544529899322,-0.7009336416255507,0.1008204478675111,-0.7049663589731394,0.9962069392204285,0.08583425730466843,-0.01428478304296732,43.59107971191406,-28.75118446350098,3.6719970703125,2,103139.09993725,2,0,1582550251.258434,0,0,0,0,0,0,0,0,0,103137.296751,0,-2.55249,99.12743
1582550252.734596,81,0,1582550247.981439,41.20730592650001,29.07233430265877,161.3114,-1,-1,19.68582725524902,65,-9999,103140.57487075,0.9741668701171875,0.090087890625,-0.051300048828125,103140.56980475,-0.1993940981177515,1.556665517475109,-0.08582500432795258,-0.0004575535422191024,0.02178230881690979,0.01217044331133366,-0.01861238479614258,0.004105508327484131,-0.03150731325149536,2,-0.03942010799848689,-0.701004201739997,0.1007797564044436,-0.7048989537384812,0.9962197542190552,0.08571968227624893,-0.01407832838594913,43.43370056152344,-28.62799263000488,3.528564453125,2,103139.09993725,2,0,1582550251.258434,0,0,0,0,0,0,0,0,0,103137.296751,0,-2.55249,99.12743
1582550252.744662,82,0,1582550247.981439,41.20730592650001,29.07233430265877,161.3114,-1,-1,19.68582725524902,65,-9999,103140.58491075,0.9743194580078125,0.0948638916015625,-0.04736328125,103140.57984475,-0.1993926399345538,1.556999328512715,-0.08576449032782778,-0.001404215814545751,0.03694234043359756,0.006653128657490015,-0.02132308483123779,0.003250271081924438,-0.03695154190063477,2,-0.0394579189389484,-0.7011206366983495,0.1007516300674899,-0.7047850894087437,0.9962296485900879,0.08565938472747803,-0.01374585088342428,43.43370056152344,-28.62799263000488,3.528564453125,2,103139.09993725,2,0,1582550251.258434,0,0,0,0,0,0,0,0,0,103137.296751,0,-2.55249,99.12743
1582550252.754833,83,0,1582550247.981439,41.20730592650001,29.07233430265877,161.3114,-1,-1,19.68582725524902,65,-9999,103140.59495075,0.973968505859375,0.0948486328125,-0.0430450439453125,103140.58988475,-0.1993852107558539,1.557319269547253,-0.08571020047938264,-0.0009693216998130083,0.03288181871175766,0.006688548717647791,-0.02226293087005615,0.008507639169692993,-0.03568339347839355,2,-0.0394907204793013,-0.7012324107065253,0.1007238284218553,-0.7046760303094656,0.996238648891449,0.08560530096292496,-0.01342717837542295,43.46092224121094,-28.92308616638184,3.652130126953125,2,103139.09993725,2,0,1582550251.258434,0,0,0,0,0,0,0,0,0,103137.296751,0,-2.55249,99.12743
1582550252.764747,84,0,1582550247.981439,41.20730592650001,29.07233430265877,161.3114,-1,-1,19.68582725524902,65,-9999,103140.60499175,0.975677490234375,0.0939178466796875,-0.0435028076171875,103140.59995575,-0.1993737090603996,1.557639551430228,-0.08567759442455115,-0.001115258201025426,0.03260219097137451,0.004065695684403181,-0.02204108238220215,0.009669303894042969,-0.02988362312316895,2,-0.03951439979362864,-0.7013448107183107,0.1007021156486178,-0.7045659483463005,0.9962456822395325,0.08557280898094177,-0.01310813706368208,43.46092224121094,-28.92308616638184,3.652130126953125,2,103139.09993725,2,0,1582550251.258434,0,0,0,0,0,0,0,0,0,103137.296751,0,-2.55249,99.12743
1582550252.774846,85,0,1582550247.981439,41.20730592650001,29.07233430265877,161.3114,-1,-1,19.68582725524902,65,-9999,103140.61503175,0.9772491455078125,0.0946502685546875,-0.04290771484375,103140.60999675,-0.1993652926269874,1.557954460771949,-0.08565239377791455,7.197901140898466e-05,0.03369222581386566,0.002977528143674135,-0.02119302749633789,0.008366823196411133,-0.0308079719543457,2,-0.03953626196155158,-0.7014553912613832,0.1006841688629904,-0.7044571268276389,0.9962518215179443,0.08554770052433014,-0.01279443595558405,43.36656188964844,-28.79299354553223,3.622222900390625,2,103139.09993725,2,0,1582550251.258434,0,0,0,0,0,0,0,0,0,103137.296751,0,-2.55249,99.12743
1582550252.792755,86,0,1582550247.981439,41.20730592650001,29.07233430265877,161.3114,-1,-1,19.68582725524902,65,-9999,103140.62507175,0.9768218994140625,0.0931243896484375,-0.0418243408203125,103140.62003675,-0.1993425344909231,1.558238172253321,-0.0856333092032112,-0.001378095243126154,0.03031747043132782,0.003269868902862072,-0.01927554607391357,0.009118258953094482,-0.030556321144104,2,-0.0395493304783478,-0.7015553760387852,0.1006639040523184,-0.7043598078953266,0.9962571859359741,0.08552868664264679,-0.01251180935651064,43.36656188964844,-28.79299354553223,3.622222900390625,2,103139.09993725,2,0,1582550251.258434,0,0,0,0,0,0,0,0,0,103137.296751,0,-2.55249,99.12743
1582550252.794826,87,0,1582550247.981439,41.20730592650001,29.07233430265877,161.3114,-1,-1,19.68582725524902,65,-9999,103140.63511275,0.97564697265625,0.0936279296875,-0.0396270751953125,103140.63007675,-0.1993002979045028,1.558440303522489,-0.08563500710494265,-0.004394924268126488,0.02074127271771431,7.22985714673996e-06,-0.01953732967376709,0.007789105176925659,-0.02996444702148438,2,-0.03954409600072312,-0.7016274289973388,0.1006456287420787,-0.7042908162770255,0.9962593913078308,0.08553037792444229,-0.01231043040752411,43.37318420410156,-28.82818031311035,3.709442138671875,2,103139.09993725,2,0,1582550251.258434,0,0,0,0,0,0,0,0,0,103137.296751,0,-2.55249,99.12743
1582550252.804959,88,0,1582550247.981439,41.20730592650001,29.07233430265877,161.3114,-1,-1,19.68582725524902,65,-9999,103140.64515275,0.9633636474609375,0.0982208251953125,-0.04754638671875,103140.64011675,-0.1992665196930454,1.558669869396317,-0.08560646446400884,-0.002857197308912873,0.02302734367549419,0.004460055846720934,-0.0195731520652771,0.007634401321411133,-0.02733975648880005,2,-0.03955392864645468,-0.7017083510983899,0.1006192661509215,-0.7042134435533719,0.9962646961212158,0.08550193905830383,-0.01208175346255302,43.37318420410156,-28.82818031311035,3.709442138671875,2,103139.09993725,2,0,1582550251.258434,0,0,0,0,0,0,0,0,0,103138.23787,0,-2.644974,99.12852
1582550252.814989,89,0,1582550247.981439,41.20730592650001,29.07233430265877,161.3114,-1,-1,19.68582725524902,65,-9999,103140.65519275,0.9645233154296875,0.09637451171875,-0.0460052490234375,103140.65015775,-0.1992531443099172,1.559060298086544,-0.08560067510582803,-0.0006941779283806682,0.04178903996944427,9.992904961109161e-05,-0.03027468919754028,0.01230934262275696,-0.03403055667877197,2,-0.03957093067823508,-0.7018459569779161,0.1006048194846109,-0.7040774216939396,0.9962698221206665,0.08549617230892181,-0.01169278845191002,43.50877380371094,-28.91551399230957,3.782440185546875,2,103139.09993725,2,0,1582550251.258434,0,0,0,0,0,0,0,0,0,103138.23787,0,-2.644974,99.12852
1582550252.825058,90,0,1582550247.981439,41.20730592650001,29.07233430265877,161.3114,-1,-1,19.68582725524902,65,-9999,103140.66523275,0.967132568359375,0.1043701171875,-0.045013427734375,103140.66019775,-0.1992270842114893,1.55950304160478,-0.08552074404137779,-0.002945898100733757,0.04282527416944504,0.009395405650138855,-0.03381156921386719,0.01112246513366699,-0.03624188899993896,2,-0.03961242924699043,-0.7020006906255178,0.1005590724754743,-0.7039273084130526,0.9962816834449768,0.0854165330529213,-0.01125177182257175,43.50877380371094,-28.91551399230957,3.782440185546875,2,103139.09993725,2,0,1582550251.258434,0,0,0,0,0,0,0,0,0,103138.23787,0,-2.644974,99.12852
1582550252.835154,91,0,1582550247.981439,41.20730592650001,29.07233430265877,161.3114,-1,-1,19.68582725524902,65,-9999,103140.67530375,0.9673004150390625,0.0983123779296875,-0.0465545654296875,103140.67023775,-0.1991453881815942,1.560109810139388,-0.08536766911707043,-0.009121769107878208,0.06382109969854355,0.01688341610133648,-0.02841460704803467,0.01765307784080505,-0.03356587886810303,2,-0.03966857421971215,-0.7022127214523227,0.1004650228937425,-0.703726017438257,0.9963013529777527,0.08526401966810226,-0.01064739655703306,43.52540588378906,-28.90207862854004,3.59747314453125,2,103139.09993725,2,0,1582550251.258434,0,0,0,0,0,0,0,0,0,103138.23787,0,-2.644974,99.12852
1582550252.861437,92,0,1582550247.981439,41.20730592650001,29.07233430265877,161.3114,-1,-1,19.68582725524902,65,-9999,103140.68534375,0.963836669921875,0.08905029296875,-0.04327392578125,103140.68027875,-0.1990030344417838,1.560652413586931,-0.08512991242253944,-0.01451520249247551,0.0505303293466568,0.02679863199591637,-0.03002750873565674,0.01589113473892212,-0.03734111785888672,2,-0.03973017058076617,-0.702401602551622,0.1003213924536076,-0.7035545954120804,0.9963273406028748,0.08502712845802307,-0.0101070050150156,43.52540588378906,-28.90207862854004,3.59747314453125,2,103139.09993725,2,0,1582550251.258434,0,0,0,0,0,0,0,0,0,103138.23787,0,-2.644974,99.12852
1582550252.862532,93,0,1582550247.981439,41.20730592650001,29.07233430265877,161.3114,-1,-1,19.68582725524902,65,-9999,103140.69538475,0.983184814453125,0.0930023193359375,-0.0344696044921875,103140.69031875,-0.198863705689499,1.561125959676148,-0.08493957764896354,-0.01353116426616907,0.04694677889347076,0.01946907863020897,-0.03271865844726562,0.004514634609222412,-0.03390651941299438,2,-0.03977248096594732,-0.7025670594858038,0.1001966886568119,-0.7034047919561709,0.9963482022285461,0.08483748137950897,-0.009635353460907936,43.46351623535156,-28.77494812011719,3.69573974609375,2,103139.09993725,2,0,1582550251.258434,0,0,0,0,0,0,0,0,0,103138.23787,0,-2.644974,99.12852
1582550252.865056,94,0,1582550247.981439,41.20730592650001,29.07233430265877,161.3114,-1,-1,19.68582725524902,65,-9999,103140.70542475,0.975433349609375,0.091796875,-0.036346435546875,103140.70035875,-0.1987467972571855,1.561555054880786,-0.08487264743639641,-0.01339998375624418,0.04397736117243767,0.007975164800882339,-0.01600486040115356,0.007831335067749023,-0.02726948261260986,2,-0.03977664193644154,-0.70271892032327,0.1001237322003862,-0.7032631454369738,0.996357798576355,0.08477079123258591,-0.009207875467836857,43.46351623535156,-28.77494812011719,3.69573974609375,2,103139.09993725,2,0,1582550251.258434,0,0,0,0,0,0,0,0,0,103138.23787,0,-2.644974,99.12852
1582550252.875191,95,0,1582550247.981439,41.20730592650001,29.07233430265877,161.3114,-1,-1,19.68582725524902,65,-9999,103140.71546475,0.973358154296875,0.090301513671875,-0.04266357421875,103140.71039875,-0.1986920552377959,1.56207158867241,-0.08494206396813017,-0.004790516570210457,0.05104405805468559,-0.006016550119966269,-0.01855170726776123,0.007167190313339233,-0.02665472030639648,2,-0.0397586414534859,-0.7029030264139886,0.1001183965056081,-0.7030810154365195,0.9963566660881042,0.08483995497226715,-0.008693171665072441,43.31802368164062,-28.82002449035645,3.602020263671875,2,103140.70609575,4,1,1582550252.864592,0,0,0,0,0,0,0,0,0,103138.23787,0,-2.644974,99.12852
1582550252.885346,96,0,1582550247.981439,41.20730592650001,29.07233430265877,161.3114,-1,-1,19.68582725524902,65,-9999,103140.72550575,0.981719970703125,0.0825042724609375,-0.0453948974609375,103140.72046975,-0.1986941119381522,1.562841478134259,-0.08522515334315384,0.0005079704569652677,0.07610706239938736,-0.02596266008913517,-0.02372211217880249,0.006030648946762085,-0.03341877460479736,2,-0.03969757697812049,-0.7031793194970408,0.1002024877441253,-0.7027962084875725,0.9963390827178955,0.08512201905250549,-0.007925894111394882,43.43194580078125,-28.56516456604004,3.81158447265625,2,103140.70609575,4,1,1582550252.864592,0,0,0,0,0,0,0,0,0,103138.23787,0,-2.644974,99.12852
1582550252.895451,97,0,1582550247.981439,41.20730592650001,29.07233430265877,161.3114,-1,-1,19.68582725524902,65,-9999,103140.73554575,0.99365234375,0.078521728515625,-0.035675048828125,103140.73050975,-0.1987294900979996,1.563795761800605,-0.08583778483113054,0.003745841793715954,0.1021698266267776,-0.06223464384675026,-0.01662701368331909,-0.00144621729850769,-0.03835225105285645,2,-0.0395408351417148,-0.7035262295848689,0.1004096196571868,-0.7024281226993777,0.9962937831878662,0.08573241531848907,-0.006974733434617519,43.43194580078125,-28.56516456604004,3.81158447265625,2,103140.70609575,4,1,1582550252.864592,0,0,0,0,0,0,0,0,0,103138.23787,0,-2.644974,99.12852
1582550252.917577,98,0,1582550247.981439,41.20730592650001,29.07233430265877,161.3114,-1,-1,19.68582725524902,65,-9999,103140.74558575,0.9932098388671875,0.08837890625,-0.0275726318359375,103140.74055075,-0.1987820084986829,1.564588797591248,-0.08665719993111662,0.00537907937541604,0.0783555656671524,-0.08149894326925278,-0.005163192749023438,-0.008076220750808716,-0.03303909301757812,2,-0.03930898623791623,-0.7038200801472524,0.1006982399596265,-0.7021054159881402,0.9962284564971924,0.08654878288507462,-0.006184196565300226,43.49873352050781,-28.62964248657227,3.887603759765625,2,103140.70609575,4,1,1582550252.864592,0,0,0,0,0,0,0,0,0,103138.23787,0,-2.644974,99.12852
1582550252.918798,99,0,1582550247.981439,41.20730592650001,29.07233430265877,161.3114,-1,-1,19.68582725524902,65,-9999,103140.75562575,0.971435546875,0.0979156494140625,-0.0389556884765625,103140.75059075,-0.1988607623688612,1.565418733195273,-0.08752927808025081,0.007743167225271463,0.08692800998687744,-0.08573976159095764,-0.0001784563064575195,-0.001910746097564697,-0.02129292488098145,2,-0.0390698356269944,-0.7041271600108058,0.1010139078196101,-0.7017653909506616,0.9961573481559753,0.08741755783557892,-0.005356980953365564,43.49873352050781,-28.62964248657227,3.887603759765625,2,103140.70609575,4,1,1582550252.864592,0,0,0,0,0,0,0,0,0,103138.23787,0,-2.644974,99.12852
1582550252.925584,100,0,1582550247.981439,41.20730592650001,29.07233430265877,161.3114,-1,-1,19.68582725524902,65,-9999,103140.76566675,0.9730072021484375,0.101318359375,-0.031463623046875,103140.76063075,-0.1989110029404955,1.566189528675099,-0.08830537759206662,0.005865638609975576,0.07892733812332153,-0.07680858671665192,-0.02178162336349487,0.008592396974563599,-0.03362727165222168,2,-0.03885186517420292,-0.7044118941892432,0.1012874094309819,-0.7014522274813424,0.9960929751396179,0.08819065988063812,-0.004588831681758165,43.64773559570312,-28.58553886413574,3.95294189453125,2,103140.70609575,4,1,1582550252.864592,0,0,0,0,0,0,0,0,0,103138.23787,0,-2.644974,99.12852
1582550252.935563,101,0,1582550247.981439,41.20730592650001,29.07233430265877,161.3114,-1,-1,19.68582725524902,65,-9999,103140.77570675,0.9714813232421875,0.1074371337890625,-0.030517578125,103140.77067175,-0.1989350149785807,1.566829951805949,-0.08890757917951951,0.004171336069703102,0.06449992954730988,-0.05901734158396721,-0.02409625053405762,0.01166990399360657,-0.02958095073699951,2,-0.03867974457959616,-0.7046478041311353,0.1014936706868527,-0.7011950139806581,0.9960425496101379,0.08879049867391586,-0.003950698766857386,43.64773559570312,-28.58553886413574,3.95294189453125,2,103140.70609575,4,1,1582550252.864592,0,0,0,0,0,0,0,0,0,103138.23787,0,-2.644974,99.12852
1582550252.945672,102,0,1582550247.981439,41.20730592650001,29.07233430265877,161.3114,-1,-1,19.68582725524902,65,-9999,103140.78574675,0.976654052734375,0.0997467041015625,-0.03314208984375,103140.78071175,-0.1989127955452061,1.56736667120014,-0.08936963520786413,-0.002266942523419857,0.05625693500041962,-0.04546809569001198,-0.02379786968231201,0.017587810754776,-0.02608764171600342,2,-0.03853576104478407,-0.7048453831951987,0.1016368908383618,-0.7009835439823563,0.9960033297538757,0.08925072103738785,-0.003415961749851704,43.6513671875,-28.69620704650879,4.026519775390625,2,103140.70609575,4,1,1582550252.864592,0,0,0,0,0,0,0,0,0,103138.23787,0,-2.644974,99.12852
1582550252.955617,103,0,1582550247.981439,41.20730592650001,29.07233430265877,161.3114,-1,-1,19.68582725524902,65,-9999,103140.79581775,0.98992919921875,0.0973968505859375,-0.02386474609375,103140.79075175,-0.1988123590733086,1.567608671091696,-0.08972516049426278,-0.009699026122689247,0.02541939355432987,-0.03588098660111427,-0.02199697494506836,0.01212197542190552,-0.03069299459457397,2,-0.03838696240991307,-0.7049390239927158,0.101721227173073,-0.7008851857153904,0.9959721565246582,0.08960481733083725,-0.003174827201291919,43.6513671875,-28.69620704650879,4.026519775390625,2,103140.70609575,4,1,1582550252.864592,0,0,0,0,0,0,0,0,0,103138.23787,0,-2.644974,99.12852
1582550252.977596,104,0,1582550247.981439,41.20730592650001,29.07233430265877,161.3114,-1,-1,19.68582725524902,65,-9999,103140.80585775,0.9927520751953125,0.09588623046875,-0.0236053466796875,103140.80079175,-0.1986269268750768,1.56750313960699,-0.08999016528899474,-0.01848840899765491,-0.01146699860692024,-0.02552381157875061,-0.008224785327911377,0.0071735680103302,-0.02263814210891724,2,-0.03822252066747789,-0.704910711395752,0.1017508266476913,-0.700918463416385,0.9959481954574585,0.08986875414848328,-0.003279855707660317,43.62483215332031,-28.75633811950684,3.980438232421875,2,103140.70609575,4,1,1582550252.864592,0,0,0,0,0,0,0,0,0,103138.23787,0,-2.644974,99.12852
1582550252.978966,105,0,1582550247.981439,41.20730592650001,29.07233430265877,161.3114,-1,-1,19.68582725524902,65,-9999,103140.81589875,0.9851837158203125,0.0932769775390625,-0.033172607421875,103140.81083275,-0.1983662256796058,1.567197044425746,-0.0902123005769377,-0.02490742690861225,-0.03327376022934914,-0.02241377346217632,-0.002634346485137939,0.006402969360351562,-0.01893085241317749,2,-0.03803652306772504,-0.7048126728732238,0.1017428791005306,-0.7010282265233397,0.9959270358085632,0.09008999168872833,-0.003584638237953186,43.62483215332031,-28.75633811950684,3.980438232421875,2,103140.70609575,4,1,1582550252.864592,0,0,0,0,0,0,0,0,0,103138.23787,0,-2.644974,99.12852
1582550252.985801,106,0,1582550247.981439,41.20730592650001,29.07233430265877,161.3114,-1,-1,19.68582725524902,65,-9999,103140.82593875,0.975494384765625,0.10400390625,-0.0340576171875,103140.82087275,-0.1980400870987703,1.566849470361935,-0.0903506353312639,-0.03265240043401718,-0.03779128193855286,-0.01501575671136379,-0.009059906005859375,0.003030359745025635,-0.0278773307800293,2,-0.03785498810605326,-0.7046996708978686,0.1016834526938276,-0.7011603235381416,0.9959133267402649,0.09022776037454605,-0.003930747509002686,43.62417602539062,-28.81252288818359,3.93701171875,2,103140.70609575,4,1,1582550252.864592,0,0,0,0,0,0,0,0,0,103138.23787,0,-2.644974,99.12852
1582550252.995888,107,0,1582550247.981439,41.20730592650001,29.07233430265877,161.3114,-1,-1,19.68582725524902,65,-9999,103140.83597875,0.9666748046875,0.1114349365234375,-0.0358123779296875,103140.83091275,-0.1977258278025603,1.566529511271379,-0.09033437049880046,-0.03099138475954533,-0.03515421971678734,0.002059366554021835,-0.01821541786193848,0.01078274846076965,-0.02995431423187256,2,-0.03773375604826629,-0.7045931173016498,0.1015736337568925,-0.7012899145476276,0.9959136247634888,0.09021156281232834,-0.004249405581504107,43.62417602539062,-28.81252288818359,3.93701171875,2,103140.70609575,4,1,1582550252.864592,0,0,0,0,0,0,0,0,0,103138.23787,0,-2.644974,99.12852
1582550253.005937,108,0,1582550247.981439,41.20730592650001,29.07233430265877,161.3114,-1,-1,19.68582725524902,65,-9999,103140.84601875,0.9676666259765625,0.108154296875,-0.0365753173828125,103140.84098375,-0.1974689373718142,1.566311597216222,-0.09023983745251481,-0.02503970824182034,-0.02239151298999786,0.0107333492487669,-0.02811074256896973,0.02110028266906738,-0.03088164329528809,2,-0.03766564405659306,-0.70451974114982,0.1014546537843936,-0.701384521512886,0.9959211945533752,0.09011740982532501,-0.004466467071324587,43.59400939941406,-28.60722923278809,4.041595458984375,2,103140.70609575,4,1,1582550252.864592,0,0,0,0,0,0,0,0,0,103138.23787,0,-2.644974,99.12852
1582550253.015961,109,0,1582550247.981439,41.20730592650001,29.07233430265877,161.3114,-1,-1,19.68582725524902,65,-9999,103140.85605975,0.9658355712890625,0.10736083984375,-0.0366363525390625,103140.85102375,-0.1972822161563921,1.566204271329654,-0.0900923773741798,-0.01719962805509567,-0.0128187807276845,0.01649083755910397,-0.02914583683013916,0.01880574226379395,-0.03233134746551514,2,-0.03764662070537722,-0.7044828062290088,0.101339717466955,-0.7014391170432066,0.9959337711334229,0.08997055143117905,-0.004573415499180555,43.59400939941406,-28.60722923278809,4.041595458984375,2,103140.70609575,4,1,1582550252.864592,0,0,0,0,0,0,0,0,0,103138.23787,0,-2.644974,99.12852
1582550253.045572,110,0,1582550247.981439,41.20730592650001,29.07233430265877,161.3114,-1,-1,19.68582725524902,65,-9999,103140.86609975,0.9674072265625,0.0986480712890625,-0.045684814453125,103140.86106475,-0.1971198838842241,1.566399924025237,-0.08998719121629081,-0.01646224036812782,0.01920622959733009,0.01230544224381447,-0.02941560745239258,0.01758301258087158,-0.03118312358856201,2,-0.03763654950904227,-0.704552474835229,0.1012423749296772,-0.7013838950568446,0.9959443211555481,0.0898657888174057,-0.004378600511699915,43.6044921875,-28.65023040771484,4.02301025390625,2,103140.70609575,4,1,1582550252.864592,0,0,0,0,0,0,0,0,0,103138.23787,0,-2.644974,99.12852
1582550253.047257,111,0,1582550247.981439,41.20730592650001,29.07233430265877,161.3114,-1,-1,19.68582725524902,65,-9999,103140.87613975,0.9749298095703125,0.0884552001953125,-0.0483856201171875,103140.87110475,-0.1969906271078964,1.567049197050916,-0.09007036737943543,-0.01322010718286037,0.06544402986764908,-0.007073848973959684,-0.0298382043838501,0.01121357083320618,-0.04060399532318115,2,-0.0375944542155916,-0.7047841451389247,0.1012138901864849,-0.7011573872160679,0.9959393739700317,0.0899486318230629,-0.003731931559741497,43.6044921875,-28.65023040771484,4.02301025390625,2,103140.70609575,4,1,1582550252.864592,0,0,0,0,0,0,0,0,0,103138.23787,0,-2.644974,99.12852
1582550253.048711,112,0,1582550247.981439,41.20730592650001,29.07233430265877,161.3114,-1,-1,19.68582725524902,65,-9999,103140.88618075,0.9801483154296875,0.0886383056640625,-0.04486083984375,103140.88114475,-0.1968773511744324,1.56808755237602,-0.09037721844574548,-0.011763671413064,0.1055882498621941,-0.03082795068621635,-0.02226078510284424,-0.0007192492485046387,-0.04545319080352783,2,-0.03749859035259279,-0.7051560096873098,0.1012618971409711,-0.7007814908760709,0.9959149360656738,0.09025423228740692,-0.002697715535759926,43.61128234863281,-28.44453620910645,4.059051513671875,2,103140.70609575,4,1,1582550252.864592,0,0,0,0,0,0,0,0,0,103138.23787,0,-2.644974,99.12852
1582550253.056378,113,0,1582550247.981439,41.20730592650001,29.07233430265877,161.3114,-1,-1,19.68582725524902,65,-9999,103140.89622075,0.9810638427734375,0.0933990478515625,-0.040283203125,103140.89118575,-0.1967313539280149,1.569370199396868,-0.09086229450484018,-0.01745564676821232,0.1277143210172653,-0.04889350384473801,-0.01727575063705444,-0.002316206693649292,-0.0445331335067749,2,-0.03734061815784112,-0.7056171456352409,0.1013563073123724,-0.7003121379650128,0.9958739280700684,0.09073732048273087,-0.001420243992470205,43.61128234863281,-28.44453620910645,4.059051513671875,2,103140.70609575,4,1,1582550252.864592,0,0,0,0,0,0,0,0,0,103138.23787,0,-2.644974,99.12852
1582550253.066315,114,0,1582550247.981439,41.20730592650001,29.07233430265877,161.3114,-1,-1,19.68582725524902,65,-9999,103140.90629175,0.979736328125,0.098480224609375,-0.0302734375,103140.90122575,-0.1966099275573653,1.570782927459386,-0.09145673089155915,-0.01211585476994514,0.1427409648895264,-0.06019121035933495,-0.01380479335784912,0.0003418922424316406,-0.04172897338867188,2,-0.03715946708282702,-0.7061249905918392,0.1014954135300258,-0.6997894681660926,0.9958207011222839,0.09132929146289825,-1.33433359224e-05,43.70404052734375,-28.41092872619629,3.956695556640625,2,103140.70609575,4,1,1582550252.864592,0,0,0,0,0,0,0,0,0,103138.23787,0,-2.644974,99.12852
1582550253.076522,115,0,1582550247.981439,41.20730592650001,29.07233430265877,161.3114,-1,-1,19.68582725524902,65,-9999,103140.91633175,0.983001708984375,0.1039886474609375,-0.01617431640625,103140.91126575,-0.19653594420824,1.571962612498275,-0.09205053662425931,-0.005951435770839453,0.1182161793112755,-0.05909239128232002,-0.01664865016937256,0.00626605749130249,-0.03373289108276367,2,-0.03698365385112862,-0.7065499863734852,0.1016554916389945,-0.6993464775961937,0.9957656860351562,0.09192059934139252,0.001161347841843963,43.70404052734375,-28.41092872619629,3.956695556640625,2,103140.70609575,4,1,1582550252.864592,0,0,0,0,0,0,0,0,0,103138.23787,0,-2.644974,99.12852
1582550253.107713,116,0,1582550247.981439,41.20730592650001,29.07233430265877,161.3114,-1,-1,19.68582725524902,65,-9999,103140.92637175,0.9773101806640625,0.111358642578125,-0.0120697021484375,103140.92130575,-0.1965203405818967,1.572743176084115,-0.09254664509535476,-0.0008569784695282578,0.08108051121234894,-0.04729064181447029,-0.0126192569732666,0.00987657904624939,-0.02041125297546387,2,-0.03684282787851251,-0.7068322744922062,0.1018093462554893,-0.6990461016777935,0.9957185983657837,0.09241459518671036,0.001938516506925225,43.57806396484375,-28.33538055419922,4.045867919921875,2,103140.70609575,4,1,1582550252.864592,0,0,0,0,0,0,0,0,0,103138.23787,0,-2.644974,99.12852
1582550253.109011,117,0,1582550247.981439,41.20730592650001,29.07233430265877,161.3114,-1,-1,19.68582725524902,65,-9999,103140.93641275,0.9759979248046875,0.10302734375,-0.019287109375,103140.93134675,-0.1965775321429377,1.57322324745352,-0.09300536464026517,0.006117839831858873,0.05081421509385109,-0.0442943200469017,-0.01767212152481079,0.01828524470329285,-0.0147700309753418,2,-0.03672570151666193,-0.7070073815650413,0.1019811631098241,-0.6988502351252304,0.9956752061843872,0.09287133812904358,0.002416429575532675,43.57806396484375,-28.33538055419922,4.045867919921875,2,103140.70609575,4,1,1582550252.864592,0,0,0,0,0,0,0,0,0,103138.23787,0,-2.644974,99.12852
1582550253.109974,118,0,1582550247.981439,41.20730592650001,29.07233430265877,161.3114,-1,-1,19.68582725524902,65,-9999,103140.94645275,0.9795074462890625,0.1002655029296875,-0.0240631103515625,103140.94138675,-0.1966701450644564,1.57358044688991,-0.09350145762061432,0.009132507257163525,0.03797432035207748,-0.04733513295650482,-0.01976120471954346,0.01133677363395691,-0.02029836177825928,2,-0.03660174016306844,-0.7071395126027835,0.1021807568994216,-0.6986938823100244,0.9956281185150146,0.09336527436971664,0.002771955449134111,43.86015319824219,-28.39285087585449,4.105987548828125,2,103140.70609575,4,1,1582550252.864592,0,0,0,0,0,0,0,0,0,103138.23787,0,-2.644974,99.12852
1582550253.116466,119,0,1582550247.981439,41.20730592650001,29.07233430265877,161.3114,-1,-1,19.68582725524902,65,-9999,103140.95649275,0.98858642578125,0.093170166015625,-0.0246124267578125,103140.95142675,-0.1967345338173519,1.573854520262215,-0.09406226911902639,0.006479732226580381,0.03081121668219566,-0.05493632704019547,-0.01699197292327881,0.006658554077148438,-0.02644598484039307,2,-0.03644080515732784,-0.7072442311045005,0.1023947258225408,-0.698564885346765,0.9955746531486511,0.09392362087965012,0.003044669516384602,43.86015319824219,-28.39285087585449,4.105987548828125,2,103140.70609575,4,1,1582550252.864592,0,0,0,0,0,0,0,0,0,103138.23787,0,-2.644974,99.12852
1582550253.126469,120,0,1582550247.981439,41.20730592650001,29.07233430265877,161.3114,-1,-1,19.68582725524902,65,-9999,103140.96653275,0.9881591796875,0.09344482421875,-0.0257568359375,103140.96149775,-0.1967336340867656,1.574021801484781,-0.09469220083767921,-0.0008133259834721684,0.01809462532401085,-0.06389271467924118,-0.008875548839569092,0.0004619956016540527,-0.02793979644775391,2,-0.03622697883181275,-0.7073140148132817,0.1026120787415203,-0.6984735066901827,0.9955148696899414,0.09455075114965439,0.003211019095033407,43.83486938476562,-28.39455223083496,4.154754638671875,2,103140.70609575,4,1,1582550252.864592,0,0,0,0,0,0,0,0,0,103138.23787,0,-2.644974,99.12852
1582550253.136481,121,0,1582550247.981439,41.20730592650001,29.07233430265877,161.3114,-1,-1,19.68582725524902,65,-9999,103140.97657375,0.9785308837890625,0.10400390625,-0.0276947021484375,103140.97153775,-0.1966998056153251,1.574148277813269,-0.09533005220389734,-0.005072253290563822,0.01251530274748802,-0.06404770910739899,-0.005961179733276367,-0.003331601619720459,-0.02882850170135498,2,-0.03599665475804609,-0.7073702025737699,0.1028214714638909,-0.6983977137535803,0.9954538941383362,0.09518572688102722,0.003336725290864706,43.83486938476562,-28.39455223083496,4.154754638671875,2,103140.70609575,4,1,1582550252.864592,0,0,0,0,0,0,0,0,0,103138.23787,0,-2.644974,99.12852
1582550253.162829,122,0,1582550247.981439,41.20730592650001,29.07233430265877,161.3114,-1,-1,19.68582725524902,65,-9999,103140.98661375,0.9750518798828125,0.1051177978515625,-0.0279693603515625,103140.98157875,-0.1966701815550317,1.574294125335582,-0.09592139194663231,-0.001510576112195849,0.01752551086246967,-0.06002075597643852,-0.01464760303497314,0.006135255098342896,-0.03098762035369873,2,-0.03578522470037016,-0.7074321692086174,0.1030157044891843,-0.698317272924234,0.9953970909118652,0.09577436745166779,0.003481712657958269,43.83326721191406,-28.51618766784668,4.35821533203125,2,103140.70609575,4,1,1582550252.864592,0,0,0,0,0,0,0,0,0,103138.23787,0,-2.644974,99.12852
1582550253.164096,123,0,1582550247.981439,41.20730592650001,29.07233430265877,161.3114,-1,-1,19.68582725524902,65,-9999,103140.99665375,0.9740142822265625,0.111602783203125,-0.0240936279296875,103140.99161875,-0.1966637238431576,1.574425999532085,-0.09643049670073477,0.002807206939905882,0.01875136606395245,-0.05269972607493401,-0.0205339789390564,0.009885728359222412,-0.03095114231109619,2,-0.03561029900050661,-0.7074873196759888,0.1031894910782003,-0.6982445638842628,0.9953475594520569,0.09628111869096756,0.003612801898270845,43.83326721191406,-28.51618766784668,4.35821533203125,2,103140.70609575,4,1,1582550252.864592,0,0,0,0,0,0,0,0,0,103138.23787,0,-2.644974,99.12852
1582550253.166679,124,0,1582550247.981439,41.20730592650001,29.07233430265877,161.3114,-1,-1,19.68582725524902,65,-9999,103141.00669475,0.971771240234375,0.117767333984375,-0.020599365234375,103141.00165875,-0.1966863875232201,1.57446601290138,-0.09679765047834647,0.003222557716071606,0.006183141842484474,-0.03640635684132576,-0.02101725339889526,0.01264828443527222,-0.0297243595123291,2,-0.03549096757984127,-0.7075073432953556,0.1033253421870287,-0.6982102910769969,0.9953120350837708,0.09664656221866608,0.003652499290183187,43.78816223144531,-28.50794219970703,4.3084716796875,2,103140.70609575,4,1,1582550252.864592,0,0,0,0,0,0,0,0,0,103138.23787,0,-2.644974,99.12852
1582550253.176462,125,0,1582550247.981439,41.20730592650001,29.07233430265877,161.3114,-1,-1,19.68582725524902,65,-9999,103141.01673475,0.9735565185546875,0.1132659912109375,-0.0240631103515625,103141.01169875,-0.196712378560749,1.574402891793964,-0.0970074383624371,0.001172190066426992,-0.003712898120284081,-0.01808460801839828,-0.02311801910400391,0.02096915245056152,-0.02369499206542969,2,-0.0354229467791457,-0.7074885267121933,0.1034090394013696,-0.698220498228483,0.995292067527771,0.09685536473989487,0.003589601255953312,43.78816223144531,-28.50794219970703,4.3084716796875,2,103140.70609575,4,1,1582550252.864592,0,0,0,0,0,0,0,0,0,103138.23787,0,-2.644974,99.12852
1582550253.186832,126,0,1582550247.981439,41.20730592650001,29.07233430265877,161.3114,-1,-1,19.68582725524902,65,-9999,103141.0267987917,0.97711181640625,0.110992431640625,-0.0216522216796875,103141.0217327917,-0.1967564439500233,1.574205866984164,-0.09708398949577621,0.004565057344734669,-0.01744948327541351,-0.006521960720419884,-0.02286720275878906,0.01755127310752869,-0.02787840366363525,2,-0.03540137360308709,-0.7074203006055839,0.103454739503227,-0.6982838106441278,0.9952851533889771,0.09693155437707901,0.00339347799308598,43.90028381347656,-28.56217956542969,4.31854248046875,2,103140.70609575,4,1,1582550252.864592,0,0,0,0,0,0,0,0,0,103138.23787,0,-2.644974,99.12852
1582550253.196744,127,0,1582550247.981439,41.20730592650001,29.07233430265877,161.3114,-1,-1,19.68582725524902,65,-9999,103141.0368387917,0.975830078125,0.109649658203125,-0.026641845703125,103141.0317727917,-0.1968159505253917,1.573919776084277,-0.09705184884546324,0.007564536761492491,-0.02963933721184731,0.004127501510083675,-0.01827830076217651,0.01389062404632568,-0.02470958232879639,2,-0.03541894131945544,-0.707318790622503,0.1034693181768782,-0.6983836867195851,0.9952893853187561,0.09689956158399582,0.003108745906502008,43.90028381347656,-28.56217956542969,4.31854248046875,2,103140.70609575,4,1,1582550252.864592,0,0,0,0,0,0,0,0,0,103138.23787,0,-2.644974,99.12852
1582550253.226328,128,0,1582550247.981439,41.20730592650001,29.07233430265877,161.3114,-1,-1,19.68582725524902,65,-9999,103141.0468787917,0.9815216064453125,0.102203369140625,-0.030670166015625,103141.0418127917,-0.1968453351625211,1.573718390261449,-0.09699616262156158,0.002082113176584244,-0.01735125295817852,0.004632226191461086,-0.0196424126625061,0.01406815648078918,-0.02823245525360107,2,-0.0354385562836762,-0.7072469659227232,0.10346364501495,-0.6984561900020663,0.9952952265739441,0.0968441367149353,0.002908324124291539,43.8206787109375,-28.4151782989502,4.2640380859375,2,103140.70609575,4,1,1582550252.864592,0,0,0,0,0,0,0,0,0,103138.23787,0,-2.644974,99.12852
1582550253.227723,129,0,1582550247.981439,41.20730592650001,29.07233430265877,161.3114,-1,-1,19.68582725524902,65,-9999,103141.0569187917,0.98724365234375,0.10113525390625,-0.028717041015625,103141.0518537917,-0.1968045478174963,1.573527191937824,-0.09693095905019986,-0.008218993432819843,-0.01919256336987019,0.006724138744175434,-0.0155598521232605,0.006640970706939697,-0.03362691402435303,2,-0.03543723955189693,-0.7071797672908906,0.1034299524540893,-0.6985292490942469,0.9953020215034485,0.0967792421579361,0.00271804234944284,43.8206787109375,-28.4151782989502,4.2640380859375,2,103140.70609575,4,1,1582550252.864592,0,0,0,0,0,0,0,0,0,103138.23787,0,-2.644974,99.12852
1582550253.228663,130,0,1582550247.981439,41.20730592650001,29.07233430265877,161.3114,-1,-1,19.68582725524902,65,-9999,103141.0669597917,0.9846649169921875,0.0994873046875,-0.0325469970703125,103141.0618937917,-0.1967207393978857,1.573332975409886,-0.09688416334826414,-0.006120368372648954,-0.01971745863556862,0.005882184486836195,-0.008255898952484131,0.003956228494644165,-0.03154134750366211,2,-0.03541405767689904,-0.7071125932857012,0.1033877263098431,-0.6986047797397574,0.9953072071075439,0.09673266857862473,0.002524750074371696,43.77593994140625,-28.40798377990723,4.115692138671875,2,103140.70609575,4,1,1582550252.864592,0,0,0,0,0,0,0,0,0,103138.23787,0,-2.644974,99.12852
1582550253.236864,131,0,1582550247.981439,41.20730592650001,29.07233430265877,161.3114,-1,-1,19.68582725524902,65,-9999,103141.0769997917,0.9854278564453125,0.1008148193359375,-0.0235748291015625,103141.0719647917,-0.1966119209195315,1.573059709552957,-0.09685853129718387,-0.007412800565361977,-0.02510210312902927,0.003183336462825537,-0.01008987426757812,0.003646045923233032,-0.03364968299865723,2,-0.03537051443580974,-0.7070186083940226,0.1033455780789996,-0.6987082271455922,0.9953101873397827,0.09670715779066086,0.002252771751955152,43.77593994140625,-28.40798377990723,4.115692138671875,2,103140.70609575,4,1,1582550252.864592,0,0,0,0,0,0,0,0,0,103138.23787,0,-2.644974,99.12852
1582550253.247367,132,0,1582550247.981439,41.20730592650001,29.07233430265877,161.3114,-1,-1,19.68582725524902,65,-9999,103141.0870397917,0.9887542724609375,0.1019134521484375,-0.0233306884765625,103141.0820047917,-0.1964476441701947,1.572593255401565,-0.09683390008011297,-0.0198347307741642,-0.0458553247153759,0.004238564986735582,-0.01087135076522827,0.003792643547058105,-0.02796673774719238,2,-0.03529703319942606,-0.7068581004580221,0.1032877937849825,-0.6988829376114591,0.9953136444091797,0.09668263792991638,0.001788509427569807,43.83216857910156,-28.3464469909668,4.201385498046875,2,103140.70609575,4,1,1582550252.864592,0,0,0,0,0,0,0,0,0,103138.23787,0,-2.644974,99.12852
1582550253.256939,133,0,1582550247.981439,41.20730592650001,29.07233430265877,161.3114,-1,-1,19.68582725524902,65,-9999,103141.0970807917,0.9932708740234375,0.1034698486328125,-0.0223541259765625,103141.0920447917,-0.1963049665287204,1.572010988142932,-0.09689720741739531,-0.01316218078136444,-0.05699559301137924,-0.004378891550004482,-0.006441116333007812,0.004370540380477905,-0.02396941184997559,2,-0.03519421942063017,-0.7066582260378838,0.1032703547921878,-0.6990926742591688,0.9953082203865051,0.09674564749002457,0.001208962989039719,43.83216857910156,-28.3464469909668,4.201385498046875,2,103140.70609575,4,1,1582550252.864592,0,0,0,0,0,0,0,0,0,103138.23787,0,-2.644974,99.12852
1582550253.283714,134,0,1582550247.981439,41.20730592650001,29.07233430265877,161.3114,-1,-1,19.68582725524902,65,-9999,103141.1071207917,0.984130859375,0.103118896484375,-0.023193359375,103141.1020847917,-0.196167675807219,1.571285267268297,-0.09703903990705746,-0.01300325058400631,-0.07332315295934677,-0.013387406244874,-0.003544032573699951,0.007250517606735229,-0.02310943603515625,2,-0.03505816515319521,-0.7064094033645554,0.103284723434332,-0.6993489791768789,0.9952953457832336,0.09688681364059448,0.0004866402014158666,43.7021484375,-28.27609252929688,4.10528564453125,2,103140.70609575,4,1,1582550252.864592,0,0,0,0,0,0,0,0,0,103138.23787,0,-2.644974,99.12852
1582550253.285,135,0,1582550247.981439,41.20730592650001,29.07233430265877,161.3114,-1,-1,19.68582725524902,65,-9999,103141.1171607917,0.971221923828125,0.11041259765625,-0.029571533203125,103141.1121257917,-0.1960420241428696,1.570496514200165,-0.09715712369280786,-0.01307622157037258,-0.07966732978820801,-0.01032423786818981,-0.007545709609985352,0.005378216505050659,-0.0222175121307373,2,-0.03493135862485092,-0.7061378058421188,0.1032958801214283,-0.6996279409246238,0.9952840209007263,0.09700434654951096,-0.0002983986923936754,43.7021484375,-28.27609252929688,4.10528564453125,2,103140.70609575,4,1,1582550252.864592,0,0,0,0,0,0,0,0,0,103138.23787,0,-2.644974,99.12852
1582550253.287242,136,0,1582550247.981439,41.20730592650001,29.07233430265877,161.3114,-1,-1,19.68582725524902,65,-9999,103141.1272007917,0.964813232421875,0.1102447509765625,-0.035400390625,103141.1221657917,-0.1959417589778775,1.569805249087499,-0.09727364354448677,-0.01014109142124653,-0.06880458444356918,-0.01148180849850178,-0.0224418044090271,0.01194560527801514,-0.0272517204284668,2,-0.03481911892004663,-0.7058997328673009,0.1033136039817434,-0.699870925365718,0.9952719807624817,0.09712031483650208,-0.0009863921441137791,43.6649169921875,-28.30755615234375,4.0185546875,2,103140.70609575,4,1,1582550252.864592,0,0,0,0,0,0,0,0,0,103138.23787,0,-2.644974,99.12852
1582550253.29715,137,0,1582550247.981439,41.20730592650001,29.07233430265877,161.3114,-1,-1,19.68582725524902,65,-9999,103141.1372417917,0.9643402099609375,0.1118316650390625,-0.03619384765625,103141.1322057917,-0.1958650672343843,1.569281786433314,-0.09734894352038391,-0.007896846160292625,-0.05082185566425323,-0.007068417966365814,-0.02931565046310425,0.01356437802314758,-0.03307837247848511,2,-0.03473840167608316,-0.7057191786204251,0.1033221842770576,-0.7000557742765213,0.9952640533447266,0.09719526022672653,-0.001507368753664196,43.6649169921875,-28.30755615234375,4.0185546875,2,103140.70609575,4,1,1582550252.864592,0,0,0,0,0,0,0,0,0,103138.23787,0,-2.644974,99.12852
1582550253.307419,138,0,1582550247.981439,41.20730592650001,29.07233430265877,161.3114,-1,-1,19.68582725524902,65,-9999,103141.1473127917,0.9614105224609375,0.1123046875,-0.0368804931640625,103141.1422467917,-0.1958144522301261,1.568933793201998,-0.09736379461866057,-0.005238661076873541,-0.03364207968115807,-0.0006261062808334827,-0.03112936019897461,0.01383957266807556,-0.03447139263153076,2,-0.03469730217273043,-0.7055984987609691,0.1033156893486411,-0.7001805632278436,0.9952622652053833,0.09721003472805023,-0.00185371155384928,43.80401611328125,-28.34360885620117,4.00567626953125,2,103140.70609575,4,1,1582550252.864592,0,0,0,0,0,0,0,0,0,103138.23787,0,-2.644974,99.12852
1582550253.317259,139,0,1582550247.981439,41.20730592650001,29.07233430265877,161.3114,-1,-1,19.68582725524902,65,-9999,103141.1573527917,0.964599609375,0.109588623046875,-0.03497314453125,103141.1522867917,-0.1957884356394745,1.568717538299149,-0.0973262672009724,-0.001879349816590548,-0.02009484730660915,0.004097542725503445,-0.03305530548095703,0.01560109853744507,-0.03462255001068115,2,-0.03469023054908432,-0.7055225817626771,0.1032972252241202,-0.7002600096779272,0.9952653050422668,0.09717268496751785,-0.002068949164822698,43.80401611328125,-28.34360885620117,4.00567626953125,2,103140.70609575,4,1,1582550252.864592,0,0,0,0,0,0,0,0,0,103138.23787,0,-2.644974,99.12852
1582550253.34441,140,0,1582550247.981439,41.20730592650001,29.07233430265877,161.3114,-1,-1,19.68582725524902,65,-9999,103141.1673927917,0.9684600830078125,0.1099090576171875,-0.0343170166015625,103141.1623267917,-0.1957866747005325,1.568596452951429,-0.0972375523216429,0.0005224423948675394,-0.009743650443851948,0.009252578020095825,-0.03219377994537354,0.01268342137336731,-0.03329652547836304,2,-0.03471472381328955,-0.7054786658996318,0.1032677171700949,-0.70030732009366,0.9952735900878906,0.09708439558744431,-0.002189479768276215,43.73770141601562,-28.32121658325195,3.999542236328125,2,103140.70609575,4,1,1582550252.864592,0,0,0,0,0,0,0,0,0,103138.23787,0,-2.644974,99.12852
1582550253.345683,141,0,1582550247.981439,41.20730592650001,29.07233430265877,161.3114,-1,-1,19.68582725524902,65,-9999,103141.1774327917,0.964752197265625,0.109161376953125,-0.034515380859375,103141.1723667917,-0.1957920760973831,1.568520843744471,-0.09710006306074297,0.001468663569539785,-0.007039476186037064,0.01455040462315083,-0.0270189642906189,0.01271358132362366,-0.03212237358093262,2,-0.03476131323091181,-0.7054496933249519,0.1032228785861893,-0.7003409823089745,0.9952870011329651,0.09694755077362061,-0.002264762530103326,43.73770141601562,-28.32121658325195,3.999542236328125,2,103140.70609575,4,1,1582550252.864592,0,0,0,0,0,0,0,0,0,103138.23787,0,-2.644974,99.12852
1582550253.347393,142,0,1582550247.981439,41.20730592650001,29.07233430265877,161.3114,-1,-1,19.68582725524902,65,-9999,103141.1874737917,0.968780517578125,0.1077728271484375,-0.032867431640625,103141.1824077917,-0.1957792788885732,1.568473318243427,-0.09693578315047924,-0.001296865288168192,-0.004647167399525642,0.01692106015980244,-0.03005605936050415,0.01295328140258789,-0.03251779079437256,2,-0.03481243723387234,-0.7054303962160344,0.1031618365835041,-0.7003667393737407,0.9953026175498962,0.09678404778242111,-0.002312100725248456,43.69291687011719,-28.34555435180664,3.9918212890625,2,103140.70609575,4,1,1582550252.864592,0,0,0,0,0,0,0,0,0,103138.23787,0,-2.644974,99.12852
1582550253.357563,143,0,1582550247.981439,41.20730592650001,29.07233430265877,161.3114,-1,-1,19.68582725524902,65,-9999,103141.1975137917,0.9730377197265625,0.108367919921875,-0.0313720703125,103141.1924787917,-0.1957595191541964,1.568408879602279,-0.09674089960007157,-0.00279223034158349,-0.005605373531579971,0.01872535236179829,-0.0278165340423584,0.01088893413543701,-0.03075993061065674,2,-0.03487103805781594,-0.7054047560434431,0.103087952578956,-0.7004005772067943,0.9953213930130005,0.0965900719165802,-0.002376281656324863,43.69291687011719,-28.34555435180664,3.9918212890625,2,103140.70609575,4,1,1582550252.864592,0,0,0,0,0,0,0,0,0,103138.23787,0,-2.644974,99.12852
1582550253.367469,144,0,1582550247.981439,41.20730592650001,29.07233430265877,161.3114,-1,-1,19.68582725524902,65,-9999,103141.2075537917,0.9737701416015625,0.1071624755859375,-0.0316009521484375,103141.2025187917,-0.195745823925271,1.56828549878232,-0.09651026576957943,-0.002432354260236025,-0.01010503340512514,0.02357150241732597,-0.02258944511413574,0.01212561130523682,-0.02921795845031738,2,-0.0349413944858179,-0.7053577308386773,0.103004739616623,-0.7004566334749294,0.9953432679176331,0.09636051207780838,-0.002499141031876206,43.61810302734375,-28.13079452514648,3.97210693359375,2,103140.70609575,4,1,1582550252.864592,0,0,0,0,0,0,0,0,0,103138.23787,0,-2.644974,99.12852
1582550253.377444,145,0,1582550247.981439,41.20730592650001,29.07233430265877,161.3114,-1,-1,19.68582725524902,65,-9999,103141.2175947917,0.9770355224609375,0.1056060791015625,-0.0308990478515625,103141.2125587917,-0.1957230688346601,1.568108228511923,-0.09626041923736786,-0.003573518712073565,-0.01534480229020119,0.02668580412864685,-0.02163654565811157,0.01127564907073975,-0.02882778644561768,2,-0.0350125751612238,-0.7052916377346974,0.1029125875741202,-0.7005332486254976,0.9953669309616089,0.09611182659864426,-0.002675650641322136,43.79586791992188,-28.11484527587891,3.937652587890625,2,103140.70609575,4,1,1582550252.864592,0,0,0,0,0,0,0,0,0,103138.23787,0,-2.644974,99.12852
1582550253.404959,146,0,1582550247.981439,41.20730592650001,29.07233430265877,161.3114,-1,-1,19.68582725524902,65,-9999,103141.2276347917,0.9837493896484375,0.1026153564453125,-0.0288238525390625,103141.2225987917,-0.1957061741316371,1.567852192766579,-0.09603280491414953,-0.001541097648441792,-0.02318890020251274,0.02470439486205578,-0.01932317018508911,0.01018995046615601,-0.02826797962188721,2,-0.03507394489186755,-0.7051982249071781,0.102831655482867,-0.7006359881486477,0.9953879117965698,0.095885269343853,-0.002930563874542713,43.79586791992188,-28.11484527587891,3.937652587890625,2,103140.70609575,4,1,1582550252.864592,0,0,0,0,0,0,0,0,0,103138.23787,0,-2.644974,99.12852
1582550253.406773,147,0,1582550247.981439,41.20730592650001,29.07233430265877,161.3114,-1,-1,19.68582725524902,65,-9999,103141.2376747917,0.99078369140625,0.100830078125,-0.0272064208984375,103141.2326397917,-0.1957150398805475,1.567451065808787,-0.09589524187414572,0.00206322455778718,-0.03959104418754578,0.01450635120272636,-0.01341474056243896,0.007458209991455078,-0.02626645565032959,2,-0.0351050972409801,-0.7050550969141074,0.1027937542828679,-0.7007840599667415,0.9953998923301697,0.09574833512306213,-0.003329884959384799,43.81358337402344,-28.2203369140625,3.893951416015625,2,103140.70609575,4,1,1582550252.864592,0,0,0,0,0,0,0,0,0,103138.23787,0,-2.644974,99.12852
1582550253.407906,148,0,1582550247.981439,41.20730592650001,29.07233430265877,161.3114,-1,-1,19.68582725524902,65,-9999,103141.2477147917,0.985565185546875,0.1028289794921875,-0.0321807861328125,103141.2426797917,-0.1957307948307032,1.566971727512934,-0.09584022538493563,0.002133512403815985,-0.04748811572790146,0.006040771491825581,-0.005468547344207764,0.005102097988128662,-0.02324104309082031,2,-0.03510546931671837,-0.7048858679588359,0.102788475643635,-0.7009551065292907,0.9954035878181458,0.09569357335567474,-0.003807038301602006,43.81358337402344,-28.2203369140625,3.893951416015625,2,103140.70609575,4,1,1582550252.864592,0,0,0,0,0,0,0,0,0,103138.23787,0,-2.644974,99.12852
1582550253.418145,149,0,1582550247.981439,41.20730592650001,29.07233430265877,161.3114,-1,-1,19.68582725524902,65,-9999,103141.2577557917,0.9773712158203125,0.1022491455078125,-0.0368194580078125,103141.2527197917,-0.19575130352799,1.566548642450981,-0.09585259024927442,0.002386512700468302,-0.03943551704287529,-0.001172133721411228,-0.00801396369934082,0.006722539663314819,-0.026558518409729,2,-0.03508658604320752,-0.7047374299146594,0.1028074099565235,-0.701102406963761,0.9954005479812622,0.09570588171482086,-0.004228172823786736,43.74951171875,-28.23627853393555,3.936859130859375,2,103140.70609575,4,1,1582550252.864592,0,0,0,0,0,0,0,0,0,103138.23787,0,-2.644974,99.12852
1582550253.427768,150,0,1582550247.981439,41.20730592650001,29.07233430265877,161.3114,-1,-1,19.68582725524902,65,-9999,103141.2678257917,0.9794464111328125,0.102447509765625,-0.033203125,103141.2627607917,-0.1957603138077839,1.566122767439862,-0.09589287496286927,0.001096217660233378,-0.04081975668668747,-0.001741154585033655,-0.01723980903625488,0.006682395935058594,-0.03220760822296143,2,-0.0350536039349692,-0.7045886809967453,0.1028320935591583,-0.7012499887613756,0.9953948855400085,0.09574598073959351,-0.004652070812880993,43.74951171875,-28.23627853393555,3.936859130859375,2,103140.70609575,4,1,1582550252.864592,0,0,0,0,0,0,0,0,0,103138.23787,0,-2.644974,99.12852
1582550253.439867,151,0,1582550247.981439,41.20730592650001,29.07233430265877,161.3114,-1,-1,19.68582725524902,65,-9999,103141.2778667917,0.9766387939453125,0.1058807373046875,-0.031982421875,103141.2728007917,-0.1957522765328106,1.565637216828755,-0.09593897888276594,-0.001945911208167672,-0.0471319817006588,-0.003687392454594374,-0.01656162738800049,0.006255060434341431,-0.02896219491958618,2,-0.03500947378873076,-0.704419374534025,0.1028538613878267,-0.7014191944762336,0.9953882694244385,0.09579186886548996,-0.005135362967848778,43.68379211425781,-28.33177185058594,3.828521728515625,2,103140.70609575,4,1,1582550252.864592,0,0,0,0,0,0,0,0,0,103138.23787,0,-2.644974,99.12852
1582550253.460204,152,0,1582550247.981439,41.20730592650001,29.07233430265877,161.3114,-1,-1,19.68582725524902,65,-9999,103141.2879067917,0.9732513427734375,0.10870361328125,-0.0324859619140625,103141.2828407917,-0.1957619023522625,1.565095466239785,-0.09595842603512095,0.001187402522191405,-0.0533696822822094,-0.00145111745223403,-0.01738083362579346,0.009104311466217041,-0.02640902996063232,2,-0.03497812936640993,-0.7042295287402114,0.1028735075426216,-0.7016083342847154,0.9953832626342773,0.09581123292446136,-0.005674602463841438,43.68379211425781,-28.33177185058594,3.828521728515625,2,103140.70609575,4,1,1582550252.864592,0,0,0,0,0,0,0,0,0,103138.23787,0,-2.644974,99.12852
1582550253.461568,153,0,1582550247.981439,41.20730592650001,29.07233430265877,161.3114,-1,-1,19.68582725524902,65,-9999,103141.2979467917,0.9693603515625,0.1058349609375,-0.03607177734375,103141.2928807917,-0.1957716946691984,1.564539032888688,-0.09596587164363334,0.001055309548974037,-0.05329937487840652,0.001074890606105328,-0.02201545238494873,0.01297268271446228,-0.02570259571075439,2,-0.03495031658200409,-0.7040342637361334,0.1028892673864734,-0.7018033505234559,0.9953792095184326,0.09581863880157471,-0.006228461861610413,43.66578674316406,-28.37989807128906,3.723175048828125,2,103140.70609575,4,1,1582550252.864592,0,0,0,0,0,0,0,0,0,103138.23787,0,-2.644974,99.12852
1582550253.467955,154,0,1582550247.981439,41.20730592650001,29.07233430265877,161.3114,-1,-1,19.68582725524902,65,-9999,103141.3079877917,0.9696807861328125,0.10284423828125,-0.041534423828125,103141.3029217917,-0.1957622060404238,1.564036267844005,-0.09603381413966532,-0.002384683582931757,-0.05049240589141846,-0.005769341718405485,-0.02495068311691284,0.01081454753875732,-0.02877271175384521,2,-0.03489703849229214,-0.7038591956128404,0.1029184038284998,-0.7019773261567881,0.9953694939613342,0.09588626772165298,-0.006728858686983585,43.66578674316406,-28.37989807128906,3.723175048828125,2,103140.70609575,4,1,1582550252.864592,0,0,0,0,0,0,0,0,0,103138.23787,0,-2.644974,99.12852
1582550253.477932,155,0,1582550247.981439,41.20730592650001,29.07233430265877,161.3114,-1,-1,19.68582725524902,65,-9999,103141.3180277917,0.97808837890625,0.1033782958984375,-0.037200927734375,103141.3129917917,-0.1957415152093601,1.563624151368159,-0.09618817084135227,-0.001454707700759172,-0.03821549564599991,-0.01534793339669704,-0.02641326189041138,0.007075130939483643,-0.03323018550872803,2,-0.03481384083762529,-0.7037176392612832,0.1029721211015333,-0.7021155970702336,0.9953519701957703,0.09603991359472275,-0.007138961460441351,43.7274169921875,-28.37239837646484,3.67041015625,2,103140.70609575,4,1,1582550252.864592,0,0,0,0,0,0,0,0,0,103138.23787,0,-2.644974,99.12852
1582550253.488123,156,0,1582550247.981439,41.20730592650001,29.07233430265877,161.3114,-1,-1,19.68582725524902,65,-9999,103141.3280677917,0.984100341796875,0.10302734375,-0.0345611572265625,103141.3230327917,-0.1957066914495581,1.563121228306734,-0.09640914074857117,-0.003255665302276611,-0.05156648531556129,-0.02207138389348984,-0.01965922117233276,0.0073128342628479,-0.03163135051727295,2,-0.03469738968656583,-0.7035455924933103,0.1030456459403951,-0.7022827901459177,0.9953267574310303,0.09625986218452454,-0.007639380637556314,43.7274169921875,-28.37239837646484,3.67041015625,2,103140.70609575,4,1,1582550252.864592,0,0,0,0,0,0,0,0,0,103138.23787,0,-2.644974,99.12852
1582550253.499342,157,0,1582550247.981439,41.20730592650001,29.07233430265877,161.3114,-1,-1,19.68582725524902,65,-9999,103141.3381077917,0.978179931640625,0.1042938232421875,-0.041015625,103141.3330727917,-0.1956678844333798,1.562652639068067,-0.0966825668231851,-0.004225322045385838,-0.04605374112725258,-0.02716334722936153,-0.01097738742828369,0.006155699491500854,-0.02553468942642212,2,-0.03456266020138193,-0.7033865511391619,0.1031353909246083,-0.7024355191611297,0.9952966570854187,0.09653201699256897,-0.008105563931167126,43.57926940917969,-28.29557037353516,3.561187744140625,2,103140.70609575,4,1,1582550252.864592,0,0,0,0,0,0,0,0,0,103138.23787,0,-2.644974,99.12852
1582550253.514663,158,0,1582550247.981439,41.20730592650001,29.07233430265877,161.3114,-1,-1,19.68582725524902,65,-9999,103141.3481487917,0.974639892578125,0.106903076171875,-0.0391082763671875,103141.3431127917,-0.1956349610039767,1.562251357405107,-0.09697510429601612,-0.003691338468343019,-0.04025870561599731,-0.02851497754454613,-0.01610320806503296,0.007237792015075684,-0.03191041946411133,2,-0.03442665233089764,-0.7032513401654799,0.1032326395219141,-0.7025632792544785,0.9952650666236877,0.09682317823171616,-0.00850471667945385,43.57926940917969,-28.29557037353516,3.561187744140625,2,103140.70609575,4,1,1582550252.864592,0,0,0,0,0,0,0,0,0,103138.23787,0,-2.644974,99.12852
1582550253.518074,159,0,1582550247.981439,41.20730592650001,29.07233430265877,161.3114,-1,-1,19.68582725524902,65,-9999,103141.3581887917,0.973876953125,0.1082305908203125,-0.0398101806640625,103141.3531537917,-0.1956355047685984,1.561931265362679,-0.09729381571827342,0.0001587934093549848,-0.03049688600003719,-0.03137174993753433,-0.01967066526412964,0.008934766054153442,-0.03084444999694824,2,-0.03429728215963912,-0.7031444995297866,0.1033493150123138,-0.7026593943827507,0.9952313899993896,0.09714038670063019,-0.00882301852107048,43.59703063964844,-28.21741104125977,3.7039794921875,2,103140.70609575,4,1,1582550252.864592,0,0,0,0,0,0,0,0,0,103138.23787,0,-2.644974,99.12852
1582550253.528003,160,0,1582550247.981439,41.20730592650001,29.07233430265877,161.3114,-1,-1,19.68582725524902,65,-9999,103141.3682287917,0.9731597900390625,0.108184814453125,-0.043670654296875,103141.3631937917,-0.1956508403816286,1.561709631215706,-0.09761614388837268,0.001277072238735855,-0.02111722901463509,-0.03137369081377983,-0.02188032865524292,0.0109790563583374,-0.0304255485534668,2,-0.03417686923312563,-0.7030720341837576,0.1034707155724239,-0.7027200788408315,0.9951983094215393,0.09746118634939194,-0.009043312631547451,43.59703063964844,-28.21741104125977,3.7039794921875,2,103140.70609575,4,1,1582550252.864592,0,0,0,0,0,0,0,0,0,103138.23787,0,-2.644974,99.12852
1582550253.538607,161,0,1582550247.981439,41.20730592650001,29.07233430265877,161.3114,-1,-1,19.68582725524902,65,-9999,103141.3782697917,0.970947265625,0.1074066162109375,-0.0461883544921875,103141.3732337917,-0.195665835006002,1.561653253034744,-0.09792088137987399,0.002189471386373043,-0.003970466554164886,-0.02830919064581394,-0.02101075649261475,0.01034006476402283,-0.03352820873260498,2,-0.03407112953659541,-0.7030573122463823,0.1035830400019926,-0.7027233522042373,0.9951679706573486,0.09776446968317032,-0.009099147282540798,43.5106201171875,-28.20472717285156,3.732086181640625,2,103140.70609575,4,1,1582550252.864592,0,0,0,0,0,0,0,0,0,103138.23787,0,-2.644974,99.12852
1582550253.548096,162,0,1582550247.981439,41.20730592650001,29.07233430265877,161.3114,-1,-1,19.68582725524902,65,-9999,103141.3883397917,0.978271484375,0.1051025390625,-0.0415802001953125,103141.3832737917,-0.1956622024801117,1.561678864844282,-0.09822985191297097,0.0005000524688512087,0.00395592488348484,-0.02975616604089737,-0.024658203125,0.009803682565689087,-0.03704833984375,2,-0.03396157901219216,-0.703071773862312,0.1036888899132737,-0.7026985857817896,0.9951379299163818,0.09807195514440536,-0.00907338410615921,43.5106201171875,-28.20472717285156,3.732086181640625,2,103140.70609575,4,1,1582550252.864592,0,0,0,0,0,0,0,0,0,103138.23787,0,-2.644974,99.12852
1582550253.564931,163,0,1582550247.981439,41.20730592650001,29.07233430265877,161.3114,-1,-1,19.68582725524902,65,-9999,103141.3983807917,0.9786376953125,0.1069183349609375,-0.0393829345703125,103141.3933147917,-0.1956232730029472,1.561708663810935,-0.09851868807661023,-0.004328258335590363,0.004502404481172562,-0.02854070067405701,-0.01825189590454102,0.006891787052154541,-0.03388911485671997,2,-0.0338469835190105,-0.7030879360202028,0.1037752599757864,-0.7026751814590844,0.9951098561286926,0.09835939854383469,-0.00904347188770771,43.64546203613281,-28.30753707885742,3.52117919921875,2,103140.70609575,4,1,1582550252.864592,0,0,0,0,0,0,0,0,0,103138.23787,0,-2.644974,99.12852
1582550253.568128,164,0,1582550247.981439,41.20730592650001,29.07233430265877,161.3114,-1,-1,19.68582725524902,65,-9999,103141.4084207917,0.9715423583984375,0.109344482421875,-0.0410308837890625,103141.4033547917,-0.1955701028876861,1.56172115799114,-0.09875571359142615,-0.005588373634964228,0.0003539770841598511,-0.02445928566157818,-0.01575660705566406,0.007983416318893433,-0.03042268753051758,2,-0.03374486771807467,-0.7030973409162162,0.1038388862373011,-0.7026612234338442,0.9950865507125854,0.0985952690243721,-0.009030826389789581,43.64546203613281,-28.30753707885742,3.52117919921875,2,103140.70609575,4,1,1582550252.864592,0,0,0,0,0,0,0,0,0,103138.23787,0,-2.644974,99.12852
1582550253.578193,165,0,1582550247.981439,41.20730592650001,29.07233430265877,161.3114,-1,-1,19.68582725524902,65,-9999,103141.4184607917,0.9690399169921875,0.1107025146484375,-0.0401458740234375,103141.4133947917,-0.19550253117467,1.561744440590532,-0.09891320248161053,-0.007697863969951868,0.002939106896519661,-0.0154652576893568,-0.02204328775405884,0.01011550426483154,-0.03172779083251953,2,-0.03366644929562251,-0.7031093876608734,0.1038695762878915,-0.7026484750630968,0.9950712919235229,0.09875199198722839,-0.00900751817971468,43.69001770019531,-28.28411102294922,3.414794921875,2,103140.70609575,4,1,1582550252.864592,0,0,0,0,0,0,0,0,0,103138.23787,0,-2.644974,99.12852
1582550253.588096,166,0,1582550247.981439,41.20730592650001,29.07233430265877,161.3114,-1,-1,19.68582725524902,65,-9999,103141.4285017917,0.972320556640625,0.10943603515625,-0.0377960205078125,103141.4234357917,-0.1954196139306307,1.561711727959427,-0.09902895202630931,-0.00940232165157795,-0.003510797396302223,-0.01082950737327337,-0.02634972333908081,0.01178556680679321,-0.03163433074951172,2,-0.03359454666100331,-0.7031012899017963,0.1038812932026797,-0.702658232291999,0.9950594902038574,0.09886717051267624,-0.009039965458214283,43.69001770019531,-28.28411102294922,3.414794921875,2,103140.70609575,4,1,1582550252.864592,0,0,0,0,0,0,0,0,0,103138.23787,0,-2.644974,99.12852
1582550253.598295,167,0,1582550247.981439,41.20730592650001,29.07233430265877,161.3114,-1,-1,19.68582725524902,65,-9999,103141.4385417917,0.9769287109375,0.1082305908203125,-0.0357666015625,103141.4335057917,-0.1953296951301459,1.561605360916678,-0.09910283070435832,-0.01004174631088972,-0.01006590202450752,-0.006402268540114164,-0.02361017465591431,0.01091864705085754,-0.02898025512695312,2,-0.03353120271575971,-0.7030667028151756,0.1038772035342911,-0.7026964849819166,0.9950512647628784,0.09894069284200668,-0.009145739488303661,43.781005859375,-28.09391784667969,3.426513671875,2,103140.70609575,4,1,1582550252.864592,0,0,0,0,0,0,0,0,0,103138.23787,0,-2.644974,99.12852
1582550253.6083,168,0,1582550247.981439,41.20730592650001,29.07233430265877,161.3114,-1,-1,19.68582725524902,65,-9999,103141.4485817917,0.981109619140625,0.1084442138671875,-0.0342559814453125,103141.4435467917,-0.1952590162410611,1.561356823828699,-0.09916016999940992,-0.006996896583586931,-0.02382193692028522,-0.004310418851673603,-0.01922297477722168,0.00933566689491272,-0.02702409029006958,2,-0.03347310688333394,-0.7029815464159097,0.1038764908026358,-0.7027845556135309,0.9950432777404785,0.09899774938821793,-0.009392992593348026,43.781005859375,-28.09391784667969,3.426513671875,2,103140.70609575,4,1,1582550252.864592,0,0,0,0,0,0,0,0,0,103138.23787,0,-2.644974,99.12852
1582550253.626415,169,0,1582550247.981439,41.20730592650001,29.07233430265877,161.3114,-1,-1,19.68582725524902,65,-9999,103141.4586217917,0.9839324951171875,0.107513427734375,-0.0329437255859375,103141.4535867917,-0.1951786068385643,1.560936314719706,-0.09923005856428918,-0.008803584612905979,-0.04037534445524216,-0.005292858928442001,-0.01466482877731323,0.009449183940887451,-0.02469825744628906,2,-0.03339820325538828,-0.7028363147817265,0.1038795832801007,-0.7029329457096711,0.9950323700904846,0.09906729310750961,-0.009811349213123322,43.74807739257812,-28.06565093994141,3.655364990234375,2,103140.70609575,4,1,1582550252.864592,0,0,0,0,0,0,0,0,0,103138.23787,0,-2.644974,99.12852
1582550253.628423,170,0,1582550247.981439,41.20730592650001,29.07233430265877,161.3114,-1,-1,19.68582725524902,65,-9999,103141.4686627917,0.980316162109375,0.1102752685546875,-0.0356292724609375,103141.4636267917,-0.1951032191385507,1.560351544147896,-0.0992914979527362,-0.007441602181643248,-0.05833837389945984,-0.005856803618371487,-0.0115094780921936,0.0084267258644104,-0.0230635404586792,2,-0.03331953763941931,-0.702633071945073,0.1038842148881905,-0.7031391223571899,0.99502032995224,0.09912843257188797,-0.01039314921945333,43.74807739257812,-28.06565093994141,3.655364990234375,2,103140.70609575,4,1,1582550252.864592,0,0,0,0,0,0,0,0,0,103138.23787,0,-2.644974,99.12852
1582550253.638662,171,0,1582550247.981439,41.20730592650001,29.07233430265877,161.3114,-1,-1,19.68582725524902,65,-9999,103141.4787027917,0.9758148193359375,0.110198974609375,-0.0417327880859375,103141.4736677917,-0.1950218353848553,1.559708821879215,-0.09931747824213967,-0.008153731003403664,-0.06540773063898087,-0.002924663480371237,-0.01339209079742432,0.01033875346183777,-0.02352273464202881,2,-0.03324834229928308,-0.7024088748519075,0.1038753300062752,-0.7033677870847038,0.9950109124183655,0.0991542786359787,-0.01103264093399048,43.75434875488281,-28.02380752563477,3.48101806640625,2,103140.70609575,4,1,1582550252.864592,0,0,0,0,0,0,0,0,0,103138.23787,0,-2.644974,99.12852
1582550253.648461,172,0,1582550247.981439,41.20730592650001,29.07233430265877,161.3114,-1,-1,19.68582725524902,65,-9999,103141.4887427917,0.972900390625,0.1116943359375,-0.0419921875,103141.4837077917,-0.1949374481894959,1.559108344029763,-0.09929457825748073,-0.008674746379256248,-0.05894316732883453,0.002582171931862831,-0.01886570453643799,0.01135334372520447,-0.02950191497802734,2,-0.03319566303103927,-0.7021986718729734,0.1038476617451682,-0.7035841695954479,0.9950063228607178,0.09913149476051331,-0.01163014676421881,43.75434875488281,-28.02380752563477,3.48101806640625,2,103140.70609575,4,1,1582550252.864592,0,0,0,0,0,0,0,0,0,103138.23787,0,-2.644974,99.12852
1582550253.658654,173,0,1582550247.981439,41.20730592650001,29.07233430265877,161.3114,-1,-1,19.68582725524902,65,-9999,103141.4988137917,0.9697265625,0.111358642578125,-0.043914794921875,103141.4937477917,-0.1948595934070671,1.558553737514417,-0.09923430879085522,-0.007980193942785263,-0.05282961204648018,0.007016068324446678,-0.02135229110717773,0.01226785778999329,-0.02985024452209473,2,-0.03316094677739073,-0.702003792010762,0.1038085172340421,-0.7037860571717542,0.99500572681427,0.09907152503728867,-0.01218205504119396,43.67921447753906,-28.04364776611328,3.45562744140625,2,103140.70609575,4,1,1582550252.864592,0,0,0,0,0,0,0,0,0,103138.23787,0,-2.644974,99.12852
1582550253.668574,174,0,1582550247.981439,41.20730592650001,29.07233430265877,161.3114,-1,-1,19.68582725524902,65,-9999,103141.5088537917,0.9661102294921875,0.1096649169921875,-0.044403076171875,103141.5037877917,-0.1947931045570625,1.558042680839426,-0.09915262727973313,-0.00566107826307416,-0.05067751556634903,0.009579375386238098,-0.02474141120910645,0.01251694560050964,-0.03102016448974609,2,-0.0331401203794659,-0.701823626235953,0.103765204164134,-0.7039730344006285,0.9950073957443237,0.09899023920297623,-0.0126906605437398,43.67921447753906,-28.04364776611328,3.45562744140625,2,103140.70609575,4,1,1582550252.864592,0,0,0,0,0,0,0,0,0,103138.23787,0,-2.644974,99.12852
1582550253.685991,175,0,1582550247.981439,41.20730592650001,29.07233430265877,161.3114,-1,-1,19.68582725524902,65,-9999,103141.5188947917,0.9596099853515625,0.10760498046875,-0.047576904296875,103141.5138287917,-0.1947258628690634,1.557663722155328,-0.09906632003377996,-0.006403301376849413,-0.03808262944221497,0.008921308442950249,-0.02764427661895752,0.01133632659912109,-0.03113126754760742,2,-0.03312754040948074,-0.7016898507861971,0.1037178225129016,-0.7041139851943529,0.9950110912322998,0.09890435636043549,-0.01306783873587847,43.62191772460938,-27.96687316894531,3.31671142578125,2,103140.70609575,4,1,1582550252.864592,0,0,0,0,0,0,0,0,0,103138.23787,0,-2.644974,99.12852
