loggingTime,loggingSample,identifierForVendor,locationTimestamp_since1970,locationLatitude,locationLongitude,locationAltitude,locationSpeed,locationCourse,locationVerticalAccuracy,locationHorizontalAccuracy,locationFloor,accelerometerTimestamp_sinceReboot,accelerometerAccelerationX,accelerometerAccelerationY,accelerometerAccelerationZ,motionTimestamp_sinceReboot,motionYaw,motionRoll,motionPitch,motionRotationRateX,motionRotationRateY,motionRotationRateZ,motionUserAccelerationX,motionUserAccelerationY,motionUserAccelerationZ,motionAttitudeReferenceFrame,motionQuaternionX,motionQuaternionY,motionQuaternionZ,motionQuaternionW,motionGravityX,motionGravityY,motionGravityZ,motionMagneticFieldX,motionMagneticFieldY,motionMagneticFieldZ,motionMagneticFieldCalibrationAccuracy,activityTimestamp_sinceReboot,activity,activityActivityConfidence,activityActivityStartDate,pedometerStartDate,pedometerNumberofSteps,pedometerAverageActivePace,pedometerCurrentPace,pedometerCurrentCadence,pedometerDistance,pedometerFloorAscended,pedometerFloorDescended,pedometerEndDate,altimeterTimestamp_sinceReboot,altimeterReset,altimeterRelativeAltitude,altimeterPressure
1580908832.675531,1,0,1580907286.99823,41.20781296037784,29.0754925099451,275.2123,0.1345286,-1,23.46983528137207,200,-9999,12548.472118875,0.962432861328125,0.1066131591796875,-0.176116943359375,12548.462077875,-1.147080871889778,1.397153533815214,-0.1106827349240492,0.004349498078227043,0.005875622853636742,-0.01216340158134699,-0.02443677186965942,-0.0055084228515625,-0.009006083011627197,2,-0.312854470664014,-0.5623743703735287,0.4447526576717441,-0.6229383698636821,0.9789348840713501,0.1104568839073181,-0.1717142909765244,23.77696990966797,9.182151794433594,-25.98919677734375,2,12548.091045875,4,2,1580908832.332212,1580903939.50652,2992,0.4866275,0,0,3614.279,14,15,1580908820.195806,12545.955541,0,16.76022,97.00858
1580908832.712244,2,0,1580907286.99823,41.20781296037784,29.0754925099451,275.2123,0.1345286,-1,23.46983528137207,200,-9999,12548.482158875,0.9545440673828125,0.108154296875,-0.179168701171875,12548.472118875,-1.147035534870301,1.397111291837176,-0.1107571111941752,-0.008055239915847778,-0.007995719090104103,-0.008309807628393173,-0.02085071802139282,-0.004468739032745361,-0.00875246524810791,2,-0.31280773566093,-0.5623826181490139,0.4447643456347413,-0.6229460228999776,0.978919506072998,0.1105308011174202,-0.1717542260885239,23.77696990966797,9.182151794433594,-25.98919677734375,2,12548.091045875,4,2,1580908832.332212,1580903939.50652,2992,0.4866275,0,0,3614.279,14,15,1580908820.195806,12545.955541,0,16.76022,97.00858
1580908832.714292,3,0,1580907286.99823,41.20781296037784,29.0754925099451,275.2123,0.1345286,-1,23.46983528137207,200,-9999,12548.492198875,0.9537506103515625,0.10736083984375,-0.1787109375,12548.482158875,-1.147017345701688,1.397172165774418,-0.1107879751734503,-0.0002175178378820419,0.007425922900438309,-0.005189336370676756,-0.02723616361618042,-0.003049924969673157,-0.009819746017456055,2,-0.3128059059567517,-0.5624103780132557,0.444757137841768,-0.6229271462115088,0.9789267182350159,0.1105614826083183,-0.1716940701007843,23.46206665039062,9.082979202270508,-25.882080078125,2,12548.091045875,4,2,1580908832.332212,1580903939.50652,2992,0.4866275,0,0,3614.279,14,15,1580908820.195806,12545.955541,0,16.76022,97.00858
1580908832.71559,4,0,1580907286.99823,41.20781296037784,29.0754925099451,275.2123,0.1345286,-1,23.46983528137207,200,-9999,12548.502238875,0.95599365234375,0.1067047119140625,-0.177093505859375,12548.492198875,-1.146978487998077,1.397288365481482,-0.1107659528682087,-0.002838600426912308,0.01109549216926098,0.001768438145518303,-0.02950167655944824,-0.003348410129547119,-0.01094073057174683,2,-0.3128281020397072,-0.5624484087617059,0.4447211742487241,-0.6229073394818196,0.9789490699768066,0.1105395928025246,-0.1715807318687439,23.46206665039062,9.082979202270508,-25.882080078125,2,12548.091045875,4,2,1580908832.332212,1580903939.50652,2992,0.4866275,0,0,3614.279,14,15,1580908820.195806,12545.955541,0,16.76022,97.00858
1580908832.71666,5,0,1580907286.99823,41.20781296037784,29.0754925099451,275.2123,0.1345286,-1,23.46983528137207,200,-9999,12548.512279875,0.9618072509765625,0.10693359375,-0.1757049560546875,12548.502238875,-1.146946751455613,1.397457075728545,-0.1107111657907693,-0.001833619549870491,0.01809735223650932,0.006248747929930687,-0.02698862552642822,-0.00402618944644928,-0.008725285530090332,2,-0.3128748450569205,-0.562495362201755,0.4446707431953865,-0.6228773694575711,0.9789838194847107,0.1104851439595222,-0.1714165955781937,23.77046966552734,9.156530380249023,-25.9019775390625,2,12548.091045875,4,2,1580908832.332212,1580903939.50652,2992,0.4866275,0,0,3614.279,14,15,1580908820.195806,12545.955541,0,16.76022,97.00858
1580908832.723496,6,0,1580907286.99823,41.20781296037784,29.0754925099451,275.2123,0.1345286,-1,23.46983528137207,200,-9999,12548.522319875,0.968017578125,0.1094207763671875,-0.1721038818359375,12548.512279875,-1.146916075592589,1.397579035414604,-0.1106518980023549,-0.002298341132700443,0.01415267586708069,0.006230372004210949,-0.02198070287704468,-0.004104360938072205,-0.008111536502838135,2,-0.312912895638214,-0.562526751356876,0.4446268103299316,-0.6228613782557987,0.9790112972259521,0.1104262322187424,-0.1712983548641205,23.77046966552734,9.156530380249023,-25.9019775390625,2,12548.091045875,4,2,1580908832.332212,1580903939.50652,2992,0.4866275,0,0,3614.279,14,15,1580908820.195806,12545.955541,0,16.76022,97.00858
1580908832.733726,7,0,1580907286.99823,41.20781296037784,29.0754925099451,275.2123,0.1345286,-1,23.46983528137207,200,-9999,12548.532359875,0.9659271240234375,0.108245849609375,-0.17413330078125,12548.522319875,-1.146911959275336,1.397592491534552,-0.110593011325106,0.0009342757984995842,0.00314013659954071,0.004585541784763336,-0.01477217674255371,-0.001558482646942139,-0.003881990909576416,2,-0.312934241415364,-0.5625202420553483,0.4446082045543315,-0.6228697109100219,0.9790198802947998,0.1103677079081535,-0.1712862700223923,23.76165008544922,8.925966262817383,-25.789306640625,2,12548.091045875,4,2,1580908832.332212,1580903939.50652,2992,0.4866275,0,0,3614.279,14,15,1580908820.195806,12545.955541,0,16.76022,97.00858
1580908832.763868,8,0,1580907286.99823,41.20781296037784,29.0754925099451,275.2123,0.1345286,-1,23.46983528137207,200,-9999,12548.542430875,0.9637451171875,0.1064300537109375,-0.175262451171875,12548.532359875,-1.14691531443338,1.3975279340104,-0.1105364983022546,0.0006871344521641731,-0.008195075206458569,0.004983152262866497,-0.01661354303359985,-0.002219244837760925,-0.005770564079284668,2,-0.3129395271466759,-0.5624887344762931,0.4446047526722886,-0.6228979639106726,0.9790149927139282,0.1103115379810333,-0.1713505536317825,23.76165008544922,8.925966262817383,-25.789306640625,2,12548.091045875,4,2,1580908832.332212,1580903939.50652,2992,0.4866275,0,0,3614.279,14,15,1580908820.195806,12545.955541,0,16.76022,97.00858
1580908832.765211,9,0,1580907286.99823,41.20781296037784,29.0754925099451,275.2123,0.1345286,-1,23.46983528137207,200,-9999,12548.552470875,0.962860107421875,0.107391357421875,-0.1741790771484375,12548.542430875,-1.146939711940357,1.397437165067656,-0.110484837554385,0.003597170114517212,-0.007602255791425705,0.004714705049991608,-0.01895356178283691,-0.0042886883020401,-0.006977379322052002,2,-0.3129432772014384,-0.5624467098948635,0.4446132146929259,-0.6229280396864457,0.9790050983428955,0.1102601960301399,-0.1714404076337814,23.83141326904297,8.942605972290039,-25.769287109375,2,12548.091045875,4,2,1580908832.332212,1580903939.50652,2992,0.4866275,0,0,3614.279,14,15,1580908820.195806,12545.955541,0,16.76022,97.00858
1580908832.76637,10,0,1580907286.99823,41.20781296037784,29.0754925099451,275.2123,0.1345286,-1,23.46983528137207,200,-9999,12548.562511875,0.960601806640625,0.1070404052734375,-0.17572021484375,12548.552470875,-1.146970930062718,1.397304176717882,-0.1104221145555282,0.004489596001803875,-0.01261512376368046,0.006904888898134232,-0.01973104476928711,-0.003310590982437134,-0.006113171577453613,2,-0.3129432547668756,-0.5623883231986391,0.444627543198111,-0.6229704852460551,0.9789890050888062,0.1101978570222855,-0.1715717911720276,23.83141326904297,8.942605972290039,-25.769287109375,2,12548.091045875,4,2,1580908832.332212,1580903939.50652,2992,0.4866275,0,0,3614.279,14,15,1580908820.195806,12545.955541,0,16.76022,97.00858
1580908832.773768,11,0,1580907286.99823,41.20781296037784,29.0754925099451,275.2123,0.1345286,-1,23.46983528137207,200,-9999,12548.572551875,0.9603729248046875,0.1079559326171875,-0.177001953125,12548.562511875,-1.147008962456878,1.397133219026466,-0.110354814970104,0.005029653199017048,-0.01602819189429283,0.005630724132061005,-0.02207410335540771,-0.003594398498535156,-0.006798446178436279,2,-0.3129381866366282,-0.5623161676786972,0.4446487625996922,-0.6230230577872642,0.978967010974884,0.1101309657096863,-0.1717404425144196,23.65795135498047,8.957244873046875,-25.8172607421875,2,12548.091045875,4,2,1580908832.332212,1580903939.50652,2992,0.4866275,0,0,3614.279,14,15,1580908820.195806,12545.955541,0,16.76022,97.00858
1580908832.783917,12,0,1580907286.99823,41.20781296037784,29.0754925099451,275.2123,0.1345286,-1,23.46983528137207,200,-9999,12548.582591875,0.962982177734375,0.10968017578125,-0.175140380859375,12548.572551875,-1.147066626181561,1.396965210339749,-0.110250577632147,0.007473103702068329,-0.0147583968937397,0.00857857707887888,-0.02260595560073853,-0.002727463841438293,-0.008340537548065186,2,-0.3129515365205413,-0.5622347302374643,0.4446660943560135,-0.6230774371558215,0.9789494276046753,0.1100273579359055,-0.1719068884849548,23.65795135498047,8.957244873046875,-25.8172607421875,2,12548.091045875,4,2,1580908832.332212,1580903939.50652,2992,0.4866275,0,0,3614.279,14,15,1580908820.195806,12545.955541,0,16.76022,97.00858
1580908832.793834,13,0,1580907286.99823,41.20781296037784,29.0754925099451,275.2123,0.1345286,-1,23.46983528137207,200,-9999,12548.592632875,0.9712066650390625,0.1098175048828125,-0.1703643798828125,12548.582591875,-1.147159775221277,1.39676223948566,-0.1101073726174747,0.01208470948040485,-0.01586811244487762,0.01192152127623558,-0.02025169134140015,-0.0007687807083129883,-0.006536006927490234,2,-0.3129799548785998,-0.5621293376849665,0.4446899009006284,-0.6231412730827673,0.9789300560951233,0.1098850220441818,-0.1721083074808121,23.60886383056641,9.016027450561523,-25.88262939453125,2,12548.091045875,4,2,1580908832.332212,1580903939.50652,2992,0.4866275,0,0,3614.279,14,15,1580908820.195806,12545.955541,0,16.76022,97.00858
1580908832.825782,14,0,1580907286.99823,41.20781296037784,29.0754925099451,275.2123,0.1345286,-1,23.46983528137207,200,-9999,12548.602672875,0.972808837890625,0.1117095947265625,-0.1683807373046875,12548.592632875,-1.147279159468419,1.396356903646658,-0.1099383939009605,0.0139265526086092,-0.0374559611082077,0.01291141845285892,-0.01234179735183716,-0.0003713071346282959,-0.001587569713592529,2,-0.3129793064084176,-0.5619517833784973,0.4447468992930989,-0.6232609497821648,0.978878378868103,0.1097170636057854,-0.1725082993507385,23.60886383056641,9.016027450561523,-25.88262939453125,2,12548.091045875,4,2,1580908832.332212,1580903939.50652,2992,0.4866275,0,0,3614.279,14,15,1580908820.195806,12545.955541,0,16.76022,97.00858
1580908832.82707,15,0,1580907286.99823,41.20781296037784,29.0754925099451,275.2123,0.1345286,-1,23.46983528137207,200,-9999,12548.612712875,0.9651641845703125,0.107208251953125,-0.1730194091796875,12548.602672875,-1.147426862405832,1.395702779635762,-0.1097360830437421,0.01794822514057159,-0.06373982131481171,0.01662050746381283,-0.009580075740814209,0.001768425107002258,0.001561641693115234,2,-0.312942212541626,-0.5616858087811875,0.4448430875668279,-0.6234507651160032,0.9787872433662415,0.1095159724354744,-0.1731524467468262,23.77310943603516,9.0718994140625,-26.06646728515625,2,12548.091045875,4,2,1580908832.332212,1580903939.50652,2992,0.4866275,0,0,3614.279,14,15,1580908820.195806,12545.955541,0,16.76022,97.00858
1580908832.828069,16,0,1580907286.99823,41.20781296037784,29.0754925099451,275.2123,0.1345286,-1,23.46983528137207,200,-9999,12548.622752875,0.9516448974609375,0.1027374267578125,-0.1849822998046875,12548.612712875,-1.147557574014361,1.39493800530451,-0.109530633102867,0.01655619218945503,-0.07681646943092346,0.01772092469036579,-0.01581674814224243,-0.001627624034881592,-0.001512885093688965,2,-0.3128767296320124,-0.5613873005416868,0.4449505009520849,-0.6236759170216715,0.9786767959594727,0.1093117594718933,-0.1739048957824707,23.77310943603516,9.0718994140625,-26.06646728515625,2,12548.091045875,4,2,1580908832.332212,1580903939.50652,2992,0.4866275,0,0,3614.279,14,15,1580908820.195806,12545.955541,0,16.76022,97.00858
1580908832.834151,17,0,1580907286.99823,41.20781296037784,29.0754925099451,275.2123,0.1345286,-1,23.46983528137207,200,-9999,12548.632823875,0.9550018310546875,0.10528564453125,-0.1858367919921875,12548.622752875,-1.147672918015466,1.394350089912609,-0.1093411968485593,0.01335337851196527,-0.056623175740242,0.0170179195702076,-0.03009307384490967,-0.006901264190673828,-0.01240658760070801,2,-0.3128410098317132,-0.5611493276463088,0.4450295850926375,-0.6238514724670066,0.9785946607589722,0.1091234534978867,-0.1744838654994965,23.57954406738281,8.875411987304688,-26.0028076171875,2,12548.091045875,4,2,1580908832.332212,1580903939.50652,2992,0.4866275,0,0,3614.279,14,15,1580908820.195806,12545.955541,0,16.76022,97.00858
1580908832.844036,18,0,1580907286.99823,41.20781296037784,29.0754925099451,275.2123,0.1345286,-1,23.46983528137207,200,-9999,12548.642863875,0.958953857421875,0.1020355224609375,-0.1788482666015625,12548.632823875,-1.147820277571484,1.39389962757844,-0.1091819648928723,0.01839980483055115,-0.03975151851773262,0.01372358947992325,-0.02807801961898804,-0.004117861390113831,-0.01493644714355469,2,-0.312834835028159,-0.5609549974480437,0.4451049603624766,-0.6239754766430663,0.9785329699516296,0.1089651733636856,-0.1749277114868164,23.57954406738281,8.875411987304688,-26.0028076171875,2,12548.091045875,4,2,1580908832.332212,1580903939.50652,2992,0.4866275,0,0,3614.279,14,15,1580908820.195806,12545.955541,0,16.76022,97.00858
1580908832.854169,19,0,1580907286.99823,41.20781296037784,29.0754925099451,275.2123,0.1345286,-1,23.46983528137207,200,-9999,12548.652904875,0.9507598876953125,0.1060943603515625,-0.18743896484375,12548.642863875,-1.147893347936632,1.393465612167338,-0.109075783524611,0.006636087782680988,-0.04566533118486404,0.009397285059094429,-0.02300834655761719,-0.007094159722328186,-0.006741344928741455,2,-0.3127938689305344,-0.5607876386886479,0.4451682786708349,-0.6241012867089001,0.9784684181213379,0.108859620988369,-0.1753544360399246,23.51106262207031,9.083518981933594,-25.91162109375,2,12548.091045875,4,2,1580908832.332212,1580903939.50652,2992,0.4866275,0,0,3614.279,14,15,1580908820.195806,12545.955541,0,16.76022,97.00858
1580908832.889152,20,0,1580907286.99823,41.20781296037784,29.0754925099451,275.2123,0.1345286,-1,23.46983528137207,200,-9999,12548.66294425,0.9591064453125,0.106689453125,-0.1836395263671875,12548.652904875,-1.14803389136833,1.393296317907574,-0.1089788576823341,0.01775452122092247,-0.01134491059929132,0.007277941331267357,-0.03112185001373291,-0.003518462181091309,-0.01424837112426758,2,-0.3128276619770318,-0.5606941021013344,0.4452136423255795,-0.6241360678284429,0.9784491062164307,0.1087632700800896,-0.1755219548940659,23.51106262207031,9.083518981933594,-25.91162109375,2,12548.091045875,4,2,1580908832.332212,1580903939.50652,2992,0.4866275,0,0,3614.279,14,15,1580908820.195806,12545.955541,0,16.76022,97.00858
1580908832.890489,21,0,1580907286.99823,41.20781296037784,29.0754925099451,275.2123,0.1345286,-1,23.46983528137207,200,-9999,12548.67298425,0.9702606201171875,0.1057281494140625,-0.1737213134765625,12548.66294425,-1.148177368804655,1.393152945796527,-0.1089184325994962,0.01377614215016365,-0.01062134560197592,0.002934430725872517,-0.02470964193344116,-0.002222210168838501,-0.0126415491104126,2,-0.3128559724825999,-0.5606152361137052,0.4452652748279999,-0.6241558774438397,0.9784303903579712,0.1087032034993172,-0.1756633967161179,23.71684265136719,8.861164093017578,-25.839111328125,2,12548.091045875,4,2,1580908832.332212,1580903939.50652,2992,0.4866275,0,0,3614.279,14,15,1580908820.195806,12545.955541,0,16.76022,97.00858
1580908832.891696,22,0,1580907286.99823,41.20781296037784,29.0754925099451,275.2123,0.1345286,-1,23.46983528137207,200,-9999,12548.68302525,0.9647216796875,0.10809326171875,-0.180145263671875,12548.67298425,-1.148329376660286,1.392876586701697,-0.1088873210675511,0.01497429795563221,-0.02625010535120964,-0.0002288715913891792,-0.01199936866760254,-0.003305017948150635,-0.0008032917976379395,2,-0.3128473515958958,-0.5604991918003365,0.4453479286188907,-0.6242054264319224,0.9783850908279419,0.1086722761392593,-0.175934374332428,23.71684265136719,8.861164093017578,-25.839111328125,2,12548.091045875,4,2,1580908832.332212,1580903939.50652,2992,0.4866275,0,0,3614.279,14,15,1580908820.195806,12545.955541,0,16.76022,97.00858
1580908832.894329,23,0,1580907286.99823,41.20781296037784,29.0754925099451,275.2123,0.1345286,-1,23.46983528137207,200,-9999,12548.69306525,0.974395751953125,0.108001708984375,-0.1778717041015625,12548.68302525,-1.148497490261202,1.392521791391331,-0.108818956780467,0.01789028197526932,-0.03374321013689041,0.003946977667510509,-0.01702523231506348,-0.0014210045337677,-0.006312847137451172,2,-0.3128380614339673,-0.5603489408167163,0.4454382956399833,-0.6242805512451158,0.9783300161361694,0.1086043193936348,-0.1762828230857849,23.67873382568359,8.755552291870117,-25.96044921875,2,12548.091045875,4,2,1580908832.332212,1580903939.50652,2992,0.4866275,0,0,3614.279,14,15,1580908820.195806,12545.955541,0,16.76022,97.00858
1580908832.90426,24,0,1580907286.99823,41.20781296037784,29.0754925099451,275.2123,0.1345286,-1,23.46983528137207,200,-9999,12548.70310525,0.973541259765625,0.11114501953125,-0.1680755615234375,12548.69306525,-1.148692395880161,1.391957631587113,-0.1086731587359836,0.02333591505885124,-0.05194884538650513,0.01199664734303951,-0.009021639823913574,-0.0009245574474334717,-0.005160868167877197,2,-0.3128152482247907,-0.560114133953218,0.4455498494774076,-0.6244231311245566,0.9782460331916809,0.1084593832492828,-0.1768375486135483,23.67873382568359,8.755552291870117,-25.96044921875,2,12548.091045875,4,2,1580908832.332212,1580903939.50652,2992,0.4866275,0,0,3614.279,14,15,1580908820.195806,12545.955541,0,16.76022,97.00858
1580908832.914438,25,0,1580907286.99823,41.20781296037784,29.0754925099451,275.2123,0.1345286,-1,23.46983528137207,200,-9999,12548.71314525,0.9683685302734375,0.1140594482421875,-0.1771392822265625,12548.70310525,-1.148864860373383,1.391044444361697,-0.1084464335509207,0.01858916878700256,-0.08995571732521057,0.01988619938492775,-0.007494986057281494,0.001865148544311523,0.006253242492675781,2,-0.312735195877509,-0.5597580831991055,0.4456881613056224,-0.624683621751658,0.9781081676483154,0.1082339957356453,-0.1777351647615433,23.53197479248047,8.952266693115234,-25.9300537109375,2,12548.091045875,4,2,1580908832.332212,1580903939.50652,2992,0.4866275,0,0,3614.279,14,15,1580908820.195806,12545.955541,0,16.76022,97.00858
1580908832.949497,26,0,1580907286.99823,41.20781296037784,29.0754925099451,275.2123,0.1345286,-1,23.46983528137207,200,-9999,12548.72321625,0.9614410400390625,0.1143798828125,-0.1788330078125,12548.71314525,-1.149139912469315,1.389991788375144,-0.1080992366336615,0.03351352363824844,-0.1000818535685539,0.02871457859873772,-0.01280605792999268,0.005614399909973145,-0.0002897381782531738,2,-0.3126924949120741,-0.559318940846919,0.4458493957734346,-0.624983332947193,0.977957546710968,0.107888825237751,-0.1787714511156082,23.53197479248047,8.952266693115234,-25.9300537109375,2,12548.091045875,4,2,1580908832.332212,1580903939.50652,2992,0.4866275,0,0,3614.279,14,15,1580908820.195806,12545.955541,0,16.76022,97.00858
1580908832.95076,27,0,1580907286.99823,41.20781296037784,29.0754925099451,275.2123,0.1345286,-1,23.46983528137207,200,-9999,12548.73325725,0.9600982666015625,0.1096038818359375,-0.1786041259765625,12548.72321625,-1.149491302324551,1.388810426524595,-0.1076172162308614,0.04326575249433517,-0.1123374551534653,0.04056617990136147,-0.01964819431304932,0.006797417998313904,-0.002370595932006836,2,-0.3126870082556771,-0.5588012267503267,0.4460200460685899,-0.6253273696900753,0.977796733379364,0.1074096113443375,-0.1799360513687134,23.55777740478516,8.761125564575195,-25.9754638671875,2,12548.091045875,4,2,1580908832.332212,1580903939.50652,2992,0.4866275,0,0,3614.279,14,15,1580908820.195806,12545.955541,0,16.76022,97.00858
1580908832.95181,28,0,1580907286.99823,41.20781296037784,29.0754925099451,275.2123,0.1345286,-1,23.46983528137207,200,-9999,12548.74329725,0.9497222900390625,0.107757568359375,-0.1887664794921875,12548.73325725,-1.14985331889368,1.38748757961785,-0.1070443794253798,0.04516272246837616,-0.1291848868131638,0.05041002109646797,-0.02090346813201904,0.002547368407249451,9.840726852416992e-05,2,-0.312682947967155,-0.5582195935700229,0.44619294854245,-0.6257252382897246,0.9776180386543274,0.1068400666117668,-0.181240513920784,23.55777740478516,8.761125564575195,-25.9754638671875,2,12548.091045875,4,2,1580908832.332212,1580903939.50652,2992,0.4866275,0,0,3614.279,14,15,1580908820.195806,12545.955541,0,16.76022,97.00858
1580908832.954438,29,0,1580907286.99823,41.20781296037784,29.0754925099451,275.2123,0.1345286,-1,23.46983528137207,200,-9999,12548.75333725,0.946746826171875,0.105621337890625,-0.192901611328125,12548.74329725,-1.150278763496748,1.386308292968237,-0.1064655172659238,0.05135856568813324,-0.1126541048288345,0.05025742202997208,-0.03040766716003418,0.001309394836425781,-0.008651137351989746,2,-0.3127303816254092,-0.5576714166837508,0.4463619066472827,-0.6260697311413113,0.9774642586708069,0.1062645018100739,-0.1824045926332474,23.57846069335938,8.692209243774414,-26.08392333984375,2,12548.091045875,4,2,1580908832.332212,1580903939.50652,2992,0.4866275,0,0,3614.279,14,15,1580908820.195806,12545.955541,0,16.76022,97.00858
1580908832.964713,30,0,1580907286.99823,41.20781296037784,29.0754925099451,275.2123,0.1345286,-1,23.46983528137207,200,-9999,12548.76337725,0.9514312744140625,0.1053619384765625,-0.1895599365234375,12548.75333725,-1.150799077730037,1.385374334585219,-0.1059490638158512,0.0598340779542923,-0.08791280537843704,0.04160347953438759,-0.03500503301620483,-0.0001281797885894775,-0.01279020309448242,2,-0.312838126243196,-0.5571970386755186,0.4465384129977391,-0.626312414454899,0.9773473143577576,0.1057509556412697,-0.1833275407552719,23.57846069335938,8.692209243774414,-26.08392333984375,2,12548.091045875,4,2,1580908832.332212,1580903939.50652,2992,0.4866275,0,0,3614.279,14,15,1580908820.195806,12545.955541,0,16.76022,97.00858
1580908832.974509,31,0,1580907286.99823,41.20781296037784,29.0754925099451,275.2123,0.1345286,-1,23.46983528137207,200,-9999,12548.77341825,0.950103759765625,0.1138458251953125,-0.1912078857421875,12548.76337725,-1.151372733285508,1.384596667086353,-0.1055416879220007,0.06268126517534256,-0.0670381486415863,0.03161316365003586,-0.029441237449646,-0.0012778639793396,-0.009364068508148193,2,-0.3129592538973449,-0.5567842949341117,0.4467353207589596,-0.6264786202404025,0.9772468209266663,0.1053458601236343,-0.1840955018997192,23.44367218017578,8.789545059204102,-26.2330322265625,2,12548.091045875,4,2,1580908832.332212,1580903939.50652,2992,0.4866275,0,0,3614.279,14,15,1580908820.195806,12545.955541,0,16.76022,97.00858
1580908833.009974,32,0,1580907286.99823,41.20781296037784,29.0754925099451,275.2123,0.1345286,-1,23.46983528137207,200,-9999,12548.78345825,0.9516143798828125,0.1060028076171875,-0.194580078125,12548.77341825,-1.152065971539358,1.384044234683432,-0.105216720069231,0.07419703900814056,-0.04193839058279991,0.02136745303869247,-0.03199732303619385,0.00904102623462677,-0.008404076099395752,2,-0.3131365635400288,-0.5564392717515199,0.4469556713805741,-0.6265392314419126,0.9771783947944641,0.1050226911902428,-0.1846416592597961,23.44367218017578,8.789545059204102,-26.2330322265625,2,12548.091045875,4,2,1580908832.332212,1580903939.50652,2992,0.4866275,0,0,3614.279,14,15,1580908820.195806,12545.955541,0,16.76022,97.00858
1580908833.011198,33,0,1580907286.99823,41.20781296037784,29.0754925099451,275.2123,0.1345286,-1,23.46983528137207,200,-9999,12548.79349825,0.946197509765625,0.1053924560546875,-0.1945953369140625,12548.78345825,-1.152823899039569,1.383716226891062,-0.1049483847596131,0.07720135152339935,-0.02787104249000549,0.008802390657365322,-0.02850055694580078,0.001191243529319763,-0.01311236619949341,2,-0.3133629691965872,-0.5561653828144639,0.4471757619858404,-0.6265123173144853,0.9771455526351929,0.1047558411955833,-0.184967428445816,23.38258361816406,8.564435958862305,-26.275634765625,2,12548.091045875,4,2,1580908832.332212,1580903939.50652,2992,0.4866275,0,0,3614.279,14,15,1580908820.195806,12545.955541,0,16.76022,97.00858
1580908833.012823,34,0,1580907286.99823,41.20781296037784,29.0754925099451,275.2123,0.1345286,-1,23.46983528137207,200,-9999,12548.80353825,0.9343109130859375,0.1004638671875,-0.199493408203125,12548.79349825,-1.153574668397645,1.383612350936177,-0.1045870286813706,0.08073749393224716,-0.003346256911754608,0.02362927421927452,-0.03417962789535522,0.0005754381418228149,-0.0121644139289856,2,-0.3136683052015097,-0.5559444461752212,0.4473346783745507,-0.6264419938714989,0.9771633148193359,0.1043964624404907,-0.1850759387016296,23.38258361816406,8.564435958862305,-26.275634765625,2,12548.091045875,4,2,1580908832.332212,1580903939.50652,2992,0.4866275,0,0,3614.279,14,15,1580908820.195806,12545.955541,0,16.76022,97.00858
1580908833.014848,35,0,1580907286.99823,41.20781296037784,29.0754925099451,275.2123,0.1345286,-1,23.46983528137207,200,-9999,12548.81360925,0.9360809326171875,0.0922698974609375,-0.20172119140625,12548.80353825,-1.1542515404683,1.383802043934266,-0.1041532256872374,0.07359462976455688,0.02694719843566418,0.03110316768288612,-0.0453527569770813,-0.002821415662765503,-0.01736211776733398,2,-0.3140425528589761,-0.5558127163468204,0.4474058455881226,-0.6263206888873953,0.9772429466247559,0.1039650216698647,-0.1848990023136139,23.5428466796875,8.751518249511719,-26.1314697265625,2,12548.091045875,4,2,1580908832.332212,1580903939.50652,2992,0.4866275,0,0,3614.279,14,15,1580908820.195806,12545.955541,0,16.76022,97.00858
1580908833.024753,36,0,1580907286.99823,41.20781296037784,29.0754925099451,275.2123,0.1345286,-1,23.46983528137207,200,-9999,12548.82365025,0.9556884765625,0.1053009033203125,-0.187896728515625,12548.81360925,-1.154833736117864,1.384219117549864,-0.1035671337319072,0.06675838679075241,0.05038927495479584,0.0472855307161808,-0.04658877849578857,-0.01116263866424561,-0.02070522308349609,2,-0.3144917956757609,-0.5557369764171644,0.4473725157828454,-0.6261861470518171,0.9773795604705811,0.1033820882439613,-0.1845026463270187,23.5428466796875,8.751518249511719,-26.1314697265625,2,12548.80613225,1,2,1580908833.047298,1580903939.50652,2992,0.4866275,0,0,3614.279,14,15,1580908820.195806,12545.955541,0,16.76022,97.00858
1580908833.034864,37,0,1580907286.99823,41.20781296037784,29.0754925099451,275.2123,0.1345286,-1,23.46983528137207,200,-9999,12548.83369025,0.971923828125,0.120758056640625,-0.1782684326171875,12548.82365025,-1.155438250354031,1.384570356651694,-0.1028843468500735,0.06887966394424438,0.04290914535522461,0.05665328353643417,-0.02722209692001343,-0.0002116262912750244,-0.008447825908660889,2,-0.3149642719794024,-0.5556179465069915,0.4473316161588283,-0.6260837315917381,0.9775136709213257,0.1027029380202293,-0.1841724067926407,23.48811340332031,8.57133674621582,-26.37200927734375,2,12548.80613225,1,2,1580908833.047298,1580903939.50652,2992,0.4866275,0,0,3614.279,14,15,1580908820.195806,12545.955541,0,16.76022,97.00858
1580908833.063687,38,0,1580907286.99823,41.20781296037784,29.0754925099451,275.2123,0.1345286,-1,23.46983528137207,200,-9999,12548.84373025,0.975311279296875,0.115478515625,-0.174530029296875,12548.83369025,-1.156283083368457,1.384646565927631,-0.1022147688409931,0.09539409726858139,0.01880300790071487,0.05165266990661621,-0.01119035482406616,0.01779098808765411,0.002079665660858154,2,-0.3154376050630425,-0.5553772031224028,0.4474124955792319,-0.6260010225777185,0.9775948524475098,0.1020368710160255,-0.184110552072525,23.58684539794922,8.520061492919922,-26.3802490234375,2,12548.80613225,1,2,1580908833.047298,1580903939.50652,2992,0.4866275,0,0,3614.279,14,15,1580908820.195806,12545.955541,0,16.76022,97.00858
1580908833.06537,39,0,1580907286.99823,41.20781296037784,29.0754925099451,275.2123,0.1345286,-1,23.46983528137207,200,-9999,12548.85377025,0.9526824951171875,0.1097869873046875,-0.1879119873046875,12548.84373025,-1.157262939378602,1.384412306816377,-0.1015710184086199,0.1066874116659164,-0.01559039950370789,0.04553790763020515,-0.004985809326171875,0.01451241970062256,0.006930112838745117,2,-0.3158701159292238,-0.5550227185214686,0.4475912487030729,-0.625969568939888,0.9776160717010498,0.1013964638113976,-0.1843516975641251,23.58684539794922,8.520061492919922,-26.3802490234375,2,12548.80613225,1,2,1580908833.047298,1580903939.50652,2992,0.4866275,0,0,3614.279,14,15,1580908820.195806,12545.955541,0,16.76022,97.00858
1580908833.06641,40,0,1580907286.99823,41.20781296037784,29.0754925099451,275.2123,0.1345286,-1,23.46983528137207,200,-9999,12548.86381125,0.9317626953125,0.0987091064453125,-0.2019195556640625,12548.85377025,-1.15834824292758,1.38426483141011,-0.1009286637800038,0.1186524704098701,-0.003938537091016769,0.04529795795679092,-0.02595746517181396,0.009172543883323669,-0.004860520362854004,2,-0.3163505682065753,-0.5546786066498702,0.4477897080740803,-0.6258900484106378,0.9776526689529419,0.100757397711277,-0.1845079213380814,23.48078918457031,8.600135803222656,-26.46282958984375,2,12548.80613225,1,2,1580908833.047298,1580903939.50652,2992,0.4866275,0,0,3614.279,14,15,1580908820.195806,12545.955541,0,16.76022,97.00858
1580908833.075041,41,0,1580907286.99823,41.20781296037784,29.0754925099451,275.2123,0.1345286,-1,23.46983528137207,200,-9999,12548.87385125,0.93017578125,0.0754852294921875,-0.2091522216796875,12548.86381125,-1.159437495401251,1.38449937341164,-0.1003466334422196,0.1169735416769981,0.03454999625682831,0.03629831224679947,-0.04867202043533325,1.87605619430542e-05,-0.01962149143218994,2,-0.316897480749656,-0.5544648462755245,0.447944348541048,-0.6256920620013634,0.9777534008026123,0.1001783087849617,-0.1842894405126572,23.48078918457031,8.600135803222656,-26.46282958984375,2,12548.80613225,1,2,1580908833.047298,1580903939.50652,2992,0.4866275,0,0,3614.279,14,15,1580908820.195806,12545.955541,0,16.76022,97.00858
1580908833.085156,42,0,1580907286.99823,41.20781296037784,29.0754925099451,275.2123,0.1345286,-1,23.46983528137207,200,-9999,12548.88389125,0.9396820068359375,0.07373046875,-0.203277587890625,12548.87385125,-1.160334189033116,1.38521127129888,-0.09976209362427665,0.09709304571151733,0.08290661126375198,0.04177244007587433,-0.05214172601699829,-0.02266702055931091,-0.02853399515151978,2,-0.317498594229375,-0.55442997313505,0.4479621795630663,-0.6254053239766812,0.977941632270813,0.09959669411182404,-0.1836040914058685,23.39566040039062,8.222415924072266,-26.512451171875,2,12548.80613225,1,2,1580908833.047298,1580903939.50652,2992,0.4866275,0,0,3614.279,14,15,1580908820.195806,12545.955541,0,16.76022,97.00858
1580908833.0954,43,0,1580907286.99823,41.20781296037784,29.0754925099451,275.2123,0.1345286,-1,23.46983528137207,200,-9999,12548.89393225,0.9572601318359375,0.084442138671875,-0.1933135986328125,12548.88389125,-1.161086885491402,1.386213452258807,-0.09924768469697565,0.08102425187826157,0.1102999895811081,0.03783810138702393,-0.04367870092391968,-0.02688336372375488,-0.02474749088287354,2,-0.3181014400582776,-0.5545221408369906,0.447906430717957,-0.6250572679494083,0.9781755208969116,0.09908483177423477,-0.1826333403587341,23.39566040039062,8.222415924072266,-26.512451171875,2,12548.80613225,1,2,1580908833.047298,1580903939.50652,2992,0.4866275,0,0,3614.279,14,15,1580908820.195806,12545.955541,0,16.76022,97.00858
1580908833.125642,44,0,1580907286.99823,41.20781296037784,29.0754925099451,275.2123,0.1345286,-1,23.46983528137207,200,-9999,12548.90400225,0.9693450927734375,0.0869140625,-0.1864471435546875,12548.89393225,-1.161822912573141,1.387306492530127,-0.09887649876908639,0.07856988161802292,0.119270846247673,0.02336914651095867,-0.0269317626953125,-0.01522105932235718,-0.01583492755889893,2,-0.3186727295220826,-0.5546731646020062,0.447867207907534,-0.6246602559782933,0.9784107208251953,0.09871546179056168,-0.1815707385540009,23.45147705078125,8.341611862182617,-26.30169677734375,2,12548.80613225,1,2,1580908833.047298,1580903939.50652,2992,0.4866275,0,0,3614.279,14,15,1580908820.195806,12545.955541,0,16.76022,97.00858
1580908833.127076,45,0,1580907286.99823,41.20781296037784,29.0754925099451,275.2123,0.1345286,-1,23.46983528137207,200,-9999,12548.91404325,0.965087890625,0.08367919921875,-0.1861724853515625,12548.90400225,-1.162536194260309,1.388374310077253,-0.09864151688421383,0.07390942424535751,0.1125971302390099,0.01080866623669863,-0.01335489749908447,-0.01188880205154419,-0.009494483470916748,2,-0.3191871156349402,-0.5548464109317928,0.4478593549565764,-0.6242493247624097,0.9786268472671509,0.09848162531852722,-0.1805300861597061,23.45147705078125,8.341611862182617,-26.30169677734375,2,12548.80613225,1,2,1580908833.047298,1580903939.50652,2992,0.4866275,0,0,3614.279,14,15,1580908820.195806,12545.955541,0,16.76022,97.00858
1580908833.128031,46,0,1580907286.99823,41.20781296037784,29.0754925099451,275.2123,0.1345286,-1,23.46983528137207,200,-9999,12548.92408325,0.9644622802734375,0.0767364501953125,-0.186187744140625,12548.91404325,-1.163167092033813,1.389462999303742,-0.09851359014095208,0.06384081393480301,0.1157745495438576,0.003074846230447292,-0.01679891347885132,-0.01432448625564575,-0.009707629680633545,2,-0.3196481667182525,-0.5550600432116261,0.4478494798570936,-0.6238302325872214,0.9788349866867065,0.09835432469844818,-0.1794667989015579,23.52592468261719,8.335958480834961,-26.3431396484375,2,12548.80613225,1,2,1580908833.047298,1580903939.50652,2992,0.4866275,0,0,3614.279,14,15,1580908820.195806,12545.955541,0,16.76022,97.00858
1580908833.135335,47,0,1580907286.99823,41.20781296037784,29.0754925099451,275.2123,0.1345286,-1,23.46983528137207,200,-9999,12548.93412325,0.9703216552734375,0.0788116455078125,-0.177978515625,12548.92408325,-1.163665636634588,1.390522136977824,-0.09847579777223868,0.05049123987555504,0.1122720986604691,-0.005001217126846313,-0.01902186870574951,-0.02148881554603577,-0.01126611232757568,2,-0.3200361080634371,-0.5553031210502861,0.4478258617371232,-0.6234319716786701,0.9790283441543579,0.09831671416759491,-0.1784306615591049,23.52592468261719,8.335958480834961,-26.3431396484375,2,12548.80613225,1,2,1580908833.047298,1580903939.50652,2992,0.4866275,0,0,3614.279,14,15,1580908820.195806,12545.955541,0,16.76022,97.00858
1580908833.145697,48,0,1580907286.99823,41.20781296037784,29.0754925099451,275.2123,0.1345286,-1,23.46983528137207,200,-9999,12548.94416325,0.9743194580078125,0.0900421142578125,-0.17333984375,12548.93412325,-1.163992643060781,1.391368839360286,-0.09845037830379601,0.03140143677592278,0.0885060578584671,-0.00287148728966713,-0.0128893256187439,-0.02073103189468384,-0.004331350326538086,2,-0.3203248580591548,-0.5555096157858789,0.447785690577061,-0.62312849979438,0.9791815280914307,0.09829141944646835,-0.1776020973920822,23.62345886230469,8.356342315673828,-26.41851806640625,2,12548.80613225,1,2,1580908833.047298,1580903939.50652,2992,0.4866275,0,0,3614.279,14,15,1580908820.195806,12545.955541,0,16.76022,97.00858
1580908833.155352,49,0,1580907286.99823,41.20781296037784,29.0754925099451,275.2123,0.1345286,-1,23.46983528137207,200,-9999,12548.95420425,0.987823486328125,0.0961761474609375,-0.1594390869140625,12548.94416325,-1.164263037501403,1.391881516594256,-0.09840200848830967,0.02562364190816879,0.05930806696414948,0.001578300260007381,-0.009658992290496826,-0.009513288736343384,0.0002006292343139648,2,-0.3205307082211766,-0.5556164293648902,0.447775340381503,-0.6229346824986377,0.9792769551277161,0.09824328124523163,-0.1771008968353271,23.62345886230469,8.356342315673828,-26.41851806640625,2,12548.80613225,1,2,1580908833.047298,1580903939.50652,2992,0.4866275,0,0,3614.279,14,15,1580908820.195806,12545.955541,0,16.76022,97.00858
1580908833.18621,50,0,1580907286.99823,41.20781296037784,29.0754925099451,275.2123,0.1345286,-1,23.46983528137207,200,-9999,12548.96424425,0.9943084716796875,0.0974578857421875,-0.150634765625,12548.95420425,-1.164639271482933,1.391724523074385,-0.09845818337009829,0.03481048345565796,-0.009114132262766361,-0.0128946490585804,0.003374814987182617,-0.002840310335159302,0.01283568143844604,2,-0.3205815836425242,-0.5555183340991693,0.447932123659344,-0.6228833002318066,0.9792437553405762,0.09829918295145035,-0.1772536635398865,23.64610290527344,8.359838485717773,-26.53887939453125,2,12548.80613225,1,2,1580908833.047298,1580903939.50652,2992,0.4866275,0,0,3614.279,14,15,1580908820.195806,12545.955541,0,16.76022,97.00858
1580908833.187667,51,0,1580907286.99823,41.20781296037784,29.0754925099451,275.2123,0.1345286,-1,23.46983528137207,200,-9999,12548.97428425,0.998382568359375,0.097808837890625,-0.147216796875,12548.96424425,-1.165221109489765,1.390796052196959,-0.09870507053837081,0.05122175812721252,-0.0859825387597084,-0.03668878600001335,0.01159083843231201,-0.001454219222068787,0.02445584535598755,2,-0.3204539009744171,-0.5551847226783748,0.4483255632627241,-0.6229634476422523,0.9790549278259277,0.09854487329721451,-0.1781584471464157,23.64610290527344,8.359838485717773,-26.53887939453125,2,12548.80613225,1,2,1580908833.047298,1580903939.50652,2992,0.4866275,0,0,3614.279,14,15,1580908820.195806,12545.955541,0,16.76022,97.00858
1580908833.188656,52,0,1580907286.99823,41.20781296037784,29.0754925099451,275.2123,0.1345286,-1,23.46983528137207,200,-9999,12548.98432525,0.98590087890625,0.114898681640625,-0.1396331787109375,12548.97428425,-1.166128954665451,1.388898295575487,-0.09915056885145564,0.08177807182073593,-0.179192379117012,-0.06348524987697601,0.01545447111129761,-0.002891063690185547,0.02803707122802734,2,-0.3201334885909241,-0.5545362653799744,0.4490265925304424,-0.6232007590201578,0.9786717295646667,0.09898819029331207,-0.1800081580877304,23.54378509521484,8.060445785522461,-26.481201171875,2,12548.80613225,1,2,1580908833.047298,1580903939.50652,2992,0.4866275,0,0,3614.279,14,15,1580908820.195806,12545.955541,0,16.76022,97.00858
1580908833.195572,53,0,1580907286.99823,41.20781296037784,29.0754925099451,275.2123,0.1345286,-1,23.46983528137207,200,-9999,12548.99439525,0.9439849853515625,0.0955352783203125,-0.1857147216796875,12548.98432525,-1.16726969365504,1.386049422256413,-0.09971114290809878,0.1021060943603516,-0.2817927002906799,-0.08089014887809753,0.007346034049987793,0.01366932690143585,0.04115539789199829,2,-0.3196246218252587,-0.553576942273629,0.4499813247760479,-0.6236261946071651,0.9781003594398499,0.09954600036144257,-0.1827853471040726,23.54378509521484,8.060445785522461,-26.481201171875,2,12548.80613225,1,2,1580908833.047298,1580903939.50652,2992,0.4866275,0,0,3614.279,14,15,1580908820.195806,12545.955541,0,16.76022,97.00858
1580908833.205704,54,0,1580907286.99823,41.20781296037784,29.0754925099451,275.2123,0.1345286,-1,23.46983528137207,200,-9999,12549.00443625,0.9272918701171875,0.0933837890625,-0.206298828125,12548.99439525,-1.168477956724296,1.383260727453904,-0.1002781245252983,0.1079536005854607,-0.2661034762859344,-0.07784801721572876,-0.03360170125961304,-0.001804858446121216,0.002225697040557861,2,-0.3191438754184697,-0.552626769877221,0.4509482943786742,-0.6240164412411413,0.9775311350822449,0.100110150873661,-0.1855016797780991,23.50556945800781,8.241064071655273,-26.66448974609375,2,12548.80613225,1,2,1580908833.047298,1580903939.50652,2992,0.4866275,0,0,3614.279,14,15,1580908820.195806,12545.955541,0,16.76022,97.00858
1580908833.215519,55,0,1580907286.99823,41.20781296037784,29.0754925099451,275.2123,0.1345286,-1,23.46983528137207,200,-9999,12549.01447625,0.9342193603515625,0.091339111328125,-0.2020263671875,12549.00443625,-1.169751679575631,1.380871545657279,-0.1009095875368136,0.1157910376787186,-0.2246808409690857,-0.08531680703163147,-0.05373656749725342,-0.009393572807312012,-0.02222144603729248,2,-0.318748089662245,-0.5518036984332843,0.4518876443195099,-0.6242674718992581,0.9770228266716003,0.1007384210824966,-0.1878246665000916,23.50556945800781,8.241064071655273,-26.66448974609375,2,12548.80613225,1,2,1580908833.047298,1580903939.50652,2992,0.4866275,0,0,3614.279,14,15,1580908820.195806,12545.955541,0,16.76022,97.00858
1580908833.249449,56,0,1580907286.99823,41.20781296037784,29.0754925099451,275.2123,0.1345286,-1,23.46983528137207,200,-9999,12549.02451625,0.8836822509765625,0.0783538818359375,-0.24627685546875,12549.01447625,-1.170997140821176,1.37881666403209,-0.1016499114205649,0.1088865250349045,-0.1959317475557327,-0.1006057485938072,-0.04565912485122681,-0.009461581707000732,-0.01471233367919922,2,-0.3183824690485473,-0.5511114019207989,0.452791909274163,-0.62441035184972,0.9765613675117493,0.1014749482274055,-0.1898176521062851,23.37379455566406,8.318912506103516,-26.90191650390625,2,12548.80613225,1,2,1580908833.047298,1580903939.50652,2992,0.4866275,0,0,3614.279,14,15,1580908820.195806,12545.955541,0,16.76022,97.00858
1580908833.251226,57,0,1580907286.99823,41.20781296037784,29.0754925099451,275.2123,0.1345286,-1,23.46983528137207,200,-9999,12549.03455725,0.8423614501953125,0.0430145263671875,-0.3316802978515625,12549.02451625,-1.171818732546235,1.378702984297096,-0.1025316868752374,0.05439885705709457,-0.03704646974802017,-0.1036922112107277,-0.08770895004272461,-0.02073340117931366,-0.04922503232955933,2,-0.3182920783818144,-0.5511210390915933,0.4532902299849192,-0.6240862702811397,0.9764515161514282,0.1023521348834038,-0.1899114996194839,23.37379455566406,8.318912506103516,-26.90191650390625,2,12548.80613225,1,2,1580908833.047298,1580903939.50652,2992,0.4866275,0,0,3614.279,14,15,1580908820.195806,12545.955541,0,16.76022,97.00858
1580908833.252236,58,0,1580907286.99823,41.20781296037784,29.0754925099451,275.2123,0.1345286,-1,23.46983528137207,200,-9999,12549.04459725,1.072341918945312,0.0761260986328125,-0.1638641357421875,12549.03455725,-1.172457020862035,1.381844826428151,-0.1038707321818639,0.04555796086788177,0.3679247200489044,-0.1532373875379562,-0.1463794112205505,-0.06117875874042511,-0.1502321362495422,2,-0.3187385165626533,-0.5522656531581062,0.45332875512889,-0.622817337203625,0.9769079089164734,0.1036840528249741,-0.1868168115615845,23.26372528076172,8.400470733642578,-27.08563232421875,2,12548.80613225,1,2,1580908833.047298,1580903939.50652,2992,0.4866275,0,0,3614.279,14,15,1580908820.195806,12545.955541,0,16.76022,97.00858
1580908833.25581,59,0,1580907286.99823,41.20781296037784,29.0754925099451,275.2123,0.1345286,-1,23.46983528137207,200,-9999,12549.05463725,1.078109741210938,0.1051788330078125,-0.12811279296875,12549.04459725,-1.172616546708305,1.383510167518306,-0.1054275139923734,-0.01942098326981068,0.1496289223432541,-0.153352826833725,0.06826817989349365,-0.0336955338716507,-0.001047372817993164,2,-0.318646915040683,-0.5530682063883942,0.4535085289160578,-0.6220207381643202,0.9770579934120178,0.1052323207259178,-0.1851594001054764,23.26372528076172,8.400470733642578,-27.08563232421875,2,12548.80613225,1,2,1580908833.047298,1580903939.50652,2992,0.4866275,0,0,3614.279,14,15,1580908820.195806,12545.955541,0,16.76022,97.00858
1580908833.265939,60,0,1580907286.99823,41.20781296037784,29.0754925099451,275.2123,0.1345286,-1,23.46983528137207,200,-9999,12549.06467725,0.98260498046875,0.102569580078125,-0.187896728515625,12549.05463725,-1.172743025786721,1.38377048005273,-0.1070531178851937,-0.01533968932926655,0.02098465710878372,-0.164379358291626,0.111480712890625,-0.003595203161239624,0.06086009740829468,2,-0.3182050429613837,-0.5534519289815061,0.4539193289777208,-0.6216059553967133,0.9769368767738342,0.1068487539887428,-0.184873029589653,23.26063537597656,8.364789962768555,-26.98541259765625,2,12548.80613225,1,2,1580908833.047298,1580903939.50652,2992,0.4866275,0,0,3614.279,14,15,1580908820.195806,12545.955541,0,16.76022,97.00858
1580908833.275897,61,0,1580907286.99823,41.20781296037784,29.0754925099451,275.2123,0.1345286,-1,23.46983528137207,200,-9999,12549.07474825,0.9776458740234375,0.1124725341796875,-0.18212890625,12549.06467725,-1.172900948789407,1.383734170777939,-0.1086188811348508,-0.01536836009472609,-0.009844494983553886,-0.1579452455043793,0.004842102527618408,-0.005585163831710815,-0.00406193733215332,2,-0.3177242055615547,-0.5537262415374404,0.4543716085186496,-0.6212770920928331,0.9767645597457886,0.1084054261445999,-0.1848771572113037,23.26063537597656,8.364789962768555,-26.98541259765625,2,12548.80613225,1,2,1580908833.047298,1580903939.50652,2992,0.4866275,0,0,3614.279,14,15,1580908820.195806,12545.955541,0,16.76022,97.00858
1580908833.308975,62,0,1580907286.99823,41.20781296037784,29.0754925099451,275.2123,0.1345286,-1,23.46983528137207,200,-9999,12549.08478825,0.9469146728515625,0.122711181640625,-0.1808929443359375,12549.07474825,-1.173114147222086,1.383372826478528,-0.1099123557917048,-0.0007127178832888603,-0.03078519739210606,-0.1338108777999878,-0.001772224903106689,0.0005093514919281006,-0.001414716243743896,2,-0.3172744769149568,-0.5538366301760967,0.4548232243244055,-0.621077909706205,0.9765589833259583,0.1096911877393723,-0.1852037906646729,23.35382080078125,8.457870483398438,-26.9910888671875,2,12548.80613225,1,2,1580908833.047298,1580903939.50652,2992,0.4866275,0,0,3614.279,14,15,1580908820.195806,12545.955541,0,16.76022,97.00858
1580908833.310315,63,0,1580907286.99823,41.20781296037784,29.0754925099451,275.2123,0.1345286,-1,23.46983528137207,200,-9999,12549.09482925,0.8972930908203125,0.1167449951171875,-0.218109130859375,12549.08478825,-1.173238670041642,1.382791515234526,-0.1108032530918523,-0.006941043771803379,-0.06400400400161743,-0.0894542783498764,-0.02813279628753662,0.01162910461425781,0.003683805465698242,2,-0.31688272818744,-0.5538129545827792,0.4551798020914348,-0.6210377585610672,0.976354718208313,0.1105766668915749,-0.1857530921697617,23.35382080078125,8.457870483398438,-26.9910888671875,2,12548.80613225,1,2,1580908833.047298,1580903939.50652,2992,0.4866275,0,0,3614.279,14,15,1580908820.195806,12545.955541,0,16.76022,97.00858
1580908833.311382,64,0,1580907286.99823,41.20781296037784,29.0754925099451,275.2123,0.1345286,-1,23.46983528137207,200,-9999,12549.10486925,0.9400634765625,0.1050872802734375,-0.210357666015625,12549.09482925,-1.173359928573584,1.383044870620164,-0.1114183476940969,0.001461495645344257,0.03640914708375931,-0.06149828061461449,-0.08060294389724731,0.005995273590087891,-0.03232860565185547,2,-0.3167709640833479,-0.553994277746199,0.4553331000922127,-0.6208206293373114,0.9763347506523132,0.1111879646778107,-0.185492992401123,23.35355377197266,8.555387496948242,-26.951171875,2,12548.80613225,1,2,1580908833.047298,1580903939.50652,2992,0.4866275,0,0,3614.279,14,15,1580908820.195806,12545.955541,0,16.76022,97.00858
1580908833.316107,65,0,1580907286.99823,41.20781296037784,29.0754925099451,275.2123,0.1345286,-1,23.46983528137207,200,-9999,12549.11490925,0.979156494140625,0.0952911376953125,-0.19195556640625,12549.10486925,-1.173361438106121,1.383606943438649,-0.1119813113733603,-0.0105307949706912,0.06239907070994377,-0.0563318245112896,-0.04797661304473877,-0.006010457873344421,-0.03191465139389038,2,-0.3167134725273972,-0.5542799828228232,0.4553871506543714,-0.6205554508786464,0.9763774275779724,0.1117474213242531,-0.1849325597286224,23.35355377197266,8.555387496948242,-26.951171875,2,12548.80613225,1,2,1580908833.047298,1580903939.50652,2992,0.4866275,0,0,3614.279,14,15,1580908820.195806,12545.955541,0,16.76022,97.00858
1580908833.326076,66,0,1580907286.99823,41.20781296037784,29.0754925099451,275.2123,0.1345286,-1,23.46983528137207,200,-9999,12549.12495025,0.96173095703125,0.0910491943359375,-0.19952392578125,12549.11490925,-1.173216166705086,1.384156166367046,-0.11268436469181,-0.02859741263091564,0.07060879468917847,-0.07117840647697449,4.917383193969727e-05,-0.01702675223350525,-0.01049536466598511,2,-0.3165663140402474,-0.5546124466161536,0.4554331908900984,-0.6202994007172876,0.976401150226593,0.1124460399150848,-0.1843816041946411,23.22882843017578,8.790117263793945,-26.88824462890625,2,12548.80613225,1,2,1580908833.047298,1580903939.50652,2992,0.4866275,0,0,3614.279,14,15,1580908820.195806,12545.955541,0,16.76022,97.00858
1580908833.336643,67,0,1580907286.99823,41.20781296037784,29.0754925099451,275.2123,0.1345286,-1,23.46983528137207,200,-9999,12549.13499025,0.962188720703125,0.1012115478515625,-0.196929931640625,12549.12495025,-1.172901393167417,1.385124566014537,-0.1136443051311303,-0.04931434243917465,0.09375087171792984,-0.0931960716843605,-0.0183788537979126,-0.02295859158039093,-0.01897186040878296,2,-0.316382624885404,-0.5551522645364728,0.4554255709354977,-0.6199158867526342,0.9764729142189026,0.1133998408913612,-0.1834159940481186,23.22882843017578,8.790117263793945,-26.88824462890625,2,12548.80613225,1,2,1580908833.047298,1580903939.50652,2992,0.4866275,0,0,3614.279,14,15,1580908820.195806,12545.955541,0,16.76022,97.00858
1580908833.367035,68,0,1580907286.99823,41.20781296037784,29.0754925099451,275.2123,0.1345286,-1,23.46983528137207,200,-9999,12549.14503025,0.9481964111328125,0.1071929931640625,-0.1948699951171875,12549.13499025,-1.172435765509584,1.386346906301587,-0.1147197854764117,-0.06646297127008438,0.1069590896368027,-0.09738096594810486,-0.0165444016456604,-0.01464706659317017,-0.01782768964767456,2,-0.3161767379181508,-0.5558168571383337,0.4553605686323192,-0.6194728976221638,0.9765757918357849,0.1144683212041855,-0.1821997761726379,23.32868957519531,8.79326057434082,-26.78594970703125,2,12548.80613225,1,2,1580908833.047298,1580903939.50652,2992,0.4866275,0,0,3614.279,14,15,1580908820.195806,12545.955541,0,16.76022,97.00858
1580908833.368683,69,0,1580907286.99823,41.20781296037784,29.0754925099451,275.2123,0.1345286,-1,23.46983528137207,200,-9999,12549.15507025,0.977264404296875,0.11474609375,-0.1738433837890625,12549.14503025,-1.171964397909723,1.38768098594153,-0.115916350351181,-0.06736195832490921,0.1340078711509705,-0.1113639622926712,-0.03337520360946655,-0.009614720940589905,-0.01838260889053345,2,-0.3159545155878388,-0.5565400971749297,0.4553072243952752,-0.6189759866884844,0.9766826629638672,0.1156569346785545,-0.1808717250823975,23.32868957519531,8.79326057434082,-26.78594970703125,2,12548.80613225,1,2,1580908833.047298,1580903939.50652,2992,0.4866275,0,0,3614.279,14,15,1580908820.195806,12545.955541,0,16.76022,97.00858
1580908833.370005,70,0,1580907286.99823,41.20781296037784,29.0754925099451,275.2123,0.1345286,-1,23.46983528137207,200,-9999,12549.16514125,0.968048095703125,0.1180572509765625,-0.17950439453125,12549.15507025,-1.171531775519961,1.388734813990541,-0.1172163606597415,-0.06656407564878464,0.09564850479364395,-0.1195880696177483,-0.0051727294921875,-0.003205224871635437,0.001476407051086426,2,-0.3156450080588606,-0.5571900325827717,0.4553367619855797,-0.6185272610784636,0.9767240285873413,0.116948127746582,-0.1798149943351746,23.55210876464844,8.752292633056641,-26.7540283203125,2,12548.80613225,1,2,1580908833.047298,1580903939.50652,2992,0.4866275,0,0,3614.279,14,15,1580908820.195806,12545.955541,0,16.76022,97.00858
1580908833.37623,71,0,1580907286.99823,41.20781296037784,29.0754925099451,275.2123,0.1345286,-1,23.46983528137207,200,-9999,12549.17518225,0.9635467529296875,0.1199493408203125,-0.1766510009765625,12549.16514125,-1.171250077728387,1.389780281508328,-0.1186893749988327,-0.05149202048778534,0.1049560010433197,-0.1399668455123901,-0.01065230369567871,-0.0009047240018844604,-0.002769052982330322,2,-0.3153184052866062,-0.5578467652938409,0.4554585206643074,-0.618012163890528,0.9767410755157471,0.1184109076857567,-0.1787625849246979,23.55210876464844,8.752292633056641,-26.7540283203125,2,12548.80613225,1,2,1580908833.047298,1580903939.50652,2992,0.4866275,0,0,3614.279,14,15,1580908820.195806,12545.955541,0,16.76022,97.00858
1580908833.38649,72,0,1580907286.99823,41.20781296037784,29.0754925099451,275.2123,0.1345286,-1,23.46983528137207,200,-9999,12549.18522225,0.947723388671875,0.125335693359375,-0.175201416015625,12549.17518225,-1.171046642479816,1.390590959404985,-0.1202257853298943,-0.04996389895677567,0.08077157288789749,-0.1479187607765198,-0.01725423336029053,-0.0006661266088485718,-0.003032684326171875,2,-0.3149393363887052,-0.5584302071582093,0.4556577649857314,-0.6175312344079565,0.9767053127288818,0.1199363693594933,-0.1779378354549408,23.66584014892578,8.878913879394531,-26.7918701171875,2,12548.80613225,1,2,1580908833.047298,1580903939.50652,2992,0.4866275,0,0,3614.279,14,15,1580908820.195806,12545.955541,0,16.76022,97.00858
1580908833.396611,73,0,1580907286.99823,41.20781296037784,29.0754925099451,275.2123,0.1345286,-1,23.46983528137207,200,-9999,12549.19526225,0.9383544921875,0.1265716552734375,-0.1785888671875,12549.18522225,-1.170960930173391,1.391399387173877,-0.1216492713609204,-0.03464281186461449,0.08489705622196198,-0.1390500366687775,-0.03032082319259644,0.002874419093132019,-0.0006060004234313965,2,-0.3146297699911562,-0.5589716711290625,0.455865233049674,-0.6170459452763636,0.9766799807548523,0.1213494539260864,-0.1771175563335419,23.66584014892578,8.878913879394531,-26.7918701171875,2,12548.80613225,1,2,1580908833.047298,1580903939.50652,2992,0.4866275,0,0,3614.279,14,15,1580908820.195806,12545.955541,0,16.76022,97.00858
1580908833.425742,74,0,1580907286.99823,41.20781296037784,29.0754925099451,275.2123,0.1345286,-1,23.46983528137207,200,-9999,12549.20530225,0.9409332275390625,0.12371826171875,-0.1800689697265625,12549.19526225,-1.170914671465221,1.392211133985944,-0.1229133488507109,-0.02642110362648964,0.08135931938886642,-0.1250455379486084,-0.04280936717987061,0.003659576177597046,-0.006083369255065918,2,-0.3143847030319561,-0.5594761989614283,0.4560440063331507,-0.61658127390543,0.9766716361045837,0.1226040944457054,-0.1762972772121429,23.57760620117188,8.955070495605469,-26.526123046875,2,12548.80613225,1,2,1580908833.047298,1580903939.50652,2992,0.4866275,0,0,3614.279,14,15,1580908820.195806,12545.955541,0,16.76022,97.00858
1580908833.427292,75,0,1580907286.99823,41.20781296037784,29.0754925099451,275.2123,0.1345286,-1,23.46983528137207,200,-9999,12549.21534325,0.9475860595703125,0.117828369140625,-0.191436767578125,12549.20530225,-1.170881261656425,1.393156929507698,-0.1241426552361322,-0.02617275714874268,0.09726950526237488,-0.121198907494545,-0.03872203826904297,-0.0005863159894943237,-0.006579875946044922,2,-0.3141853227338459,-0.5600127038661177,0.4561969683165761,-0.6160825080595328,0.9766888618469238,0.1238240301609039,-0.175346702337265,23.57760620117188,8.955070495605469,-26.526123046875,2,12548.80613225,1,2,1580908833.047298,1580903939.50652,2992,0.4866275,0,0,3614.279,14,15,1580908820.195806,12545.955541,0,16.76022,97.00858
1580908833.428298,76,0,1580907286.99823,41.20781296037784,29.0754925099451,275.2123,0.1345286,-1,23.46983528137207,200,-9999,12549.22538325,0.9850311279296875,0.119293212890625,-0.1678466796875,12549.21534325,-1.170868735169168,1.394348049162297,-0.1255008261589528,-0.02638847380876541,0.1268566846847534,-0.1332513093948364,-0.03601741790771484,-0.007005065679550171,-0.0210070013999939,2,-0.314005316767801,-0.5606459487913904,0.4563506714545432,-0.6154842823395572,0.9767305850982666,0.1251716315746307,-0.1741535663604736,23.47418975830078,9.013921737670898,-26.63629150390625,2,12548.80613225,1,2,1580908833.047298,1580903939.50652,2992,0.4866275,0,0,3614.279,14,15,1580908820.195806,12545.955541,0,16.76022,97.00858
1580908833.436645,77,0,1580907286.99823,41.20781296037784,29.0754925099451,275.2123,0.1345286,-1,23.46983528137207,200,-9999,12549.23542325,0.992218017578125,0.13751220703125,-0.1539459228515625,12549.22538325,-1.170837696018272,1.395250373862827,-0.127003001843608,-0.03044304251670837,0.09333693981170654,-0.1487573683261871,0.001945376396179199,-0.008699476718902588,-0.0001356005668640137,2,-0.3137068557117469,-0.5612204976486642,0.4565806948544517,-0.6149419861673849,0.9767010807991028,0.1266618520021439,-0.1732391268014908,23.47418975830078,9.013921737670898,-26.63629150390625,2,12548.80613225,1,2,1580908833.047298,1580903939.50652,2992,0.4866275,0,0,3614.279,14,15,1580908820.195806,12545.955541,0,16.76022,97.00858
1580908833.446784,78,0,1580907286.99823,41.20781296037784,29.0754925099451,275.2123,0.1345286,-1,23.46983528137207,200,-9999,12549.24546425,1.002182006835938,0.128936767578125,-0.1586761474609375,12549.23542325,-1.170923553814546,1.395714967232045,-0.1286884043880247,-0.01727823913097382,0.04953699558973312,-0.1799533665180206,0.01164448261260986,0.006056159734725952,0.01453870534896851,2,-0.3132808002978805,-0.5616771128212086,0.4569618135630973,-0.6144591060115622,0.9765699505805969,0.1283335089683533,-0.1727479249238968,23.70108032226562,8.997114181518555,-26.599365234375,2,12548.80613225,1,2,1580908833.047298,1580903939.50652,2992,0.4866275,0,0,3614.279,14,15,1580908820.195806,12545.955541,0,16.76022,97.00858
1580908833.456677,79,0,1580907286.99823,41.20781296037784,29.0754925099451,275.2123,0.1345286,-1,23.46983528137207,200,-9999,12549.25553425,1.011993408203125,0.13720703125,-0.1497802734375,12549.24546425,-1.171091286290455,1.395712504268545,-0.1303242153895507,-0.01447001192718744,0.005458192899823189,-0.1604368090629578,0.02090203762054443,-0.000348314642906189,0.01160484552383423,2,-0.3127873450524962,-0.561967358662055,0.4574284141117585,-0.6140978303003739,0.9763615131378174,0.1299556195735931,-0.1727135330438614,23.70108032226562,8.997114181518555,-26.599365234375,2,12548.80613225,1,2,1580908833.047298,1580903939.50652,2992,0.4866275,0,0,3614.279,14,15,1580908820.195806,12545.955541,0,16.76022,97.00858
1580908833.487034,80,0,1580907286.99823,41.20781296037784,29.0754925099451,275.2123,0.1345286,-1,23.46983528137207,200,-9999,12549.26557525,1.007247924804688,0.1377410888671875,-0.1476898193359375,12549.25553425,-1.171413693633368,1.395087664328457,-0.1320440928905684,0.0007446268573403358,-0.05667601898312569,-0.1732905507087708,0.03043371438980103,0.004546985030174255,0.01908975839614868,2,-0.3121669218760493,-0.5620584435422542,0.4580605622374346,-0.613858918836805,0.9760318994522095,0.1316607147455215,-0.1732842326164246,23.62105560302734,9.337451934814453,-26.46820068359375,2,12548.80613225,1,2,1580908833.047298,1580903939.50652,2992,0.4866275,0,0,3614.279,14,15,1580908820.195806,12545.955541,0,16.76022,97.00858
1580908833.488319,81,0,1580907286.99823,41.20781296037784,29.0754925099451,275.2123,0.1345286,-1,23.46983528137207,200,-9999,12549.27561525,0.939788818359375,0.1307830810546875,-0.1777191162109375,12549.26557525,-1.17176833491493,1.39400551265143,-0.1337835808556959,0.006803867407143116,-0.11184062063694,-0.1793521344661713,0.03188776969909668,0.004097864031791687,0.02483922243118286,2,-0.311443720731782,-0.5620079299437555,0.4587779705459311,-0.6137366548636181,0.9756167531013489,0.1333848536014557,-0.1742997914552689,23.47642517089844,9.371381759643555,-26.54681396484375,2,12548.80613225,1,2,1580908833.047298,1580903939.50652,2992,0.4866275,0,0,3614.279,14,15,1580908820.195806,12545.955541,0,16.76022,97.00858
1580908833.489413,82,0,1580907286.99823,41.20781296037784,29.0754925099451,275.2123,0.1345286,-1,23.46983528137207,200,-9999,12549.28565525,0.90350341796875,0.126983642578125,-0.2021942138671875,12549.27561525,-1.172152668348861,1.393299858317266,-0.1354275546853546,0.01221141684800386,-0.06503929197788239,-0.1691282540559769,-0.03204053640365601,-0.004403993487358093,-0.002829074859619141,2,-0.3108461011757737,-0.5620498902670872,0.4594207629336159,-0.6135203467957845,0.9752764105796814,0.1350139677524567,-0.1749492436647415,23.47642517089844,9.371381759643555,-26.54681396484375,2,12548.80613225,1,2,1580908833.047298,1580903939.50652,2992,0.4866275,0,0,3614.279,14,15,1580908820.195806,12545.955541,0,16.76022,97.00858
1580908833.497025,83,0,1580907286.99823,41.20781296037784,29.0754925099451,275.2123,0.1345286,-1,23.46983528137207,200,-9999,12549.29569525,0.9229736328125,0.131439208984375,-0.196929931640625,12549.28565525,-1.172514972825069,1.393246331482444,-0.1368638954166127,0.009016405791044235,0.003305824473500252,-0.1472176760435104,-0.07514309883117676,-0.009754151105880737,-0.0288887619972229,2,-0.310460501108115,-0.5622550814868624,0.4599024474873493,-0.6131665094594209,0.9750750660896301,0.1364370137453079,-0.1749670058488846,23.361328125,9.403247833251953,-26.6163330078125,2,12548.80613225,1,2,1580908833.047298,1580903939.50652,2992,0.4866275,0,0,3614.279,14,15,1580908820.195806,12545.955541,0,16.76022,97.00858
1580908833.506864,84,0,1580907286.99823,41.20781296037784,29.0754925099451,275.2123,0.1345286,-1,23.46983528137207,200,-9999,12549.30573625,0.951690673828125,0.140106201171875,-0.17047119140625,12549.29569525,-1.172899479153928,1.393431154683894,-0.1380806211234039,0.01546098850667477,0.03148845955729485,-0.1280908584594727,-0.05888211727142334,-0.00808010995388031,-0.0278935432434082,2,-0.3102085194231095,-0.5624873189804828,0.4602982837966485,-0.612784002144428,0.9749433398246765,0.1376422643661499,-0.1747573763132095,23.361328125,9.403247833251953,-26.6163330078125,2,12548.80613225,1,2,1580908833.047298,1580903939.50652,2992,0.4866275,0,0,3614.279,14,15,1580908820.195806,12545.955541,0,16.76022,97.00858
1580908833.517157,85,0,1580907286.99823,41.20781296037784,29.0754925099451,275.2123,0.1345286,-1,23.46983528137207,200,-9999,12549.31577625,0.9628448486328125,0.144256591796875,-0.168182373046875,12549.30573625,-1.173284364759043,1.39332085257992,-0.1390325765659521,0.01866452023386955,-0.009543015621602535,-0.1010834202170372,-0.02911549806594849,0.0006322264671325684,-0.0001294612884521484,2,-0.3099763960777421,-0.5625778074693158,0.4606730592002111,-0.61253662001483,0.9747945666313171,0.138585090637207,-0.1748416870832443,23.48760986328125,9.611318588256836,-26.68487548828125,2,12548.80613225,1,2,1580908833.047298,1580903939.50652,2992,0.4866275,0,0,3614.279,14,15,1580908820.195806,12546.899877,0,16.72852,97.00893
1580908833.554074,86,0,1580907286.99823,41.20781296037784,29.0754925099451,275.2123,0.1345286,-1,23.46983528137207,200,-9999,12549.32581625,0.9720611572265625,0.1498260498046875,-0.1539764404296875,12549.31577625,-1.173765385652803,1.392870958194079,-0.1397639945396456,0.03491832688450813,-0.03633574768900871,-0.08156058192253113,-0.01643908023834229,0.00352141261100769,0.003573417663574219,2,-0.3097659102739857,-0.562506847733013,0.4610741699554727,-0.6124065445286774,0.9746158719062805,0.1393094211816788,-0.1752622574567795,23.48760986328125,9.611318588256836,-26.68487548828125,2,12548.80613225,1,2,1580908833.047298,1580903939.50652,2992,0.4866275,0,0,3614.279,14,15,1580908820.195806,12546.899877,0,16.72852,97.00893
1580908833.555345,87,0,1580907286.99823,41.20781296037784,29.0754925099451,275.2123,0.1345286,-1,23.46983528137207,200,-9999,12549.33585725,0.9592742919921875,0.1371002197265625,-0.17755126953125,12549.32581625,-1.174307905234223,1.391844569995924,-0.140315587872933,0.04336030036211014,-0.1025784388184547,-0.06366562843322754,-0.006248295307159424,0.009412333369255066,0.01819008588790894,2,-0.3094990939180097,-0.5622151839790925,0.4615378983181988,-0.6124599852349173,0.9743597507476807,0.1398556083440781,-0.1762487888336182,23.22625732421875,9.799013137817383,-26.68902587890625,2,12548.80613225,1,2,1580908833.047298,1580903939.50652,2992,0.4866275,0,0,3614.279,14,15,1580908820.195806,12546.899877,0,16.72852,97.00893
1580908833.556342,88,0,1580907286.99823,41.20781296037784,29.0754925099451,275.2123,0.1345286,-1,23.46983528137207,200,-9999,12549.34592725,0.9556121826171875,0.128173828125,-0.1993408203125,12549.33585725,-1.174818467576497,1.390794998734435,-0.140872332893038,0.04067876189947128,-0.1018553897738457,-0.06471358239650726,-0.01704740524291992,-0.002051040530204773,0.000617682933807373,2,-0.3092158481590462,-0.5619224681459543,0.4619964370577129,-0.6125260060274618,0.9740974903106689,0.1404068619012833,-0.1772574037313461,23.22625732421875,9.799013137817383,-26.68902587890625,2,12548.80613225,1,2,1580908833.047298,1580903939.50652,2992,0.4866275,0,0,3614.279,14,15,1580908820.195806,12546.899877,0,16.72852,97.00893
1580908833.557402,89,0,1580907286.99823,41.20781296037784,29.0754925099451,275.2123,0.1345286,-1,23.46983528137207,200,-9999,12549.35596825,0.9746551513671875,0.1357269287109375,-0.18170166015625,12549.34592725,-1.175266922907989,1.390033289637524,-0.1415088972866468,0.03128902986645699,-0.06933826208114624,-0.06966042518615723,-0.0229262113571167,-0.01385308802127838,-0.02480679750442505,2,-0.3089548507240183,-0.5617430706458414,0.4624112162718007,-0.6125094050456623,0.9738742113113403,0.1410370916128159,-0.1779832392930984,23.24750518798828,9.773653030395508,-26.61407470703125,2,12548.80613225,1,2,1580908833.047298,1580903939.50652,2992,0.4866275,0,0,3614.279,14,15,1580908820.195806,12546.899877,0,16.72852,97.00893
1580908833.567154,90,0,1580907286.99823,41.20781296037784,29.0754925099451,275.2123,0.1345286,-1,23.46983528137207,200,-9999,12549.36600825,1.00457763671875,0.1381072998046875,-0.1656341552734375,12549.35596825,-1.175727734365803,1.389203297260077,-0.1423207647442997,0.02920244261622429,-0.07625023275613785,-0.08673767745494843,-0.005375921726226807,-0.007015258073806763,-0.007964253425598145,2,-0.3086232858118949,-0.5615748506156738,0.4628839439657728,-0.6124735001875828,0.9736129641532898,0.1418408006429672,-0.1787707060575485,23.24750518798828,9.773653030395508,-26.61407470703125,2,12548.80613225,1,2,1580908833.047298,1580903939.50652,2992,0.4866275,0,0,3614.279,14,15,1580908820.195806,12546.899877,0,16.72852,97.00893
1580908833.577246,91,0,1580907286.99823,41.20781296037784,29.0754925099451,275.2123,0.1345286,-1,23.46983528137207,200,-9999,12549.37604825,1.013168334960938,0.1487884521484375,-0.149169921875,12549.36600825,-1.176308672078833,1.388010710889773,-0.1434536674551133,0.034932941198349,-0.1019735634326935,-0.1235749796032906,0.02463066577911377,-0.005897939205169678,0.009300410747528076,2,-0.3081345106994725,-0.561339407245308,0.4635292977341208,-0.6124474165867065,0.9732404947280884,0.1429621577262878,-0.1799023896455765,22.95347595214844,9.723903656005859,-26.5931396484375,2,12548.80613225,1,2,1580908833.047298,1580903939.50652,2992,0.4866275,0,0,3614.279,14,15,1580908820.195806,12546.899877,0,16.72852,97.00893
1580908833.610721,92,0,1580907286.99823,41.20781296037784,29.0754925099451,275.2123,0.1345286,-1,23.46983528137207,200,-9999,12549.38608925,0.964935302734375,0.1443634033203125,-0.182037353515625,12549.37604825,-1.177054622203796,1.38615780016828,-0.144753175139275,0.04986448585987091,-0.1745348572731018,-0.1420565247535706,0.03839570283889771,0.002515614032745361,0.02905076742172241,2,-0.307482838724757,-0.560908851592736,0.4643675739995524,-0.6125343063145667,0.9727219343185425,0.1442481875419617,-0.1816711276769638,22.95347595214844,9.723903656005859,-26.5931396484375,2,12548.80613225,1,2,1580908833.047298,1580903939.50652,2992,0.4866275,0,0,3614.279,14,15,1580908820.195806,12546.899877,0,16.72852,97.00893
1580908833.612038,93,0,1580907286.99823,41.20781296037784,29.0754925099451,275.2123,0.1345286,-1,23.46983528137207,200,-9999,12549.39612925,0.87835693359375,0.1301422119140625,-0.229156494140625,12549.38608925,-1.177747954332718,1.384268819893219,-0.1459551163967657,0.04793119803071022,-0.1855000108480453,-0.1323225945234299,-0.003368616104125977,0.0001620501279830933,0.003518879413604736,2,-0.3068391006574605,-0.5604567519911038,0.4651697174559232,-0.6126624021490626,0.9722060561180115,0.1454374641180038,-0.183475986123085,22.98082733154297,9.799188613891602,-26.72833251953125,2,12548.80613225,1,2,1580908833.047298,1580903939.50652,2992,0.4866275,0,0,3614.279,14,15,1580908820.195806,12546.899877,0,16.72852,97.00893
1580908833.613811,94,0,1580907286.99823,41.20781296037784,29.0754925099451,275.2123,0.1345286,-1,23.46983528137207,200,-9999,12549.40616925,0.857757568359375,0.131256103515625,-0.24139404296875,12549.39612925,-1.178227611176216,1.383245300454268,-0.1468072117243408,0.03341750055551529,-0.09389098733663559,-0.09424977749586105,-0.09058129787445068,-0.01644653081893921,-0.04456263780593872,2,-0.3064522088622829,-0.5602349074853876,0.4656856563420257,-0.6126669524356838,0.9718956351280212,0.146280437707901,-0.184447780251503,22.98082733154297,9.799188613891602,-26.72833251953125,2,12548.80613225,1,2,1580908833.047298,1580903939.50652,2992,0.4866275,0,0,3614.279,14,15,1580908820.195806,12546.899877,0,16.72852,97.00893
1580908833.617358,95,0,1580907286.99823,41.20781296037784,29.0754925099451,275.2123,0.1345286,-1,23.46983528137207,200,-9999,12549.41620925,0.90191650390625,0.1310577392578125,-0.2269744873046875,12549.40616925,-1.178392055034768,1.383159054681891,-0.1472363194995809,0.005959484726190567,-0.007857252843677998,-0.04192797094583511,-0.1192508339881897,-0.01617072522640228,-0.06023722887039185,2,-0.3063355881879798,-0.5602665167133261,0.4658559536109018,-0.612566873397453,0.9718179106712341,0.1467049121856689,-0.1845198720693588,23.02924346923828,9.814109802246094,-26.73822021484375,2,12548.80613225,1,2,1580908833.047298,1580903939.50652,2992,0.4866275,0,0,3614.279,14,15,1580908820.195806,12546.899877,0,16.72852,97.00893
1580908833.627363,96,0,1580907286.99823,41.20781296037784,29.0754925099451,275.2123,0.1345286,-1,23.46983528137207,200,-9999,12549.42625025,0.961822509765625,0.1433868408203125,-0.18621826171875,12549.41620925,-1.178372325254649,1.383562634926703,-0.1475046816536558,-0.008369653485715389,0.04745207726955414,-0.02513433992862701,-0.08026999235153198,-0.01680345833301544,-0.048919677734375,2,-0.3063348836053338,-0.5604451631873522,0.4658548289229419,-0.612404626666024,0.9718536138534546,0.1469703763723373,-0.184120312333107,23.02924346923828,9.814109802246094,-26.73822021484375,2,12548.80613225,1,2,1580908833.047298,1580903939.50652,2992,0.4866275,0,0,3614.279,14,15,1580908820.195806,12546.899877,0,16.72852,97.00893
1580908833.63753,97,0,1580907286.99823,41.20781296037784,29.0754925099451,275.2123,0.1345286,-1,23.46983528137207,200,-9999,12549.43632025,0.96295166015625,0.1493377685546875,-0.178497314453125,12549.42625025,-1.178284064070591,1.383675332238952,-0.1477808776859245,-0.01590677164494991,0.01037370041012764,-0.02613088302314281,-0.01759809255599976,-0.005831971764564514,-0.009364426136016846,2,-0.3062446428597978,-0.5605467075747876,0.4658792253424359,-0.6123381717412401,0.9718343019485474,0.1472435593605042,-0.1840032190084457,23.16075897216797,9.796499252319336,-26.61334228515625,2,12548.80613225,1,2,1580908833.047298,1580903939.50652,2992,0.4866275,0,0,3614.279,14,15,1580908820.195806,12546.899877,0,16.72852,97.00893
1580908833.662864,98,0,1580907286.99823,41.20781296037784,29.0754925099451,275.2123,0.1345286,-1,23.46983528137207,200,-9999,12549.44636125,0.950225830078125,0.139984130859375,-0.2023162841796875,12549.43632025,-1.178227554547356,1.383607768239434,-0.1480588672101538,-0.009611324407160282,-0.007426068186759949,-0.02672396786510944,-0.01064813137054443,0.001521453261375427,0.004289805889129639,2,-0.3061206053491479,-0.5605885582013462,0.465941408770284,-0.612314758252361,0.971781849861145,0.147518515586853,-0.1840612888336182,23.16075897216797,9.796499252319336,-26.61334228515625,2,12548.80613225,1,2,1580908833.047298,1580903939.50652,2992,0.4866275,0,0,3614.279,14,15,1580908820.195806,12546.899877,0,16.72852,97.00893
1580908833.664199,99,0,1580907286.99823,41.20781296037784,29.0754925099451,275.2123,0.1345286,-1,23.46983528137207,200,-9999,12549.45640125,0.95196533203125,0.136932373046875,-0.211395263671875,12549.44636125,-1.178130477701983,1.383714477474239,-0.1483211842355525,-0.01487572863698006,0.006163707002997398,-0.02517483755946159,-0.02506440877914429,-0.007253393530845642,-0.01957952976226807,2,-0.3060311034079599,-0.5606868841433792,0.4659605745190751,-0.6122547724038506,0.9717633128166199,0.1477779597043991,-0.1839503645896912,23.17632293701172,9.820713043212891,-26.57177734375,2,12548.80613225,1,2,1580908833.047298,1580903939.50652,2992,0.4866275,0,0,3614.279,14,15,1580908820.195806,12546.899877,0,16.72852,97.00893
1580908833.667669,100,0,1580907286.99823,41.20781296037784,29.0754925099451,275.2123,0.1345286,-1,23.46983528137207,200,-9999,12549.46644125,1.006515502929688,0.13824462890625,-0.1910247802734375,12549.45640125,-1.177973267489232,1.384151174025659,-0.1486132087384709,-0.02198423817753792,0.04272545129060745,-0.0242491215467453,-0.02534633874893188,-0.01149532198905945,-0.03095394372940063,2,-0.3059916543012937,-0.5609011627194116,0.4659182637125822,-0.6121105205122649,0.971801221370697,0.1480667740106583,-0.1835179924964905,23.17632293701172,9.820713043212891,-26.57177734375,2,12548.80613225,1,2,1580908833.047298,1580903939.50652,2992,0.4866275,0,0,3614.279,14,15,1580908820.195806,12546.899877,0,16.72852,97.00893
1580908833.677619,101,0,1580907286.99823,41.20781296037784,29.0754925099451,275.2123,0.1345286,-1,23.46983528137207,200,-9999,12549.47648225,1.040985107421875,0.1501312255859375,-0.1526641845703125,12549.46644125,-1.177920696969712,1.384185749788418,-0.1491629616729805,-0.01489277184009552,0.008273996412754059,-0.05374336242675781,0.0241968035697937,-0.01181225478649139,-0.01516431570053101,2,-0.3058022487995335,-0.5610261684286505,0.4660335915184325,-0.6120027582464231,0.9717273712158203,0.1486104428768158,-0.1834692507982254,22.99820709228516,9.889442443847656,-26.6715087890625,2,12548.80613225,1,2,1580908833.047298,1580903939.50652,2992,0.4866275,0,0,3614.279,14,15,1580908820.195806,12546.899877,0,16.72852,97.00893
1580908833.687724,102,0,1580907286.99823,41.20781296037784,29.0754925099451,275.2123,0.1345286,-1,23.46983528137207,200,-9999,12549.48652225,0.9905853271484375,0.1500091552734375,-0.1765899658203125,12549.47648225,-1.178016692521826,1.38325536856068,-0.1499627355846909,-0.007635125890374184,-0.08998838812112808,-0.08056885004043579,0.06660020351409912,-0.0006432831287384033,0.02705675363540649,2,-0.3053463979818655,-0.5608815139259931,0.4664038693850974,-0.6120807921758298,0.9714390635490417,0.1494012922048569,-0.1843510121107101,22.99820709228516,9.889442443847656,-26.6715087890625,2,12548.80613225,1,2,1580908833.047298,1580903939.50652,2992,0.4866275,0,0,3614.279,14,15,1580908820.195806,12546.899877,0,16.72852,97.00893
1580908833.697718,103,0,1580907286.99823,41.20781296037784,29.0754925099451,275.2123,0.1345286,-1,23.46983528137207,200,-9999,12549.49656225,0.946990966796875,0.139892578125,-0.2097015380859375,12549.48652225,-1.178228752896592,1.38210007577214,-0.1508693610799352,0.00170693825930357,-0.1025513932108879,-0.09012218564748764,0.02181309461593628,-0.0002614110708236694,0.01030492782592773,2,-0.3048346915617162,-0.5606709923827945,0.4668700577566144,-0.6121733066120584,0.9710919857025146,0.1502976715564728,-0.1854476928710938,23.00511169433594,10.07675552368164,-26.74993896484375,2,12548.80613225,1,2,1580908833.047298,1580903939.50652,2992,0.4866275,0,0,3614.279,14,15,1580908820.195806,12546.899877,0,16.72852,97.00893
1580908833.725802,104,0,1580907286.99823,41.20781296037784,29.0754925099451,275.2123,0.1345286,-1,23.46983528137207,200,-9999,12549.50660225,0.88604736328125,0.1373748779296875,-0.2176513671875,12549.49656225,-1.178363340702566,1.381307088642745,-0.1517813290764538,-0.004922468215227127,-0.07552803307771683,-0.0940500795841217,-0.02319133281707764,-0.01041325926780701,-0.02479082345962524,2,-0.3043836595831404,-0.5605842293037697,0.4672581491809134,-0.6121811503936518,0.9708096981048584,0.1511992216110229,-0.1861918121576309,23.00511169433594,10.07675552368164,-26.74993896484375,2,12548.80613225,1,2,1580908833.047298,1580903939.50652,2992,0.4866275,0,0,3614.279,14,15,1580908820.195806,12546.899877,0,16.72852,97.00893
1580908833.727084,105,0,1580907286.99823,41.20781296037784,29.0754925099451,275.2123,0.1345286,-1,23.46983528137207,200,-9999,12549.51664325,0.8791656494140625,0.15087890625,-0.1974945068359375,12549.50660225,-1.178300313893137,1.381318649215582,-0.1524059639045559,-0.01647244393825531,0.006058733910322189,-0.06427512317895889,-0.08302140235900879,-0.01590064167976379,-0.03432613611221313,2,-0.3041607229800399,-0.5607181737059009,0.4673918737739278,-0.6120671776888669,0.9707188606262207,0.15181665122509,-0.1861627697944641,23.09281158447266,9.811237335205078,-26.75787353515625,2,12548.80613225,1,2,1580908833.047298,1580903939.50652,2992,0.4866275,0,0,3614.279,14,15,1580908820.195806,12546.899877,0,16.72852,97.00893
1580908833.728317,106,0,1580907286.99823,41.20781296037784,29.0754925099451,275.2123,0.1345286,-1,23.46983528137207,200,-9999,12549.52671425,0.8822021484375,0.1625823974609375,-0.1724853515625,12549.51664325,-1.178062823780035,1.381522119922072,-0.1525402388055827,-0.02710244990885258,0.0178365632891655,-0.009940246120095253,-0.09765720367431641,-0.003170698881149292,-0.01847600936889648,2,-0.3040969502022871,-0.5608425204171041,0.4673215282912073,-0.6120387018185962,0.9707367420196533,0.1519493609666824,-0.1859614253044128,23.09281158447266,9.811237335205078,-26.75787353515625,2,12548.80613225,1,2,1580908833.047298,1580903939.50652,2992,0.4866275,0,0,3614.279,14,15,1580908820.195806,12546.899877,0,16.72852,97.00893
1580908833.737969,107,0,1580907286.99823,41.20781296037784,29.0754925099451,275.2123,0.1345286,-1,23.46983528137207,200,-9999,12549.53675425,0.84576416015625,0.1722564697265625,-0.16998291015625,12549.52671425,-1.177834008059081,1.381571725136515,-0.1520550634480906,-0.01542612724006176,0.002501614391803741,0.0492236465215683,-0.08940786123275757,0.009990781545639038,0.00967252254486084,2,-0.3042059126454334,-0.5607987165124803,0.4671237133403829,-0.6121757328193616,0.9708183407783508,0.1514697968959808,-0.1859271228313446,22.93759155273438,9.997114181518555,-26.635009765625,2,12548.80613225,1,2,1580908833.047298,1580903939.50652,2992,0.4866275,0,0,3614.279,14,15,1580908820.195806,12546.899877,0,16.72852,97.00893
1580908833.748048,108,0,1580907286.99823,41.20781296037784,29.0754925099451,275.2123,0.1345286,-1,23.46983528137207,200,-9999,12549.54679425,0.84503173828125,0.16461181640625,-0.1849822998046875,12549.53675425,-1.177672571413943,1.381686644249638,-0.1507138741966567,0.009164170362055302,0.007028454914689064,0.1341553032398224,-0.126844584941864,0.02072122693061829,0.01248276233673096,2,-0.3046340429678496,-0.5605990762106444,0.4667242003033885,-0.6124501958819419,0.9710381627082825,0.150143951177597,-0.1858535557985306,22.93759155273438,9.997114181518555,-26.635009765625,2,12548.80613225,1,2,1580908833.047298,1580903939.50652,2992,0.4866275,0,0,3614.279,14,15,1580908820.195806,12546.899877,0,16.72852,97.00893
1580908833.758042,109,0,1580907286.99823,41.20781296037784,29.0754925099451,275.2123,0.1345286,-1,23.46983528137207,200,-9999,12549.55683425,0.9235382080078125,0.14727783203125,-0.21234130859375,12549.54679425,-1.177542727849955,1.382284116012205,-0.1486354847341722,0.02605463936924934,0.05862683802843094,0.2095711678266525,-0.1317935585975647,0.01799307763576508,0.0001176595687866211,2,-0.3054285722253663,-0.5603995621741651,0.4660773462334968,-0.6127296445573633,0.9714535474777222,0.1480887979269028,-0.1853314340114594,22.94509124755859,9.877679824829102,-26.67315673828125,2,12548.80613225,1,2,1580908833.047298,1580903939.50652,2992,0.4866275,0,0,3614.279,14,15,1580908820.195806,12546.899877,0,16.72852,97.00893
1580908833.788258,110,0,1580907286.99823,41.20781296037784,29.0754925099451,275.2123,0.1345286,-1,23.46983528137207,200,-9999,12549.56687525,0.9428863525390625,0.141632080078125,-0.1962890625,12549.55683425,-1.177498242449054,1.383173108287391,-0.1461842749783754,0.04847685992717743,0.08474338799715042,0.240842267870903,-0.06299287080764771,0.002253890037536621,-0.03037542104721069,2,-0.3064380817181373,-0.5602037448230999,0.4653182540737308,-0.6129817149860571,0.9719717502593994,0.145664170384407,-0.1845349371433258,22.94509124755859,9.877679824829102,-26.67315673828125,2,12548.80613225,1,2,1580908833.047298,1580903939.50652,2992,0.4866275,0,0,3614.279,14,15,1580908820.195806,12546.899877,0,16.72852,97.00893
1580908833.789503,111,0,1580907286.99823,41.20781296037784,29.0754925099451,275.2123,0.1345286,-1,23.46983528137207,200,-9999,12549.57691525,0.938720703125,0.124969482421875,-0.2134552001953125,12549.56687525,-1.177319074102663,1.384324806010143,-0.1435859401655482,0.02861780300736427,0.1102868616580963,0.259232372045517,-0.0298231840133667,-0.001436382532119751,-0.01662850379943848,2,-0.3075187675236113,-0.560080121185655,0.4644392504559022,-0.6132200015566276,0.9725522398948669,0.1430930644273758,-0.1834849268198013,23.10396575927734,9.720285415649414,-26.7193603515625,2,12548.80613225,1,2,1580908833.047298,1580903939.50652,2992,0.4866275,0,0,3614.279,14,15,1580908820.195806,12546.899877,0,16.72852,97.00893
1580908833.790554,112,0,1580907286.99823,41.20781296037784,29.0754925099451,275.2123,0.1345286,-1,23.46983528137207,200,-9999,12549.58695525,0.997528076171875,0.0975189208984375,-0.2471923828125,12549.57691525,-1.176830855874355,1.386127649948392,-0.1412521343925963,0.001187244430184364,0.1650736778974533,0.2429008185863495,-0.04102432727813721,-0.01332318782806396,-0.03267109394073486,2,-0.3085747106365708,-0.5602549429718702,0.4634291461006503,-0.613294022742325,0.9732070565223694,0.14078289270401,-0.1817920953035355,23.10396575927734,9.720285415649414,-26.7193603515625,2,12548.80613225,1,2,1580908833.047298,1580903939.50652,2992,0.4866275,0,0,3614.279,14,15,1580908820.195806,12546.899877,0,16.72852,97.00893
1580908833.798182,113,0,1580907286.99823,41.20781296037784,29.0754925099451,275.2123,0.1345286,-1,23.46983528137207,200,-9999,12549.59699625,1.048492431640625,0.11248779296875,-0.195220947265625,12549.58695525,-1.176089318891383,1.389055898445033,-0.139799587703227,-0.04042582958936691,0.3020957708358765,0.1517871618270874,0.01143652200698853,-0.04204604029655457,-0.06879079341888428,2,-0.3095260979657854,-0.5609852502352445,0.4623856705995092,-0.6129344574908427,0.9739352464675903,0.1393446624279022,-0.17897829413414,23.21360015869141,9.475690841674805,-26.58868408203125,2,12548.80613225,1,2,1580908833.047298,1580903939.50652,2992,0.4866275,0,0,3614.279,14,15,1580908820.195806,12546.899877,0,16.72852,97.00893
1580908833.808217,114,0,1580907286.99823,41.20781296037784,29.0754925099451,275.2123,0.1345286,-1,23.46983528137207,200,-9999,12549.60703625,1.02899169921875,0.1264495849609375,-0.1532135009765625,12549.59699625,-1.17511140980018,1.391736716752317,-0.1390761538875435,-0.09171298891305923,0.2546800673007965,0.08937811106443405,0.06888830661773682,-0.02829580008983612,-0.03158414363861084,2,-0.3101103022470927,-0.5618178432655213,0.4614891806072922,-0.6125521491854083,0.9745105504989624,0.1386282444000244,-0.1763846278190613,23.21360015869141,9.475690841674805,-26.58868408203125,2,12548.80613225,1,2,1580908833.047298,1580903939.50652,2992,0.4866275,0,0,3614.279,14,15,1580908820.195806,12546.899877,0,16.72852,97.00893
1580908833.818269,115,0,1580907286.99823,41.20781296037784,29.0754925099451,275.2123,0.1345286,-1,23.46983528137207,200,-9999,12549.61710725,0.9609375,0.1387939453125,-0.1732940673828125,12549.60703625,-1.174073153441404,1.393753797475318,-0.1386739045679393,-0.0916370153427124,0.1839139312505722,0.05840135365724564,0.0554470419883728,-0.01385784149169922,0.01891160011291504,2,-0.3104166535620746,-0.5625187167910658,0.4607571291066512,-0.6123046915302347,0.9749190807342529,0.1382298767566681,-0.1744283884763718,23.34122467041016,9.721250534057617,-26.392822265625,2,12548.80613225,1,2,1580908833.047298,1580903939.50652,2992,0.4866275,0,0,3614.279,14,15,1580908820.195806,12546.899877,0,16.72852,97.00893
1580908833.845783,116,0,1580907286.99823,41.20781296037784,29.0754925099451,275.2123,0.1345286,-1,23.46983528137207,200,-9999,12549.62714725,0.9325714111328125,0.1402740478515625,-0.1868743896484375,12549.61710725,-1.173100155997411,1.395705795992749,-0.1382611709640311,-0.08626221865415573,0.1780038326978683,0.06069672852754593,-0.01228654384613037,-0.000126570463180542,-0.002184927463531494,2,-0.3107286359662907,-0.5631875676559567,0.4600521552086387,-0.6120617418492854,0.9753139019012451,0.1378210932016373,-0.1725349575281143,23.34122467041016,9.721250534057617,-26.392822265625,2,12548.80613225,1,2,1580908833.047298,1580903939.50652,2992,0.4866275,0,0,3614.279,14,15,1580908820.195806,12546.899877,0,16.72852,97.00893
1580908833.847203,117,0,1580907286.99823,41.20781296037784,29.0754925099451,275.2123,0.1345286,-1,23.46983528137207,200,-9999,12549.63718725,0.968902587890625,0.1327972412109375,-0.1756744384765625,12549.62714725,-1.172289234856988,1.397956898840417,-0.1377536277288307,-0.0698077380657196,0.221716046333313,0.06804449856281281,-0.04727381467819214,0.002529561519622803,-0.01948374509811401,2,-0.3111853165227352,-0.5639044336710313,0.4593258686411539,-0.6117149440547062,0.9757684469223022,0.1373183727264404,-0.1703509837388992,23.43453216552734,9.658174514770508,-26.2039794921875,2,12548.80613225,1,2,1580908833.047298,1580903939.50652,2992,0.4866275,0,0,3614.279,14,15,1580908820.195806,12546.899877,0,16.72852,97.00893
1580908833.848557,118,0,1580907286.99823,41.20781296037784,29.0754925099451,275.2123,0.1345286,-1,23.46983528137207,200,-9999,12549.64722725,0.9920501708984375,0.1309814453125,-0.160888671875,12549.63718725,-1.171571876056382,1.400020179534349,-0.1372455053548816,-0.0615207813680172,0.1965848505496979,0.06265931576490402,-0.01577210426330566,-0.003190696239471436,-0.01212424039840698,2,-0.3116241833336758,-0.564549171351217,0.4586566958967753,-0.6113990690148503,0.9761866927146912,0.1368150413036346,-0.1683492064476013,23.43453216552734,9.658174514770508,-26.2039794921875,2,12548.80613225,1,2,1580908833.047298,1580903939.50652,2992,0.4866275,0,0,3614.279,14,15,1580908820.195806,12546.899877,0,16.72852,97.00893
1580908833.858613,119,0,1580907286.99823,41.20781296037784,29.0754925099451,275.2123,0.1345286,-1,23.46983528137207,200,-9999,12549.65729166667,0.995269775390625,0.1343841552734375,-0.154693603515625,12549.64722725,-1.170899432229535,1.401692230162539,-0.1368580919057922,-0.05930756777524948,0.1602238714694977,0.04774665832519531,0.01076501607894897,-0.006696462631225586,0.00126039981842041,2,-0.3119453899400939,-0.5650904900700798,0.4580923022832638,-0.6111581644280233,0.9765188694000244,0.1364312618970871,-0.1667256206274033,23.41110229492188,9.595430374145508,-26.20880126953125,2,12548.80613225,1,2,1580908833.047298,1580903939.50652,2992,0.4866275,0,0,3614.279,14,15,1580908820.195806,12546.899877,0,16.72852,97.00893
1580908833.868534,120,0,1580907286.99823,41.20781296037784,29.0754925099451,275.2123,0.1345286,-1,23.46983528137207,200,-9999,12549.66733166667,0.9826507568359375,0.133026123046875,-0.1640167236328125,12549.65729166667,-1.170288741930666,1.402857625041148,-0.1366034558449507,-0.05555197596549988,0.1094919890165329,0.03525270521640778,0.01538878679275513,-0.002475917339324951,0.007707476615905762,2,-0.3121236040110177,-0.5654928994808669,0.4576592544286938,-0.6110193346216386,0.976746678352356,0.1361790001392365,-0.1655932664871216,23.41110229492188,9.595430374145508,-26.20880126953125,2,12548.80613225,1,2,1580908833.047298,1580903939.50652,2992,0.4866275,0,0,3614.279,14,15,1580908820.195806,12546.899877,0,16.72852,97.00893
1580908833.878996,121,0,1580907286.99823,41.20781296037784,29.0754925099451,275.2123,0.1345286,-1,23.46983528137207,200,-9999,12549.67737166667,0.9701080322265625,0.1311492919921875,-0.165618896484375,12549.66733166667,-1.16974812476133,1.403786147105142,-0.1364236646786042,-0.04867759346961975,0.09342611581087112,0.02559949457645416,0.002805233001708984,-0.003151580691337585,-0.001240432262420654,2,-0.3122423771999112,-0.5658264102903569,0.4573034937246778,-0.6109162801593148,0.9769241809844971,0.1360008865594864,-0.1646903455257416,23.84957122802734,9.598188400268555,-26.09429931640625,2,12548.80613225,1,2,1580908833.047298,1580903939.50652,2992,0.4866275,0,0,3614.279,14,15,1580908820.195806,12546.899877,0,16.72852,97.00893
1580908833.907854,122,0,1580907286.99823,41.20781296037784,29.0754925099451,275.2123,0.1345286,-1,23.46983528137207,200,-9999,12549.68741266667,0.9501800537109375,0.138763427734375,-0.1645355224609375,12549.67737166667,-1.169254055788425,1.404618017001739,-0.1363024697368262,-0.04747837036848068,0.07506148517131805,0.01743264682590961,-0.008868694305419922,-0.005731865763664246,-0.005379915237426758,2,-0.3123326479072154,-0.566134387246474,0.4569918837431985,-0.6108180288525241,0.9770771265029907,0.1358808130025864,-0.1638803482055664,23.84957122802734,9.598188400268555,-26.09429931640625,2,12548.80613225,1,2,1580908833.047298,1580903939.50652,2992,0.4866275,0,0,3614.279,14,15,1580908820.195806,12546.899877,0,16.72852,97.00893
1580908833.909397,123,0,1580907286.99823,41.20781296037784,29.0754925099451,275.2123,0.1345286,-1,23.46983528137207,200,-9999,12549.69745266667,0.9492950439453125,0.1417999267578125,-0.160552978515625,12549.68741266667,-1.168902335880662,1.405521822491866,-0.1361903664683107,-0.03136808052659035,0.08463858813047409,0.01590416207909584,-0.02940261363983154,0.001780152320861816,-0.004692316055297852,2,-0.3124764441023901,-0.5664438350947194,0.4567147799305107,-0.610664898247516,0.9772399663925171,0.1357697546482086,-0.1629997044801712,23.65077972412109,9.394062042236328,-25.8685302734375,2,12548.80613225,1,2,1580908833.047298,1580903939.50652,2992,0.4866275,0,0,3614.279,14,15,1580908820.195806,12546.899877,0,16.72852,97.00893
1580908833.9104,124,0,1580907286.99823,41.20781296037784,29.0754925099451,275.2123,0.1345286,-1,23.46983528137207,200,-9999,12549.70752366667,0.9571685791015625,0.14239501953125,-0.152587890625,12549.69745266667,-1.168687213432698,1.406296879384447,-0.1360519783193418,-0.01920196227729321,0.07734685391187668,0.01796731352806091,-0.03250801563262939,0.005656152963638306,-0.002230346202850342,2,-0.3126381116198369,-0.5666875380883869,0.4564927248826715,-0.6105219095022876,0.9773843884468079,0.135632649064064,-0.1622452884912491,23.68641662597656,9.471927642822266,-25.98272705078125,2,12548.80613225,1,2,1580908833.047298,1580903939.50652,2992,0.4866275,0,0,3614.279,14,15,1580908820.195806,12546.899877,0,16.72852,97.00893
1580908833.918674,125,0,1580907286.99823,41.20781296037784,29.0754925099451,275.2123,0.1345286,-1,23.46983528137207,200,-9999,12549.71756366667,0.9694366455078125,0.1455230712890625,-0.1441802978515625,12549.70752366667,-1.168593701288182,1.406732603423047,-0.1358234717673967,-0.005778803955763578,0.04821620509028435,0.02495377324521542,-0.02510237693786621,0.00608178973197937,0.005205452442169189,2,-0.3127863241914801,-0.5667913910387188,0.4563378331266811,-0.6104654141731705,0.9774855375289917,0.1354062408208847,-0.1618244647979736,23.68641662597656,9.471927642822266,-25.98272705078125,2,12548.80613225,1,2,1580908833.047298,1580903939.50652,2992,0.4866275,0,0,3614.279,14,15,1580908820.195806,12546.899877,0,16.72852,97.00893
1580908833.928955,126,0,1580907286.99823,41.20781296037784,29.0754925099451,275.2123,0.1345286,-1,23.46983528137207,200,-9999,12549.72760366667,0.970245361328125,0.1398773193359375,-0.15081787109375,12549.71756366667,-1.168612256645083,1.40668274745476,-0.1354899868292173,0.008904534392058849,-0.003893868997693062,0.03198185563087463,-0.01314544677734375,0.009846746921539307,0.01386785507202148,2,-0.3128900419570037,-0.5667093875853046,0.4562663092298874,-0.6105419263852592,0.977522075176239,0.1350758224725723,-0.1618805825710297,23.74207305908203,9.455045700073242,-25.85882568359375,2,12548.80613225,1,2,1580908833.047298,1580903939.50652,2992,0.4866275,0,0,3614.279,14,15,1580908820.195806,12546.899877,0,16.72852,97.00893
1580908833.938803,127,0,1580907286.99823,41.20781296037784,29.0754925099451,275.2123,0.1345286,-1,23.46983528137207,200,-9999,12549.73764466667,0.9802093505859375,0.130401611328125,-0.162841796875,12549.72760366667,-1.168643876004849,1.406326061881165,-0.1350902240504538,0.009551607072353363,-0.03544915467500687,0.03972458466887474,-0.01105040311813354,0.005544677376747131,0.009496510028839111,2,-0.312949310391992,-0.5665189239608416,0.4562298868084192,-0.6107155421385223,0.9775174856185913,0.1346797198057175,-0.1622380763292313,23.74207305908203,9.455045700073242,-25.85882568359375,2,12548.80613225,1,2,1580908833.047298,1580903939.50652,2992,0.4866275,0,0,3614.279,14,15,1580908820.195806,12546.899877,0,16.72852,97.00893
1580908833.969303,128,0,1580907286.99823,41.20781296037784,29.0754925099451,275.2123,0.1345286,-1,23.46983528137207,200,-9999,12549.74768466667,0.9865264892578125,0.1194000244140625,-0.1710968017578125,12549.73764466667,-1.16865833998551,1.405834584682871,-0.1347881194406497,0.008251985535025597,-0.05314692854881287,0.03131139278411865,-0.002709865570068359,-0.003615275025367737,-0.002862691879272461,2,-0.3129408655831237,-0.5663086139751721,0.4562342101159739,-0.61091153816824,0.9774776101112366,0.1343803554773331,-0.1627251356840134,23.72538757324219,9.370754241943359,-25.97137451171875,2,12548.80613225,1,2,1580908833.047298,1580903939.50652,2992,0.4866275,0,0,3614.279,14,15,1580908820.195806,12546.899877,0,16.72852,97.00893
1580908833.970686,129,0,1580907286.99823,41.20781296037784,29.0754925099451,275.2123,0.1345286,-1,23.46983528137207,200,-9999,12549.75772466667,0.984100341796875,0.1029815673828125,-0.1967926025390625,12549.74768466667,-1.168562406942151,1.405496369384648,-0.1347757619167804,-0.00753740593791008,-0.03919568285346031,0.005220348946750164,0.005552947521209717,-0.01426887512207031,-0.01009881496429443,2,-0.3128406132358817,-0.5662179346330503,0.456254669411347,-0.6110316678465202,0.977424144744873,0.1343681067228317,-0.1630560010671616,23.72538757324219,9.370754241943359,-25.97137451171875,2,12548.80613225,1,2,1580908833.047298,1580903939.50652,2992,0.4866275,0,0,3614.279,14,15,1580908820.195806,12546.899877,0,16.72852,97.00893
1580908833.97165,130,0,1580907286.99823,41.20781296037784,29.0754925099451,275.2123,0.1345286,-1,23.46983528137207,200,-9999,12549.76776466667,0.99444580078125,0.10894775390625,-0.198089599609375,12549.75772466667,-1.168287143322905,1.405663109164229,-0.1351816934606311,-0.0364002138376236,0.00124654732644558,-0.0377444289624691,0.001963496208190918,-0.0298246294260025,-0.03320538997650146,2,-0.3126669608558041,-0.5663897548664344,0.4562479166286045,-0.6109662837299351,0.9773973822593689,0.1347703486680984,-0.1628840416669846,23.80600738525391,9.470556259155273,-25.99798583984375,2,12548.80613225,1,2,1580908833.047298,1580903939.50652,2992,0.4866275,0,0,3614.279,14,15,1580908820.195806,12546.899877,0,16.72852,97.00893
1580908833.979045,131,0,1580907286.99823,41.20781296037784,29.0754925099451,275.2123,0.1345286,-1,23.46983528137207,200,-9999,12549.77780566667,1.022689819335938,0.122589111328125,-0.17083740234375,12549.76776466667,-1.167942726134681,1.406169310818247,-0.1359953545708413,-0.04581355303525925,0.04068648815155029,-0.08353883028030396,0.01241165399551392,-0.03006936609745026,-0.04209709167480469,2,-0.3124166478797173,-0.5667540993332859,0.4562709424417132,-0.6107393993221905,0.9773713946342468,0.1355765461921692,-0.1623712629079819,23.80600738525391,9.470556259155273,-25.99798583984375,2,12548.80613225,1,2,1580908833.047298,1580903939.50652,2992,0.4866275,0,0,3614.279,14,15,1580908820.195806,12546.899877,0,16.72852,97.00893
1580908833.989103,132,0,1580907286.99823,41.20781296037784,29.0754925099451,275.2123,0.1345286,-1,23.46983528137207,200,-9999,12549.78787566667,1.040481567382812,0.141357421875,-0.1478118896484375,12549.77780566667,-1.167600643894836,1.406244181545442,-0.1370500701247853,-0.05260967463254929,0.001447470858693123,-0.0979585200548172,0.03735244274139404,-0.01537129282951355,-0.01349246501922607,2,-0.3119891560954706,-0.5670321853126792,0.4564234938673347,-0.6105856099397815,0.9772417545318604,0.1366214454174042,-0.1622745394706726,23.71452331542969,9.299955368041992,-25.9715576171875,2,12548.80613225,1,2,1580908833.047298,1580903939.50652,2992,0.4866275,0,0,3614.279,14,15,1580908820.195806,12546.899877,0,16.72852,97.00893
1580908833.999208,133,0,1580907286.99823,41.20781296037784,29.0754925099451,275.2123,0.1345286,-1,23.46983528137207,200,-9999,12549.79791666667,0.9946441650390625,0.1467437744140625,-0.1395263671875,12549.78787566667,-1.167463575152422,1.405498135058353,-0.1383348809509855,-0.03311906382441521,-0.08199869096279144,-0.1259030699729919,0.06162059307098389,0.001341313123703003,0.009549379348754883,2,-0.3113561763401527,-0.5670714670323035,0.4568250317810983,-0.6105720977329119,0.9769465923309326,0.1378940939903259,-0.1629745662212372,23.71452331542969,9.299955368041992,-25.9715576171875,2,12548.80613225,1,2,1580908833.047298,1580903939.50652,2992,0.4866275,0,0,3614.279,14,15,1580908820.195806,12546.899877,0,16.72852,97.00893
1580908834.033262,134,0,1580907286.99823,41.20781296037784,29.0754925099451,275.2123,0.1345286,-1,23.46983528137207,200,-9999,12549.80795666667,0.9910430908203125,0.1622467041015625,-0.1288909912109375,12549.79791666667,-1.167547432908342,1.404096447030635,-0.1396890956923827,-0.01640027016401291,-0.1367980241775513,-0.1309742629528046,0.01882368326187134,0.006266295909881592,0.02165013551712036,2,-0.3106125920235202,-0.5668893070276022,0.4574129349021685,-0.6106799396421407,0.9765322804450989,0.1392352432012558,-0.1643126606941223,23.86012268066406,9.28248405456543,-25.9173583984375,2,12548.80613225,1,2,1580908833.047298,1580903939.50652,2992,0.4866275,0,0,3614.279,14,15,1580908820.195806,12546.899877,0,16.72852,97.00893
1580908834.034759,135,0,1580907286.99823,41.20781296037784,29.0754925099451,275.2123,0.1345286,-1,23.46983528137207,200,-9999,12549.81799666667,0.964447021484375,0.163818359375,-0.1212158203125,12549.80795666667,-1.167971875705558,1.401734442875085,-0.1410437459224663,0.02226379886269569,-0.2328211218118668,-0.1433371305465698,0.01009577512741089,0.02020905911922455,0.03220343589782715,2,-0.3097446524754078,-0.5663610299385439,0.4582526651666184,-0.610981218644727,0.975954532623291,0.14057657122612,-0.1665868610143661,23.86012268066406,9.28248405456543,-25.9173583984375,2,12548.80613225,1,2,1580908833.047298,1580903939.50652,2992,0.4866275,0,0,3614.279,14,15,1580908820.195806,12546.899877,0,16.72852,97.00893
1580908834.036158,136,0,1580907286.99823,41.20781296037784,29.0754925099451,275.2123,0.1345286,-1,23.46983528137207,200,-9999,12549.82803766667,0.91448974609375,0.1490325927734375,-0.159423828125,12549.81799666667,-1.16856381781669,1.398583303984077,-0.1421661418695957,0.03978047519922256,-0.3115425407886505,-0.1214632540941238,-0.0090065598487854,0.02190119028091431,0.04690486192703247,2,-0.3088181605404833,-0.5655211897746857,0.4592049855228628,-0.6115128801839964,0.9752686619758606,0.141687735915184,-0.1696342527866364,23.51497650146484,9.522279739379883,-26.0692138671875,2,12548.80613225,1,2,1580908833.047298,1580903939.50652,2992,0.4866275,0,0,3614.279,14,15,1580908820.195806,12546.899877,0,16.72852,97.00893
1580908834.03924,137,0,1580907286.99823,41.20781296037784,29.0754925099451,275.2123,0.1345286,-1,23.46983528137207,200,-9999,12549.83807766667,0.874298095703125,0.127197265625,-0.1946258544921875,12549.82803766667,-1.169194199206183,1.395435198958233,-0.1430404915801237,0.04726266860961914,-0.3088491261005402,-0.0983959287405014,-0.06013113260269165,0.008459120988845825,0.01467084884643555,2,-0.3079831714478315,-0.5646285274474329,0.4601039780423666,-0.612082882680972,0.9746074676513672,0.1425532102584839,-0.172681987285614,23.51497650146484,9.522279739379883,-26.0692138671875,2,12548.80613225,1,2,1580908833.047298,1580903939.50652,2992,0.4866275,0,0,3614.279,14,15,1580908820.195806,12546.899877,0,16.72852,97.00893
1580908834.049185,138,0,1580907286.99823,41.20781296037784,29.0754925099451,275.2123,0.1345286,-1,23.46983528137207,200,-9999,12549.84811766667,0.842010498046875,0.1277618408203125,-0.2181396484375,12549.83807766667,-1.169608229906876,1.393072059486061,-0.1436070012964376,0.02934012934565544,-0.2325567454099655,-0.06629285216331482,-0.09886914491653442,-0.01549550890922546,-0.01998865604400635,2,-0.3073681413445835,-0.5639500494237657,0.4607369519878562,-0.6125412713889963,0.9741171002388,0.143113911151886,-0.1749703288078308,23.36978912353516,9.646722793579102,-26.32037353515625,2,12548.80613225,1,2,1580908833.047298,1580903939.50652,2992,0.4866275,0,0,3614.279,14,15,1580908820.195806,12546.899877,0,16.72852,97.00893
1580908834.059273,139,0,1580907286.99823,41.20781296037784,29.0754925099451,275.2123,0.1345286,-1,23.46983528137207,200,-9999,12549.85815766667,0.8744354248046875,0.131683349609375,-0.2053985595703125,12549.84811766667,-1.169813709580886,1.392070222726057,-0.1438678817587384,0.01519587263464928,-0.09025412797927856,-0.0316147580742836,-0.1347580552101135,-0.01648713648319244,-0.0440250039100647,2,-0.3071086863432375,-0.5636616953372841,0.4610193975522956,-0.6127242039780562,0.9739044308662415,0.1433721035718918,-0.1759395003318787,23.36978912353516,9.646722793579102,-26.32037353515625,2,12548.80613225,1,2,1580908833.047298,1580903939.50652,2992,0.4866275,0,0,3614.279,14,15,1580908820.195806,12546.899877,0,16.72852,97.00893
1580908834.086718,140,0,1580907286.99823,41.20781296037784,29.0754925099451,275.2123,0.1345286,-1,23.46983528137207,200,-9999,12549.86819866667,0.92059326171875,0.1543121337890625,-0.152374267578125,12549.85815766667,-1.169939567857591,1.391829196631623,-0.143869188794583,0.01184588298201561,-0.01395775377750397,-0.004931215196847916,-0.1091111302375793,-0.0133756697177887,-0.03616023063659668,2,-0.3070881934842535,-0.5635687658148939,0.4610952870991842,-0.612762747857431,0.9738617539405823,0.1433733999729156,-0.1761741787195206,23.28125,9.468011856079102,-26.03753662109375,2,12548.80613225,1,2,1580908833.047298,1580903939.50652,2992,0.4866275,0,0,3614.279,14,15,1580908820.195806,12546.899877,0,16.72852,97.00893
1580908834.088117,141,0,1580907286.99823,41.20781296037784,29.0754925099451,275.2123,0.1345286,-1,23.46983528137207,200,-9999,12549.87826966667,0.9293060302734375,0.156951904296875,-0.1577911376953125,12549.86819866667,-1.170070450656535,1.391282948720392,-0.1436124589430494,0.01617716811597347,-0.05801087617874146,0.02279596030712128,-0.0594138503074646,0.008623182773590088,0.01670277118682861,2,-0.3070843284499747,-0.5633319410851216,0.4611547493001918,-0.6129376432864636,0.9738014936447144,0.1431193053722382,-0.1767126768827438,23.28125,9.468011856079102,-26.03753662109375,2,12548.80613225,1,2,1580908833.047298,1580903939.50652,2992,0.4866275,0,0,3614.279,14,15,1580908820.195806,12546.899877,0,16.72852,97.00893
1580908834.089433,142,0,1580907286.99823,41.20781296037784,29.0754925099451,275.2123,0.1345286,-1,23.46983528137207,200,-9999,12549.88830966667,0.919647216796875,0.1442413330078125,-0.1877899169921875,12549.87826966667,-1.170308051057592,1.390526357123296,-0.1431939700451403,0.03286053985357285,-0.07820668816566467,0.03725505992770195,-0.04848945140838623,0.01485258340835571,0.02039819955825806,2,-0.3071156110803665,-0.5629830641471252,0.4612386387080155,-0.6131794557657905,0.9737264513969421,0.142705112695694,-0.1774601489305496,23.20066833496094,9.616159439086914,-26.06658935546875,2,12548.80613225,1,2,1580908833.047298,1580903939.50652,2992,0.4866275,0,0,3614.279,14,15,1580908820.195806,12546.899877,0,16.72852,97.00893
1580908834.099525,143,0,1580907286.99823,41.20781296037784,29.0754925099451,275.2123,0.1345286,-1,23.46983528137207,200,-9999,12549.89834966667,0.9427032470703125,0.1353759765625,-0.1934814453125,12549.88830966667,-1.170618407209425,1.390072607445444,-0.1427405789535658,0.03818001225590706,-0.04306864738464355,0.0418052151799202,-0.05694103240966797,0.002577260136604309,-0.01155644655227661,2,-0.3072487834837659,-0.5627089869644541,0.4612896360882471,-0.6133259358094247,0.9737094044685364,0.1422563493251801,-0.177913561463356,23.20066833496094,9.616159439086914,-26.06658935546875,2,12548.80613225,1,2,1580908833.047298,1580903939.50652,2992,0.4866275,0,0,3614.279,14,15,1580908820.195806,12546.899877,0,16.72852,97.00893
1580908834.109556,144,0,1580907286.99823,41.20781296037784,29.0754925099451,275.2123,0.1345286,-1,23.46983528137207,200,-9999,12549.90838966667,1.008773803710938,0.1318359375,-0.198028564453125,12549.89834966667,-1.170963965461993,1.389916051781368,-0.1424468735346658,0.0392703078687191,-0.01281167380511761,0.02409040182828903,-0.04004752635955811,-0.006515070796012878,-0.01818603277206421,2,-0.3074073502521084,-0.5625513001239468,0.4613459215085337,-0.6133488151599293,0.9737225770950317,0.1419656276702881,-0.1780735105276108,23.1876220703125,9.355808258056641,-26.11810302734375,2,12548.80613225,1,2,1580908833.047298,1580903939.50652,2992,0.4866275,0,0,3614.279,14,15,1580908820.195806,12546.899877,0,16.72852,97.00893
1580908834.11957,145,0,1580907286.99823,41.20781296037784,29.0754925099451,275.2123,0.1345286,-1,23.46983528137207,200,-9999,12549.91843066667,1.033035278320312,0.13427734375,-0.1834869384765625,12549.90838966667,-1.171368498873287,1.389675488577487,-0.1424671990548474,0.03870085254311562,-0.01613053493201733,-0.006752079352736473,0.02533644437789917,-0.01067036390304565,-0.02295613288879395,2,-0.3074588418871066,-0.5624192720957231,0.4615120666698013,-0.6133191868111405,0.9736769795417786,0.1419857442378998,-0.1783072501420975,23.1876220703125,9.355808258056641,-26.11810302734375,2,12548.80613225,1,2,1580908833.047298,1580903939.50652,2992,0.4866275,0,0,3614.279,14,15,1580908820.195806,12546.899877,0,16.72852,97.00893
1580908834.149966,146,0,1580907286.99823,41.20781296037784,29.0754925099451,275.2123,0.1345286,-1,23.46983528137207,200,-9999,12549.92847066667,1.048141479492188,0.135955810546875,-0.172821044921875,12549.91843066667,-1.171885773098742,1.388950821533677,-0.1429497534310796,0.0414484366774559,-0.06112304329872131,-0.0565505288541317,0.05545687675476074,-0.008784756064414978,-0.009717702865600586,2,-0.3072768990520852,-0.5622105792108174,0.4619031080282682,-0.6133071386340674,0.9734798073768616,0.1424634009599686,-0.1790003478527069,23.15150451660156,9.297519683837891,-26.2486572265625,2,12548.80613225,1,2,1580908833.047298,1580903939.50652,2992,0.4866275,0,0,3614.279,14,15,1580908820.195806,12546.899877,0,16.72852,97.00893
1580908834.151277,147,0,1580907286.99823,41.20781296037784,29.0754925099451,275.2123,0.1345286,-1,23.46983528137207,200,-9999,12549.93851066667,1.040451049804688,0.1428070068359375,-0.1743621826171875,12549.92847066667,-1.172537343303116,1.387513831401163,-0.1439370133913707,0.04486513882875443,-0.1279363632202148,-0.1085662990808487,0.06931376457214355,-0.008621230721473694,0.004310429096221924,2,-0.3068000360066988,-0.5618603602149712,0.4625709015165214,-0.6133636665320754,0.9730830192565918,0.1434405148029327,-0.180373340845108,23.15150451660156,9.297519683837891,-26.2486572265625,2,12548.80613225,1,2,1580908833.047298,1580903939.50652,2992,0.4866275,0,0,3614.279,14,15,1580908820.195806,12546.899877,0,16.72852,97.00893
1580908834.152146,148,0,1580907286.99823,41.20781296037784,29.0754925099451,275.2123,0.1345286,-1,23.46983528137207,200,-9999,12549.94855166667,1.018524169921875,0.1379547119140625,-0.1900482177734375,12549.93851066667,-1.173294973650809,1.385539845138754,-0.1453781591405032,0.04750166833400726,-0.182557538151741,-0.155376672744751,0.06713145971298218,-0.00274387001991272,0.005131840705871582,2,-0.3060769591041609,-0.5614170509163754,0.4634660932849851,-0.6134550696166752,0.9725208282470703,0.1448666155338287,-0.1822555810213089,23.00888824462891,9.38221549987793,-26.2415771484375,2,12548.80613225,1,2,1580908833.047298,1580903939.50652,2992,0.4866275,0,0,3614.279,14,15,1580908820.195806,12546.899877,0,16.72852,97.00893
1580908834.159664,149,0,1580907286.99823,41.20781296037784,29.0754925099451,275.2123,0.1345286,-1,23.46983528137207,200,-9999,12549.95859166667,1.03570556640625,0.147735595703125,-0.1907501220703125,12549.94855166667,-1.174074598806552,1.383508266461902,-0.147246258723023,0.04232454299926758,-0.1923170536756516,-0.1954789906740189,0.04375642538070679,-0.009039521217346191,-0.007142007350921631,2,-0.3052031895966713,-0.5610355570966618,0.4644817007612643,-0.6134712261813989,0.9718809127807617,0.1467147469520569,-0.1841802299022675,23.00888824462891,9.38221549987793,-26.2415771484375,2,12548.80613225,1,2,1580908833.047298,1580903939.50652,2992,0.4866275,0,0,3614.279,14,15,1580908820.195806,12546.899877,0,16.72852,97.00893
1580908834.169762,150,0,1580907286.99823,41.20781296037784,29.0754925099451,275.2123,0.1345286,-1,23.46983528137207,200,-9999,12549.96866266667,1.103530883789062,0.170135498046875,-0.1388397216796875,12549.95859166667,-1.174991244567683,1.381561310266209,-0.1496549374271332,0.04130774736404419,-0.1802806258201599,-0.2470772117376328,0.05655449628829956,-0.003954142332077026,-0.0102081298828125,2,-0.3042056800417228,-0.5607640874489941,0.4656587225773232,-0.6133226071168638,0.9711706638336182,0.1490969359874725,-0.1860050857067108,23.0150146484375,9.326826095581055,-26.4246826171875,2,12548.80613225,1,2,1580908833.047298,1580903939.50652,2992,0.4866275,0,0,3614.279,14,15,1580908820.195806,12546.899877,0,16.72852,97.00893
1580908834.179888,151,0,1580907286.99823,41.20781296037784,29.0754925099451,275.2123,0.1345286,-1,23.46983528137207,200,-9999,12549.97870266667,1.197128295898438,0.2044677734375,-0.0695953369140625,12549.96866266667,-1.176401679915178,1.379045195333281,-0.152838245074409,0.07396403700113297,-0.2258150577545166,-0.3354079723358154,0.1211139559745789,0.01540866494178772,0.04038560390472412,2,-0.3029532730903518,-0.5603935966270209,0.4672624709217564,-0.6130613610308715,0.9702287316322327,0.15224389731884,-0.1883566677570343,23.0150146484375,9.326826095581055,-26.4246826171875,2,12548.80613225,1,2,1580908833.047298,1580903939.50652,2992,0.4866275,0,0,3614.279,14,15,1580908820.195806,12546.899877,0,16.72852,97.00893
1580908834.207094,152,0,1580907286.99823,41.20781296037784,29.0754925099451,275.2123,0.1345286,-1,23.46983528137207,200,-9999,12549.98874266667,1.162750244140625,0.2856292724609375,0.0597991943359375,12549.97870266667,-1.178933076449727,1.375680708778403,-0.1569447762722198,0.1591106355190277,-0.3027902543544769,-0.4458743035793304,0.2176859974861145,0.04051037132740021,0.1091052889823914,2,-0.3015037574109219,-0.5597740109536743,0.4695603034733635,-0.6125861325491324,0.9689679741859436,0.156301274895668,-0.1914970874786377,22.82255554199219,9.520893096923828,-26.48748779296875,2,12548.80613225,1,2,1580908833.047298,1580903939.50652,2992,0.4866275,0,0,3614.279,14,15,1580908820.195806,12546.899877,0,16.72852,97.00893
1580908834.208423,153,0,1580907286.99823,41.20781296037784,29.0754925099451,275.2123,0.1345286,-1,23.46983528137207,200,-9999,12549.99878266667,1.308013916015625,0.1346893310546875,-0.2893524169921875,12549.98874266667,-1.182996195377297,1.371279994493473,-0.1617379430857616,0.3622154891490936,-0.3375400602817535,-0.530203640460968,0.2029780149459839,0.1191488057374954,0.2439090013504028,2,-0.300001387687573,-0.5587439942925814,0.4726419360800101,-0.6118937971007321,0.9673704504966736,0.1610337048768997,-0.1956086307764053,22.82255554199219,9.520893096923828,-26.48748779296875,2,12548.80613225,1,2,1580908833.047298,1580903939.50652,2992,0.4866275,0,0,3614.279,14,15,1580908820.195806,12546.899877,0,16.72852,97.00893
1580908834.210025,154,0,1580907286.99823,41.20781296037784,29.0754925099451,275.2123,0.1345286,-1,23.46983528137207,200,-9999,12550.00882366667,1.687393188476562,0.0499725341796875,-0.5207366943359375,12549.99878266667,-1.185857269637197,1.366167217043971,-0.1696947153497408,0.06006202846765518,-0.4637856185436249,-0.8226205706596375,0.2913749217987061,-0.007076561450958252,-0.0296860933303833,2,-0.2969225527238857,-0.5582959448757205,0.4762168239347574,-0.6110320397574441,0.9650724530220032,0.1688814610242844,-0.2002852708101273,22.3265380859375,9.680000305175781,-26.79815673828125,2,12548.80613225,1,2,1580908833.047298,1580903939.50652,2992,0.4866275,0,0,3614.279,14,15,1580908820.195806,12546.899877,0,16.72852,97.00893
1580908834.219882,155,0,1580907286.99823,41.20781296037784,29.0754925099451,275.2123,0.1345286,-1,23.46983528137207,200,-9999,12550.01886366667,1.349563598632812,0.1020965576171875,-0.2537841796875,12550.00882366667,-1.188807585463364,1.36145622702757,-0.1819509548628304,0.04865767806768417,-0.4010292887687683,-1.265486121177673,0.7217296957969666,-0.1388348042964935,-0.3408030867576599,2,-0.2925013219449717,-0.5587942403274068,0.4807664698007253,-0.6091432340087168,0.9620211124420166,0.1809486597776413,-0.2043839544057846,22.3265380859375,9.680000305175781,-26.79815673828125,2,12548.80613225,1,2,1580908833.047298,1580903939.50652,2992,0.4866275,0,0,3614.279,14,15,1580908820.195806,12546.899877,0,16.72852,97.00893
1580908834.230139,156,0,1580907286.99823,41.20781296037784,29.0754925099451,275.2123,0.1345286,-1,23.46983528137207,200,-9999,12550.02890366667,1.392013549804688,0.0713653564453125,-0.38922119140625,12550.01886366667,-1.190991935379629,1.357194564983717,-0.1966844585529592,-0.09668965637683868,-0.3817349672317505,-1.469488859176636,0.419928252696991,-0.09270744025707245,-0.05773830413818359,2,-0.2871134637384185,-0.5600167741492029,0.4855619481201434,-0.6067755822258114,0.9584317803382874,0.1954187899827957,-0.2078941464424133,21.73924255371094,10.10861396789551,-26.85748291015625,2,12548.80613225,1,2,1580908833.047298,1580903939.50652,2992,0.4866275,0,0,3614.279,14,15,1580908820.195806,12546.899877,0,16.72852,97.00893
1580908834.240013,157,0,1580907286.99823,41.20781296037784,29.0754925099451,275.2123,0.1345286,-1,23.46983528137207,200,-9999,12550.03894466667,1.614883422851562,0.105194091796875,-0.34442138671875,12550.02890366667,-1.19313064586855,1.354175810520567,-0.2142371002235082,-0.1655554920434952,-0.2441219389438629,-1.744483351707458,0.407120943069458,-0.1400171965360641,-0.1676984429359436,2,-0.281032213280162,-0.56214987593108,0.4907749885861198,-0.6034471328290614,0.9543026089668274,0.2126020342111588,-0.2100168168544769,21.73924255371094,10.10861396789551,-26.85748291015625,2,12548.80613225,1,2,1580908833.047298,1580903939.50652,2992,0.4866275,0,0,3614.279,14,15,1580908820.195806,12546.899877,0,16.72852,97.00893
1580908834.268813,158,0,1580907286.99823,41.20781296037784,29.0754925099451,275.2123,0.1345286,-1,23.46983528137207,200,-9999,12550.04898466667,1.658432006835938,0.133544921875,-0.2760162353515625,12550.03894466667,-1.195213935605203,1.35122654742278,-0.2357025897946026,-0.2642844617366791,-0.2251961827278137,-2.127300262451172,0.6501094102859497,-0.1351741850376129,-0.1506927013397217,2,-0.2735890682618966,-0.5650268166442185,0.4968027121839989,-0.599233561077625,0.949005663394928,0.233526200056076,-0.2117874324321747,21.37898254394531,10.72342491149902,-27.01190185546875,2,12548.80613225,1,2,1580908833.047298,1580903939.50652,2992,0.4866275,0,0,3614.279,14,15,1580908820.195806,12546.899877,0,16.72852,97.00893
1580908834.270268,159,0,1580907286.99823,41.20781296037784,29.0754925099451,275.2123,0.1345286,-1,23.46983528137207,200,-9999,12550.05905566667,1.717681884765625,0.1162261962890625,-0.2993621826171875,12550.04898466667,-1.197584734813826,1.34740245936134,-0.2611234866154187,-0.3388542234897614,-0.3259286284446716,-2.513450145721436,0.7102702260017395,-0.1248450875282288,-0.06390756368637085,2,-0.2646112873539931,-0.5683007220052222,0.5038422088575205,-0.5942710714699109,0.9420940279960632,0.25816610455513,-0.2140303105115891,21.37898254394531,10.72342491149902,-27.01190185546875,2,12548.80613225,1,2,1580908833.047298,1580903939.50652,2992,0.4866275,0,0,3614.279,14,15,1580908820.195806,12546.899877,0,16.72852,97.00893
1580908834.271361,160,0,1580907286.99823,41.20781296037784,29.0754925099451,275.2123,0.1345286,-1,23.46983528137207,200,-9999,12550.06909566667,1.807281494140625,0.1214752197265625,-0.230926513671875,12550.05905566667,-1.200736425436725,1.34328315796094,-0.2910939606324125,-0.3704787492752075,-0.3336328864097595,-2.961486101150513,0.7713998556137085,-0.1694467663764954,-0.08626234531402588,2,-0.2541543558268924,-0.5721646025350606,0.51203280695352,-0.5880948983014279,0.9332448840141296,0.2870003283023834,-0.2160664647817612,20.69939422607422,11.63723564147949,-26.89410400390625,2,12548.80613225,1,2,1580908833.047298,1580903939.50652,2992,0.4866275,0,0,3614.279,14,15,1580908820.195806,12546.899877,0,16.72852,97.00893
1580908834.280464,161,0,1580907286.99823,41.20781296037784,29.0754925099451,275.2123,0.1345286,-1,23.46983528137207,200,-9999,12550.07913566667,1.925033569335938,0.1089324951171875,-0.2647857666015625,12550.06909566667,-1.204924739947837,1.339188153212069,-0.3259610029950787,-0.3951447904109955,-0.2719096541404724,-3.477586030960083,0.8750321865081787,-0.2021538615226746,-0.02581578493118286,2,-0.2422296682382903,-0.5767119976039432,0.5214042648596255,-0.5804013580989299,0.922048032283783,0.3202193379402161,-0.217456117272377,20.69939422607422,11.63723564147949,-26.89410400390625,2,12548.80613225,1,2,1580908833.047298,1580903939.50652,2992,0.4866275,0,0,3614.279,14,15,1580908820.195806,12546.899877,0,16.72852,97.00893
1580908834.29154,162,0,1580907286.99823,41.20781296037784,29.0754925099451,275.2123,0.1345286,-1,23.46983528137207,200,-9999,12550.08917666667,2.254989624023438,0.1225433349609375,-0.3776092529296875,12550.07913566667,-1.210180725129439,1.33444285200416,-0.3653473527438844,-0.4424723386764526,-0.2912455499172211,-3.927244663238525,0.9914575219154358,-0.2455776631832123,-0.033916175365448,2,-0.2287775145009278,-0.5816430194826987,0.5318644550257081,-0.571377725506319,0.908033013343811,0.3572737574577332,-0.218704491853714,19.457275390625,12.75333404541016,-26.82330322265625,2,12548.80613225,1,2,1580908833.047298,1580903939.50652,2992,0.4866275,0,0,3614.279,14,15,1580908820.195806,12546.899877,0,16.72852,97.00893
1580908834.301241,163,0,1580907286.99823,41.20781296037784,29.0754925099451,275.2123,0.1345286,-1,23.46983528137207,200,-9999,12550.09921666667,2.46026611328125,0.0844879150390625,-0.2581634521484375,12550.08917666667,-1.217252755660275,1.328067714090403,-0.4090938420271242,-0.3960900008678436,-0.361067146062851,-4.379391670227051,1.326400279998779,-0.2802577912807465,-0.1586208939552307,2,-0.2137789010039919,-0.5865485751157707,0.5435727278474115,-0.5610598350814826,0.8905864357948303,0.3977780938148499,-0.2205187082290649,19.457275390625,12.75333404541016,-26.82330322265625,2,12548.80613225,1,2,1580908833.047298,1580903939.50652,2992,0.4866275,0,0,3614.279,14,15,1580908820.195806,12546.899877,0,16.72852,97.00893
