loggingTime,loggingSample,identifierForVendor,locationTimestamp_since1970,locationLatitude,locationLongitude,locationAltitude,locationSpeed,locationCourse,locationVerticalAccuracy,locationHorizontalAccuracy,locationFloor,accelerometerTimestamp_sinceReboot,accelerometerAccelerationX,accelerometerAccelerationY,accelerometerAccelerationZ,motionTimestamp_sinceReboot,motionYaw,motionRoll,motionPitch,motionRotationRateX,motionRotationRateY,motionRotationRateZ,motionUserAccelerationX,motionUserAccelerationY,motionUserAccelerationZ,motionAttitudeReferenceFrame,motionQuaternionX,motionQuaternionY,motionQuaternionZ,motionQuaternionW,motionGravityX,motionGravityY,motionGravityZ,motionMagneticFieldX,motionMagneticFieldY,motionMagneticFieldZ,motionMagneticFieldCalibrationAccuracy,activityTimestamp_sinceReboot,activity,activityActivityConfidence,activityActivityStartDate,pedometerStartDate,pedometerNumberofSteps,pedometerAverageActivePace,pedometerCurrentPace,pedometerCurrentCadence,pedometerDistance,pedometerFloorAscended,pedometerFloorDescended,pedometerEndDate,altimeterTimestamp_sinceReboot,altimeterReset,altimeterRelativeAltitude,altimeterPressure
1582559150.76304,1,0,1582559150.000198,41.20632726656992,29.07283145976459,180.0524,0.9552344,334.1150410636687,3,6.000906205260658,-9999,106240.561914125,0.9762115478515625,0.044281005859375,-0.051025390625,106240.555902125,-2.922107604670285,1.528837074361282,-0.040899144025606,-0.008042016997933388,-0.01160473097115755,0.002486948855221272,-0.007693648338317871,0.003710426390171051,0.01546132564544678,2,-0.6861935773200309,-0.09045686741043409,0.7188428423192407,-0.06496767354954379,0.9982842206954956,0.0408877432346344,-0.04191185906529427,36.69672393798828,3.278621673583984,18.73220825195312,2,106238.63966225,4,1,1582559148.811737,1582558685.643339,11,0.6387488,0,0,10.91,0,0,1582558765.788069,106237.992554,0,4.333405,99.31301
1582559150.763838,2,0,1582559150.000198,41.20632726656992,29.07283145976459,180.0524,0.9552344,334.1150410636687,3,6.000906205260658,-9999,106240.5719725,0.9730682373046875,0.0464019775390625,-0.05255126953125,106240.5659605,-2.922076517935443,1.528843866304724,-0.04089715756354997,-0.00451692845672369,0.0002263505011796951,-0.0002021337859332561,-0.02540940046310425,0.00334620475769043,-0.01332336664199829,2,-0.6861947029840522,-0.09046704861908267,0.7188394956105898,-0.0649792376009381,0.9982846975326538,0.04088575765490532,-0.04190508648753166,36.72264862060547,3.230209350585938,18.691650390625,2,106238.63966225,4,1,1582559148.811737,1582558685.643339,11,0.6387488,0,0,10.91,0,0,1582558765.788069,106237.992554,0,4.333405,99.31301
1582559150.764555,3,0,1582559150.000198,41.20632726656992,29.07283145976459,180.0524,0.9552344,334.1150410636687,3,6.000906205260658,-9999,106240.5820125,0.9829254150390625,0.0475311279296875,-0.0431365966796875,106240.5760005,-2.922076212941702,1.528813414813551,-0.04088719615822464,-0.001632192172110081,6.576254963874817e-05,0.0004087951965630054,-0.02389776706695557,0.006285853683948517,-0.008928954601287842,2,-0.6861842107053948,-0.09046259084549152,0.7188495517354274,-0.06498413948960594,0.9982836842536926,0.04087580367922783,-0.04193549603223801,36.72264862060547,3.230209350585938,18.691650390625,2,106238.63966225,4,1,1582559148.811737,1582558685.643339,11,0.6387488,0,0,10.91,0,0,1582558765.788069,106237.992554,0,4.333405,99.31301
1582559150.765127,4,0,1582559150.000198,41.20632726656992,29.07283145976459,180.0524,0.9552344,334.1150410636687,3,6.000906205260658,-9999,106240.5920525,0.9853973388671875,0.046722412109375,-0.0431060791015625,106240.5860405,-2.922098076167311,1.528607483364093,-0.04087177058005016,0.001925590797327459,-0.01885246112942696,0.001784268766641617,-0.01430726051330566,0.006392821669578552,-0.0006818175315856934,2,-0.6861118950726652,-0.09044288400752425,0.7189204982262453,-0.0649909256541347,0.9982757568359375,0.04086039215326309,-0.04214110597968102,36.72695159912109,3.166481018066406,18.4794921875,2,106238.63966225,4,1,1582559148.811737,1582558685.643339,11,0.6387488,0,0,10.91,0,0,1582558765.788069,106237.992554,0,4.333405,99.31301
1582559150.767932,5,0,1582559150.000198,41.20632726656992,29.07283145976459,180.0524,0.9552344,334.1150410636687,3,6.000906205260658,-9999,106240.6020925,0.9848480224609375,0.0462188720703125,-0.0439300537109375,106240.5960815,-2.922118050937645,1.528255125816204,-0.04085483498712719,0.0005154469981789589,-0.03448095545172691,0.001288654282689095,-0.01353001594543457,0.005845185369253159,-0.001443803310394287,2,-0.6859869184071213,-0.09041851595762039,0.7190414692318993,-0.06500550669756201,0.9982615113258362,0.04084347188472748,-0.04249287769198418,36.72695159912109,3.166481018066406,18.4794921875,2,106238.63966225,4,1,1582559148.811737,1582558685.643339,11,0.6387488,0,0,10.91,0,0,1582558765.788069,106237.992554,0,4.333405,99.31301
1582559150.777848,6,0,1582559150.000198,41.20632726656992,29.07283145976459,180.0524,0.9552344,334.1150410636687,3,6.000906205260658,-9999,106240.6121335,0.981536865234375,0.046356201171875,-0.04803466796875,106240.6061215,-2.922134485717356,1.527811477084821,-0.04082919538308725,0.0002951064379885793,-0.04304693266749382,0.002501508221030235,-0.0142749547958374,0.005443580448627472,-0.001946508884429932,2,-0.6858293336448338,-0.09038928804821253,0.7191934677467542,-0.06502850942798814,0.9982436895370483,0.04081785306334496,-0.0429358035326004,36.66396331787109,3.124088287353516,18.56353759765625,2,106238.63966225,4,1,1582559148.811737,1582558685.643339,11,0.6387488,0,0,10.91,0,0,1582558765.788069,106237.992554,0,4.333405,99.31301
1582559150.79521,7,0,1582559150.000198,41.20632726656992,29.07283145976459,180.0524,0.9552344,334.1150410636687,3,6.000906205260658,-9999,106240.6221735,0.9741058349609375,0.0455474853515625,-0.0541534423828125,106240.6161615,-2.922127793842253,1.527443099343543,-0.0407998433103864,-0.001921176095493138,-0.03601112961769104,0.003739611245691776,-0.01844114065170288,0.005167737603187561,-0.006476521492004395,2,-0.6856979187222784,-0.09036909167624693,0.7193186615868176,-0.06505767399885404,0.9982290267944336,0.04078852385282516,-0.04330358281731606,36.81063079833984,3.133304595947266,18.63113403320312,2,106238.63966225,4,1,1582559148.811737,1582558685.643339,11,0.6387488,0,0,10.91,0,0,1582558765.788069,106237.992554,0,4.333405,99.31301
1582559150.798115,8,0,1582559150.000198,41.20632726656992,29.07283145976459,180.0524,0.9552344,334.1150410636687,3,6.000906205260658,-9999,106240.6322135,0.9741058349609375,0.0466766357421875,-0.0523834228515625,106240.6262015,-2.922118709679921,1.527216226550479,-0.04075325968579198,-0.001258076052181423,-0.02272496744990349,0.005349924322217703,-0.0257422924041748,0.005107477307319641,-0.01171272993087769,2,-0.6856180790901251,-0.09034813086561043,0.7193946230664091,-0.06508721246617016,0.9982209205627441,0.04074198007583618,-0.04353012889623642,36.81063079833984,3.133304595947266,18.63113403320312,2,106238.63966225,4,1,1582559148.811737,1582558685.643339,11,0.6387488,0,0,10.91,0,0,1582558765.788069,106237.992554,0,4.333405,99.31301
1582559150.80803,9,0,1582559150.000198,41.20632726656992,29.07283145976459,180.0524,0.9552344,334.1150410636687,3,6.000906205260658,-9999,106240.6422545,0.9808197021484375,0.0437469482421875,-0.0500640869140625,106240.6362425,-2.922107449205972,1.527015266940528,-0.04071326924041908,-0.001030375831760466,-0.02223281562328339,0.004030061420053244,-0.02304941415786743,0.005513690412044525,-0.008002340793609619,2,-0.6855471416991001,-0.09033113260869732,0.7194619842559203,-0.06511412835683644,0.9982138872146606,0.04070202261209488,-0.04373080655932426,36.95313262939453,3.314289093017578,18.53970336914062,2,106238.63966225,4,1,1582559148.811737,1582558685.643339,11,0.6387488,0,0,10.91,0,0,1582558765.788069,106237.992554,0,4.333405,99.31301
1582559150.818214,10,0,1582559150.000198,41.20632726656992,29.07283145976459,180.0524,0.9552344,334.1150410636687,3,6.000906205260658,-9999,106240.6522945,0.9783935546875,0.0434417724609375,-0.05291748046875,106240.6462825,-2.922080756618815,1.526838737768232,-0.04071836214917852,-0.003445400623604655,-0.01820058189332485,-0.0004712906666100025,-0.01779240369796753,0.002746742218732834,-0.007017374038696289,2,-0.6854821962458415,-0.09033634955110018,0.7195216965139074,-0.06512993052039107,0.998205840587616,0.04070711135864258,-0.04390700533986092,36.95313262939453,3.314289093017578,18.53970336914062,2,106238.63966225,4,1,1582559148.811737,1582558685.643339,11,0.6387488,0,0,10.91,0,0,1582558765.788069,106237.992554,0,4.333405,99.31301
1582559150.828545,11,0,1582559150.000198,41.20632726656992,29.07283145976459,180.0524,0.9552344,334.1150410636687,3,6.000906205260658,-9999,106240.6623345,0.98040771484375,0.0435028076171875,-0.0516357421875,106240.6563225,-2.922049693081755,1.526748363185147,-0.04076515183379027,-0.003463243832811713,-0.006800919771194458,-0.004241261631250381,-0.02071630954742432,0.002532131969928741,-0.009810984134674072,2,-0.6854460952881933,-0.09036082904737193,0.7195532294423272,-0.06512911162967598,0.9982001185417175,0.04075386375188828,-0.0439971424639225,36.86284637451172,3.369171142578125,18.58383178710938,2,106238.63966225,4,1,1582559148.811737,1582558685.643339,11,0.6387488,0,0,10.91,0,0,1582558765.788069,106237.992554,0,4.333405,99.31301
1582559150.839972,12,0,1582559150.000198,41.20632726656992,29.07283145976459,180.0524,0.9552344,334.1150410636687,3,6.000906205260658,-9999,106240.6723745,0.9840087890625,0.04534912109375,-0.0467681884765625,106240.6663635,-2.922039746637469,1.526605290775275,-0.04081367788471468,-0.001610412262380123,-0.01274983119219542,-0.003542903112247586,-0.01696968078613281,0.003078717738389969,-0.006814777851104736,2,-0.6853919090366599,-0.09037696529164765,0.7196034403538809,-0.06512245128665398,0.9981918931007385,0.04080234840512276,-0.04413986951112747,36.86284637451172,3.369171142578125,18.58383178710938,2,106238.63966225,4,1,1582559148.811737,1582558685.643339,11,0.6387488,0,0,10.91,0,0,1582558765.788069,106237.992554,0,4.333405,99.31301
1582559150.859697,13,0,1582559150.000198,41.20632726656992,29.07283145976459,180.0524,0.9552344,334.1150410636687,3,6.000906205260658,-9999,106240.6824155,0.982086181640625,0.048828125,-0.0475921630859375,106240.6764035,-2.922053085180161,1.526329866167865,-0.04086912826086243,0.0003922847681678832,-0.02847473137080669,-0.005629490129649639,-0.01466631889343262,0.004961151629686356,-0.00266420841217041,2,-0.6852908250349561,-0.09038328966522648,0.7196999064939135,-0.06511099737267918,0.9981773495674133,0.04085775092244148,-0.0444146916270256,36.82878875732422,3.370830535888672,18.47955322265625,2,106238.63966225,4,1,1582559148.811737,1582558685.643339,11,0.6387488,0,0,10.91,0,0,1582558765.788069,106237.992554,0,4.333405,99.31301
1582559150.86058,14,0,1582559150.000198,41.20632726656992,29.07283145976459,180.0524,0.9552344,334.1150410636687,3,6.000906205260658,-9999,106240.6924865,0.9764862060546875,0.0483245849609375,-0.051513671875,106240.6864435,-2.922084173909984,1.526020542610173,-0.04092585954849132,0.003119025146588683,-0.03229669481515884,-0.005606131628155708,-0.01745778322219849,0.00830715149641037,-0.003835439682006836,2,-0.6851782694967579,-0.090382893137608,0.7198085848685893,-0.06509424839364372,0.9981611967086792,0.04091443493962288,-0.04472334310412407,36.82878875732422,3.370830535888672,18.47955322265625,2,106238.63966225,4,1,1582559148.811737,1582558685.643339,11,0.6387488,0,0,10.91,0,0,1582558765.788069,106237.992554,0,4.333405,99.31301
1582559150.868208,15,0,1582559150.000198,41.20632726656992,29.07283145976459,180.0524,0.9552344,334.1150410636687,3,6.000906205260658,-9999,106240.7025265,0.97509765625,0.0463714599609375,-0.054046630859375,106240.6964835,-2.922121268067411,1.525773711106992,-0.04097561624437755,0.00411451468244195,-0.02357217669487,-0.003782398765906692,-0.0227852463722229,0.006762057542800903,-0.007907330989837646,2,-0.6850887868422386,-0.09037998195283867,0.7198958350212815,-0.06507491876294566,0.9981480836868286,0.04096415266394615,-0.04496962577104568,36.97107696533203,3.529354095458984,18.45291137695312,2,106238.63966225,4,1,1582559148.811737,1582558685.643339,11,0.6387488,0,0,10.91,0,0,1582558765.788069,106237.992554,0,4.333405,99.31301
1582559150.878255,16,0,1582559150.000198,41.20632726656992,29.07283145976459,180.0524,0.9552344,334.1150410636687,3,6.000906205260658,-9999,106240.7125665,0.9747161865234375,0.0463104248046875,-0.0535430908203125,106240.7065245,-2.922151268949222,1.525565836536844,-0.04102743484628511,0.003306695492938161,-0.01981595531105995,-0.004849424120038748,-0.02339935302734375,0.005428515374660492,-0.009149491786956787,2,-0.685012899115647,-0.0903815164975227,0.7199695988966608,-0.06505568184822269,0.998136579990387,0.04101592674851418,-0.04517702013254166,36.97107696533203,3.529354095458984,18.45291137695312,2,106238.63966225,4,1,1582559148.811737,1582558685.643339,11,0.6387488,0,0,10.91,0,0,1582558765.788069,106237.992554,0,4.333405,99.31301
1582559150.889454,17,0,1582559150.000198,41.20632726656992,29.07283145976459,180.0524,0.9552344,334.1150410636687,3,6.000906205260658,-9999,106240.7226065,0.9717559814453125,0.046600341796875,-0.0552978515625,106240.7165645,-2.922168317260975,1.525439025426804,-0.04105709635641238,0.001220641657710075,-0.01250664424151182,-0.002229139674454927,-0.02433842420578003,0.005047917366027832,-0.009038150310516357,2,-0.6849666375443082,-0.09038217858000473,0.7200144275519403,-0.06504505315975587,0.9981295466423035,0.04104556143283844,-0.04530353471636772,36.95539093017578,3.542015075683594,18.39413452148438,2,106238.63966225,4,1,1582559148.811737,1582558685.643339,11,0.6387488,0,0,10.91,0,0,1582558765.788069,106237.992554,0,4.333405,99.31301
1582559150.898576,18,0,1582559150.000198,41.20632726656992,29.07283145976459,180.0524,0.9552344,334.1150410636687,3,6.000906205260658,-9999,106240.7326475,0.97369384765625,0.04827880859375,-0.0539703369140625,106240.7266045,-2.922181000848697,1.525425655203368,-0.0410580102973107,0.0004419587785378098,0.00023651123046875,6.913719698786736e-05,-0.02713006734848022,0.006084602326154709,-0.01050460338592529,2,-0.684962348542437,-0.09037774510428033,0.7200196156689717,-0.06504081806105426,0.99812912940979,0.04104647412896156,-0.04531688988208771,36.95539093017578,3.542015075683594,18.39413452148438,2,106238.63966225,4,1,1582559148.811737,1582558685.643339,11,0.6387488,0,0,10.91,0,0,1582558765.788069,106237.992554,0,4.333405,99.31301
1582559150.917315,19,0,1582559150.000198,41.20632726656992,29.07283145976459,180.0524,0.9552344,334.1150410636687,3,6.000906205260658,-9999,106240.7426875,0.9790802001953125,0.0449066162109375,-0.0527801513671875,106240.7366445,-2.922209077524906,1.525464396915916,-0.04103580497463239,0.002796193119138479,0.004426995292305946,0.003432443365454674,-0.02362310886383057,0.006701894104480743,-0.008757948875427246,2,-0.6849786008121542,-0.09036142576729608,0.7200065484731474,-0.06503659199530135,0.9981317520141602,0.04102429002523422,-0.04527825862169266,36.85474395751953,3.3441162109375,18.33987426757812,2,106238.63966225,4,1,1582559148.811737,1582558685.643339,11,0.6387488,0,0,10.91,0,0,1582558765.788069,106237.992554,0,4.333405,99.31301
1582559150.918504,20,0,1582559150.000198,41.20632726656992,29.07283145976459,180.0524,0.9552344,334.1150410636687,3,6.000906205260658,-9999,106240.7527275,0.9810028076171875,0.0442657470703125,-0.0507049560546875,106240.7466855,-2.922241474578497,1.525524393407748,-0.04103250416590146,0.003696051659062505,0.006635252386331558,0.001319912727922201,-0.01904839277267456,0.003577135503292084,-0.007887423038482666,2,-0.6850018217871336,-0.09035108363346744,0.7199868196906773,-0.06502332178395354,0.998134434223175,0.04102098941802979,-0.04521837085485458,36.85474395751953,3.3441162109375,18.33987426757812,2,106238.63966225,4,1,1582559148.811737,1582558685.643339,11,0.6387488,0,0,10.91,0,0,1582558765.788069,106237.992554,0,4.333405,99.31301
1582559150.92848,21,0,1582559150.000198,41.20632726656992,29.07283145976459,180.0524,0.9552344,334.1150410636687,3,6.000906205260658,-9999,106240.7627685,0.981842041015625,0.0445098876953125,-0.0495758056640625,106240.7567255,-2.922266541094208,1.525560683500239,-0.04106969485565505,0.002079779282212257,0.00339844636619091,-0.004035172052681446,-0.01718688011169434,0.003356866538524628,-0.005207300186157227,2,-0.6850142805366874,-0.09035702177598488,0.7199764639342645,-0.06499989144183578,0.9981347322463989,0.04105814918875694,-0.04518208652734756,36.68321990966797,3.364585876464844,18.607666015625,2,106238.63966225,4,1,1582559148.811737,1582558685.643339,11,0.6387488,0,0,10.91,0,0,1582558765.788069,106237.992554,0,4.333405,99.31301
1582559150.939355,22,0,1582559150.000198,41.20632726656992,29.07283145976459,180.0524,0.9552344,334.1150410636687,3,6.000906205260658,-9999,106240.7728085,0.9825286865234375,0.04522705078125,-0.0494384765625,106240.7667655,-2.922283246140059,1.525564442353947,-0.04111769275334039,-0.0001063623931258917,0.001520249992609024,-0.003804218955338001,-0.0168340802192688,0.003339402377605438,-0.005211114883422852,2,-0.6850141538718836,-0.09036861970199031,0.7199771148481976,-0.06497717454022905,0.9981328248977661,0.04110610857605934,-0.04517824202775955,36.68321990966797,3.364585876464844,18.607666015625,2,106238.63966225,4,1,1582559148.811737,1582558685.643339,11,0.6387488,0,0,10.91,0,0,1582558765.788069,106237.992554,0,4.333405,99.31301
1582559150.948627,23,0,1582559150.000198,41.20632726656992,29.07283145976459,180.0524,0.9552344,334.1150410636687,3,6.000906205260658,-9999,106240.7828485,0.9826202392578125,0.0454559326171875,-0.048583984375,106240.7768065,-2.922318581273688,1.525477338597809,-0.04119433503556152,0.002650009235367179,-0.007508132606744766,-0.007851957343518734,-0.0158657431602478,0.004315644502639771,-0.004254579544067383,2,-0.6849808184041158,-0.09038116783466718,0.7200104994809523,-0.06494203350334041,0.9981258511543274,0.04118268564343452,-0.04526504501700401,36.77034759521484,3.284000396728516,18.44012451171875,2,106238.63966225,4,1,1582559148.811737,1582558685.643339,11,0.6387488,0,0,10.91,0,0,1582558765.788069,106237.992554,0,4.333405,99.31301
1582559150.958659,24,0,1582559150.000198,41.20632726656992,29.07283145976459,180.0524,0.9552344,334.1150410636687,3,6.000906205260658,-9999,106240.7928885,0.977691650390625,0.0459136962890625,-0.05340576171875,106240.7868465,-2.922355347929952,1.52535001891566,-0.04128454362444333,0.002968217246234417,-0.01227446179836988,-0.009552076458930969,-0.01678717136383057,0.004057612270116806,-0.003990471363067627,2,-0.6849324412666735,-0.09039676753976839,0.7200579266064799,-0.06490348221850606,0.9981161952018738,0.04127281531691551,-0.04539195075631142,36.77034759521484,3.284000396728516,18.44012451171875,2,106238.63966225,4,1,1582559148.811737,1582558685.643339,11,0.6387488,0,0,10.91,0,0,1582558765.788069,106237.992554,0,4.333405,99.31301
1582559150.977291,25,0,1582559150.000198,41.20632726656992,29.07283145976459,180.0524,0.9552344,334.1150410636687,3,6.000906205260658,-9999,106240.8029295,0.9729156494140625,0.0470428466796875,-0.054840087890625,106240.7969175,-2.922382769460937,1.52528017194919,-0.04135250357275992,0.002235049149021506,-0.00548073835670948,-0.0072407191619277,-0.0220302939414978,0.004645805805921555,-0.009078323841094971,2,-0.6849053630296122,-0.0904094764524839,0.7200848362795649,-0.06487339126132263,0.998110294342041,0.04134071990847588,-0.04546153917908669,36.73854827880859,3.433025360107422,18.48367309570312,2,106238.63966225,4,1,1582559148.811737,1582558685.643339,11,0.6387488,0,0,10.91,0,0,1582558765.788069,106237.992554,0,4.333405,99.31301
1582559150.978694,26,0,1582559150.000198,41.20632726656992,29.07283145976459,180.0524,0.9552344,334.1150410636687,3,6.000906205260658,-9999,106240.8129695,0.9722442626953125,0.0474853515625,-0.054779052734375,106240.8069575,-2.922415496361302,1.525257659901406,-0.04138743148632526,0.003004969796165824,-0.002054307609796524,-0.003003562334924936,-0.02620881795883179,0.005953673273324966,-0.009513676166534424,2,-0.6848971057237345,-0.09041006729457646,0.720094736054813,-0.06485062457270023,0.99810791015625,0.04137561842799187,-0.04548394680023193,36.73854827880859,3.433025360107422,18.48367309570312,2,106238.63966225,4,1,1582559148.811737,1582558685.643339,11,0.6387488,0,0,10.91,0,0,1582558765.788069,106237.992554,0,4.333405,99.31301
1582559150.988893,27,0,1582559150.000198,41.20632726656992,29.07283145976459,180.0524,0.9552344,334.1150410636687,3,6.000906205260658,-9999,106240.8230095,0.9754486083984375,0.0457000732421875,-0.05352783203125,106240.8169975,-2.922450637128045,1.525315831603469,-0.04141129032428029,0.003468093695119023,0.008619377389550209,-0.002279715146869421,-0.02593588829040527,0.005746707320213318,-0.009831547737121582,2,-0.6849185299385494,-0.09040846062711037,0.7200765689439997,-0.06482710646975129,0.9981094002723694,0.04139945656061172,-0.04542583599686623,36.60478973388672,3.31890869140625,18.44976806640625,2,106238.63966225,4,1,1582559148.811737,1582558685.643339,11,0.6387488,0,0,10.91,0,0,1582558765.788069,106237.992554,0,4.333405,99.31301
1582559150.999046,28,0,1582559150.000198,41.20632726656992,29.07283145976459,180.0524,0.9552344,334.1150410636687,3,6.000906205260658,-9999,106240.8330505,0.97808837890625,0.0458984375,-0.0525970458984375,106240.8270385,-2.922466269347841,1.525377009555692,-0.04142761205921457,0.001287705847062171,0.006798611953854561,-0.001994498539716005,-0.02250486612319946,0.004051927477121353,-0.008092105388641357,2,-0.6849404989567551,-0.09041094829034725,0.7200566913635063,-0.06481311416095228,0.9981116056442261,0.04141576215624809,-0.04536474496126175,36.60478973388672,3.31890869140625,18.44976806640625,2,106238.63966225,4,1,1582559148.811737,1582558685.643339,11,0.6387488,0,0,10.91,0,0,1582558765.788069,106237.992554,0,4.333405,99.31301
1582559151.008867,29,0,1582559150.000198,41.20632726656992,29.07283145976459,180.0524,0.9552344,334.1150410636687,3,6.000906205260658,-9999,106240.8430905,0.9800872802734375,0.0445556640625,-0.05291748046875,106240.8370785,-2.922462940130573,1.525464388356047,-0.04144371859345696,-0.001227649743668735,0.0106628593057394,-0.001137227285653353,-0.02009737491607666,0.004417296499013901,-0.007889449596405029,2,-0.6849710532999883,-0.09042069993833216,0.7200272089580487,-0.06480483533341944,0.9981150031089783,0.04143185541033745,-0.04527750611305237,36.78044891357422,3.356929779052734,18.45974731445312,2,106238.63966225,4,1,1582559148.811737,1582558685.643339,11,0.6387488,0,0,10.91,0,0,1582558765.788069,106237.992554,0,4.333405,99.31301
1582559151.018752,30,0,1582559150.000198,41.20632726656992,29.07283145976459,180.0524,0.9552344,334.1150410636687,3,6.000906205260658,-9999,106240.8531305,0.98150634765625,0.0453033447265625,-0.05096435546875,106240.8471185,-2.922452259072632,1.525534052430844,-0.04146532072049294,-0.001585884136147797,0.007362443953752518,-0.002047969959676266,-0.0179176926612854,0.00299188494682312,-0.008020281791687012,2,-0.6849946436764615,-0.09043435521415874,0.7200036281658713,-0.06479808944386167,0.998117208480835,0.04145343974232674,-0.04520793259143829,36.78044891357422,3.356929779052734,18.45974731445312,2,106238.63966225,4,1,1582559148.811737,1582558685.643339,11,0.6387488,0,0,10.91,0,0,1582558765.788069,106237.992554,0,4.333405,99.31301
1582559151.039956,31,0,1582559150.000198,41.20632726656992,29.07283145976459,180.0524,0.9552344,334.1150410636687,3,6.000906205260658,-9999,106240.8631705,0.981781005859375,0.04541015625,-0.04876708984375,106240.8571585,-2.922442497195332,1.525556852062107,-0.0414973803250004,-0.0006127651431597769,0.00292401947081089,-0.002592852804809809,-0.01724612712860107,0.004165280610322952,-0.005632162094116211,2,-0.6850009129079192,-0.09044993401162116,0.7199965277820295,-0.06478955268772654,0.9981169700622559,0.04148546978831291,-0.04518511891365051,36.74869537353516,3.387535095214844,18.48052978515625,2,106238.63966225,4,1,1582559148.811737,1582558685.643339,11,0.6387488,0,0,10.91,0,0,1582558765.788069,106237.992554,0,4.333405,99.31301
1582559151.041458,32,0,1582559150.000198,41.20632726656992,29.07283145976459,180.0524,0.9552344,334.1150410636687,3,6.000906205260658,-9999,106240.8732115,0.9851531982421875,0.04486083984375,-0.0478515625,106240.8671995,-2.922424796546824,1.525500730913599,-0.04154068823682602,-0.002394977025687695,-0.003275519236922264,-0.003193605458363891,-0.01635682582855225,0.003725253045558929,-0.003913342952728271,2,-0.6849778955472179,-0.09046968057566208,0.7200162879777832,-0.06478351037001032,0.9981123805046082,0.04152874276041985,-0.04524103924632072,36.74869537353516,3.387535095214844,18.48052978515625,2,106238.63966225,4,1,1582559148.811737,1582558685.643339,11,0.6387488,0,0,10.91,0,0,1582558765.788069,106237.992554,0,4.333405,99.31301
1582559151.049613,33,0,1582559150.000198,41.20632726656992,29.07283145976459,180.0524,0.9552344,334.1150410636687,3,6.000906205260658,-9999,106240.8832515,0.986328125,0.045745849609375,-0.046051025390625,106240.8772395,-2.922429982496269,1.525319935393607,-0.04160740131112427,0.0007254489464685321,-0.01626135781407356,-0.007216842845082283,-0.01265311241149902,0.003307625651359558,-0.002298295497894287,2,-0.6849099219884598,-0.09048597525693589,0.7200805165578479,-0.06476689515272374,0.9981015920639038,0.04159539565443993,-0.04542137309908867,36.63430023193359,3.33551025390625,18.48541259765625,2,106238.63966225,4,1,1582559148.811737,1582558685.643339,11,0.6387488,0,0,10.91,0,0,1582558765.788069,106237.992554,0,4.333405,99.31301
1582559151.059007,34,0,1582559150.000198,41.20632726656992,29.07283145976459,180.0524,0.9552344,334.1150410636687,3,6.000906205260658,-9999,106240.8932915,0.9837646484375,0.0479736328125,-0.0481109619140625,106240.8872795,-2.922454788453174,1.52500359379655,-0.04168349577151124,0.002599006984382868,-0.03113408200442791,-0.007317034061998129,-0.01254409551620483,0.00442172959446907,-0.00118941068649292,2,-0.6847935930985538,-0.09049450378989575,0.7201918115533772,-0.06474606089728441,0.9980838298797607,0.04167142510414124,-0.04573696106672287,36.63430023193359,3.33551025390625,18.48541259765625,2,106238.63966225,4,1,1582559148.811737,1582558685.643339,11,0.6387488,0,0,10.91,0,0,1582558765.788069,106237.992554,0,4.333405,99.31301
1582559151.069186,35,0,1582559150.000198,41.20632726656992,29.07283145976459,180.0524,0.9552344,334.1150410636687,3,6.000906205260658,-9999,106240.9033325,0.9757080078125,0.0493011474609375,-0.0516204833984375,106240.8973205,-2.922484123135643,1.524617444579448,-0.04174240919072127,0.002965724328532815,-0.03931770846247673,-0.005254149436950684,-0.0157739520072937,0.006499089300632477,-0.003016173839569092,2,-0.6846531006649259,-0.09049310028149235,0.7203268939810713,-0.06473273805930009,0.9980638027191162,0.04173028841614723,-0.04612226039171219,36.63436126708984,3.132106781005859,18.53826904296875,2,106238.63966225,4,1,1582559148.811737,1582558685.643339,11,0.6387488,0,0,10.91,0,0,1582558765.788069,106237.992554,0,4.333405,99.31301
1582559151.079075,36,0,1582559150.000198,41.20632726656992,29.07283145976459,180.0524,0.9552344,334.1150410636687,3,6.000906205260658,-9999,106240.9133725,0.9678192138671875,0.049530029296875,-0.0565643310546875,106240.9073605,-2.922509546884228,1.524292701026203,-0.04175013600919096,0.003480698447674513,-0.03174209594726562,-0.0006429958157241344,-0.02482235431671143,0.007757849991321564,-0.006598234176635742,2,-0.6845369203190174,-0.09047665752675087,0.7204391072603216,-0.06473561467936705,0.9980484843254089,0.04173800721764565,-0.04644635692238808,36.63436126708984,3.132106781005859,18.53826904296875,2,106238.63966225,4,1,1582559148.811737,1582558685.643339,11,0.6387488,0,0,10.91,0,0,1582558765.788069,106237.992554,0,4.333405,99.31301
1582559151.100551,37,0,1582559150.000198,41.20632726656992,29.07283145976459,180.0524,0.9552344,334.1150410636687,3,6.000906205260658,-9999,106240.9234125,0.9682769775390625,0.048095703125,-0.0588226318359375,106240.9174005,-2.922524083612528,1.524077569304008,-0.04169870194704733,0.002178412629291415,-0.02063165232539177,0.005056169349700212,-0.0312994122505188,0.007916055619716644,-0.01100701093673706,2,-0.6844624863777948,-0.09044625447962776,0.7205114999927735,-0.06475775947647713,0.9980403780937195,0.04168662056326866,-0.04666116088628769,36.68325042724609,3.165962219238281,18.40496826171875,2,106238.63966225,4,1,1582559148.811737,1582558685.643339,11,0.6387488,0,0,10.91,0,0,1582558765.788069,106237.992554,0,4.333405,99.31301
1582559151.10152,38,0,1582559150.000198,41.20632726656992,29.07283145976459,180.0524,0.9552344,334.1150410636687,3,6.000906205260658,-9999,106240.9334525,0.97332763671875,0.0460052490234375,-0.05657958984375,106240.9274405,-2.922519321182155,1.523978323276449,-0.0416155775366193,-0.0005943847936578095,-0.008703058585524559,0.008792413398623466,-0.02917724847793579,0.005786638706922531,-0.01240283250808716,2,-0.6844303899072213,-0.09041487251627021,0.7205429750948975,-0.06479259047804788,0.9980394244194031,0.04160356521606445,-0.04676038399338722,36.68325042724609,3.165962219238281,18.40496826171875,2,106238.63966225,4,1,1582559148.811737,1582558685.643339,11,0.6387488,0,0,10.91,0,0,1582558765.788069,106237.992554,0,4.333405,99.31301
1582559151.109396,39,0,1582559150.000198,41.20632726656992,29.07283145976459,180.0524,0.9552344,334.1150410636687,3,6.000906205260658,-9999,106240.9435235,0.9761810302734375,0.0464019775390625,-0.0547027587890625,106240.9374815,-2.922493843272309,1.523955221188713,-0.04151916431214688,-0.003110805759206414,0.0004302524030208588,0.01015941426157951,-0.02434301376342773,0.004296097904443741,-0.00972449779510498,2,-0.6844254172433654,-0.09038825175753412,0.7205470694119099,-0.06483594924276929,0.9980422854423523,0.04150723665952682,-0.04678362607955933,36.72481536865234,3.151538848876953,18.37185668945312,2,106238.63966225,4,1,1582559148.811737,1582558685.643339,11,0.6387488,0,0,10.91,0,0,1582558765.788069,106237.992554,0,4.333405,99.31301
1582559151.119354,40,0,1582559150.000198,41.20632726656992,29.07283145976459,180.0524,0.9552344,334.1150410636687,3,6.000906205260658,-9999,106240.9535635,0.97772216796875,0.0487060546875,-0.0531158447265625,106240.9475215,-2.922477280375789,1.523924512240076,-0.04139158207771137,-0.0007698975969105959,-0.002726342529058456,0.01304791867733002,-0.02176815271377563,0.005507007241249084,-0.008228778839111328,2,-0.6844195579392216,-0.09034715704177047,0.72055316186689,-0.06488716923362313,0.9980461001396179,0.04137976467609406,-0.04681451991200447,36.72481536865234,3.151538848876953,18.37185668945312,2,106238.63966225,4,1,1582559148.811737,1582558685.643339,11,0.6387488,0,0,10.91,0,0,1582558765.788069,106237.992554,0,4.333405,99.31301
1582559151.129356,41,0,1582559150.000198,41.20632726656992,29.07283145976459,180.0524,0.9552344,334.1150410636687,3,6.000906205260658,-9999,106240.9636045,0.9744873046875,0.0460968017578125,-0.054931640625,106240.9575615,-2.922483556424814,1.523916869584634,-0.04126320779444687,0.0007845895015634596,-0.001173986122012138,0.01303886435925961,-0.02102535963058472,0.007252752780914307,-0.006389796733856201,2,-0.6844230735041186,-0.0902987135922136,0.7205521132033678,-0.06492939961335178,0.9980510473251343,0.04125149920582771,-0.04682239890098572,36.90355682373047,3.177684783935547,18.40652465820312,2,106238.63966225,4,1,1582559148.811737,1582558685.643339,11,0.6387488,0,0,10.91,0,0,1582558765.788069,106237.992554,0,4.333405,99.31301
1582559151.139531,42,0,1582559151.000175,41.20633889793534,29.07283516543905,180.1,0.9552344,336.924980888212,3,6.000906205260658,-9999,106240.9736445,0.9745941162109375,0.044586181640625,-0.0593109130859375,106240.9676025,-2.922492495006785,1.524016571888505,-0.04116127301636457,-0.0005873908521607518,0.008302105590701103,0.009796891361474991,-0.02448266744613647,0.004226598888635635,-0.01018166542053223,2,-0.6844641460446703,-0.09026233152728882,0.7205152364834553,-0.06495674004399732,0.9980599880218506,0.04114964976906776,-0.04672309011220932,36.90355682373047,3.177684783935547,18.40652465820312,2,106238.63966225,4,1,1582559148.811737,1582558685.643339,11,0.6387488,0,0,10.91,0,0,1582558765.788069,106237.992554,0,4.333405,99.31301
1582559151.156273,43,0,1582559151.000175,41.20633889793534,29.07283516543905,180.1,0.9552344,336.924980888212,3,6.000906205260658,-9999,106240.9836845,0.9789581298828125,0.04315185546875,-0.0540008544921875,106240.9776425,-2.922505186692651,1.524248537741796,-0.04108501364098007,0.001366570475511253,0.02367413602769375,0.00761443143710494,-0.02306240797042847,0.003524627536535263,-0.01248860359191895,2,-0.6845518370553735,-0.09023816202915402,0.7204338754295512,-0.06496790788431711,0.9980738162994385,0.04107345640659332,-0.04649171233177185,36.92671966552734,3.111564636230469,18.537353515625,2,106238.63966225,4,1,1582559148.811737,1582558685.643339,11,0.6387488,0,0,10.91,0,0,1582558765.788069,106237.992554,0,4.333405,99.31301
1582559151.159475,44,0,1582559151.000175,41.20633889793534,29.07283516543905,180.1,0.9552344,336.924980888212,3,6.000906205260658,-9999,106240.9937255,0.983306884765625,0.0423431396484375,-0.05255126953125,106240.9876825,-2.922515634917928,1.524488964236287,-0.04105758179376885,0.002432478126138449,0.02413848042488098,0.002920845989137888,-0.01875656843185425,0.001675210893154144,-0.007479488849639893,2,-0.6846401837696965,-0.09023256569044633,0.7203511681221133,-0.06496275184914939,0.9980862140655518,0.04104604572057724,-0.0462518073618412,36.92671966552734,3.111564636230469,18.537353515625,2,106238.63966225,4,1,1582559148.811737,1582558685.643339,11,0.6387488,0,0,10.91,0,0,1582558765.788069,106237.992554,0,4.333405,99.31301
1582559151.169428,45,0,1582559151.000175,41.20633889793534,29.07283516543905,180.1,0.9552344,336.924980888212,3,6.000906205260658,-9999,106241.0037655,0.9868316650390625,0.0427398681640625,-0.0498809814453125,106240.9977225,-2.922507256290999,1.524687078540663,-0.04108264143708519,-0.0005076515371911228,0.02045426517724991,-0.002275247126817703,-0.01433980464935303,0.001360237598419189,-0.006548523902893066,2,-0.6847099936914729,-0.09025084792680912,0.720283767802348,-0.06494819443625102,0.9980942606925964,0.0410710871219635,-0.04605401679873466,36.87334442138672,3.298999786376953,18.48312377929688,2,106238.63966225,4,1,1582559148.811737,1582558685.643339,11,0.6387488,0,0,10.91,0,0,1582558765.788069,106237.992554,0,4.333405,99.31301
1582559151.179535,46,0,1582559151.000175,41.20633889793534,29.07283516543905,180.1,0.9552344,336.924980888212,3,6.000906205260658,-9999,106241.0138055,0.98504638671875,0.0438385009765625,-0.0484771728515625,106241.0077635,-2.922496280574235,1.524764287936572,-0.04113025074927094,-0.001114007784053683,0.008659759536385536,-0.004368485882878304,-0.01148790121078491,0.001694116741418839,-0.003497660160064697,2,-0.6847350888210074,-0.09027417825488371,0.7202583631874725,-0.06493227097221903,0.9980957508087158,0.04111865535378456,-0.04597686231136322,36.87334442138672,3.298999786376953,18.48312377929688,2,106238.63966225,4,1,1582559148.811737,1582558685.643339,11,0.6387488,0,0,10.91,0,0,1582558765.788069,106237.992554,0,4.333405,99.31301
1582559151.190045,47,0,1582559151.000175,41.20633889793534,29.07283516543905,180.1,0.9552344,336.924980888212,3,6.000906205260658,-9999,106241.0238455,0.9790802001953125,0.046539306640625,-0.05108642578125,106241.0178035,-2.922489155410997,1.524769514856783,-0.04118480839160388,-0.0007552800816483796,0.001982415094971657,-0.005674766376614571,-0.01478171348571777,0.00345538929104805,-0.00359421968460083,2,-0.6847341020529553,-0.09029636658401925,0.7202581535670459,-0.06491587154758943,0.9980939626693726,0.04117316752672195,-0.04597155004739761,36.81279754638672,3.265724182128906,18.34661865234375,2,106238.63966225,4,1,1582559148.811737,1582558685.643339,11,0.6387488,0,0,10.91,0,0,1582558765.788069,106237.992554,0,4.333405,99.31301
1582559151.199846,48,0,1582559151.000175,41.20633889793534,29.07283516543905,180.1,0.9552344,336.924980888212,3,6.000906205260658,-9999,106241.0338865,0.978851318359375,0.0460205078125,-0.050933837890625,106241.0278435,-2.922500336678793,1.52475736627895,-0.04124740127436469,0.00138274603523314,-0.001177763566374779,-0.005948982201516628,-0.01990550756454468,0.005406986922025681,-0.005611598491668701,2,-0.6847273153820225,-0.09031458775903063,0.7202645677397597,-0.06489086004859493,0.9980908036231995,0.04123570770025253,-0.04598355665802956,36.81279754638672,3.265724182128906,18.34661865234375,2,106238.63966225,4,1,1582559148.811737,1582558685.643339,11,0.6387488,0,0,10.91,0,0,1582558765.788069,106237.992554,0,4.333405,99.31301
1582559151.21848,49,0,1582559151.000175,41.20633889793534,29.07283516543905,180.1,0.9552344,336.924980888212,3,6.000906205260658,-9999,106241.0439265,0.9788818359375,0.045684814453125,-0.0531463623046875,106241.0378845,-2.922518727041708,1.524753821719912,-0.04132477689786353,0.0007297388510778546,-0.0007814858108758926,-0.006178280338644981,-0.01944446563720703,0.004520919173955917,-0.005898118019104004,2,-0.684723262045557,-0.09033592461817688,0.7202687534953497,-0.06485778754620736,0.9980875253677368,0.04131301492452621,-0.04598695039749146,36.84520721435547,3.188758850097656,18.3717041015625,2,106238.63966225,4,1,1582559148.811737,1582558685.643339,11,0.6387488,0,0,10.91,0,0,1582558765.788069,106237.992554,0,4.333405,99.31301
1582559151.219826,50,0,1582559151.000175,41.20633889793534,29.07283516543905,180.1,0.9552344,336.924980888212,3,6.000906205260658,-9999,106241.0539665,0.9782867431640625,0.0450286865234375,-0.052978515625,106241.0479545,-2.922547639034809,1.524771714116289,-0.04143316502777061,0.002229191130027175,0.00272659957408905,-0.01144285313785076,-0.01970028877258301,0.004290502518415451,-0.0077781081199646,2,-0.6847259656185648,-0.09036545204104654,0.7202666658207635,-0.06480923674119511,0.9980835914611816,0.0414213128387928,-0.04596887528896332,36.84520721435547,3.188758850097656,18.3717041015625,2,106238.63966225,4,1,1582559148.811737,1582558685.643339,11,0.6387488,0,0,10.91,0,0,1582558765.788069,106237.992554,0,4.333405,99.31301
1582559151.229753,51,0,1582559151.000175,41.20633889793534,29.07283516543905,180.1,0.9552344,336.924980888212,3,6.000906205260658,-9999,106241.0640075,0.97869873046875,0.0452728271484375,-0.05316162109375,106241.0579955,-2.922579837786961,1.524807523548523,-0.04155306439096623,0.003252910217270255,0.004729030653834343,-0.01293608732521534,-0.02047526836395264,0.003361932933330536,-0.007447898387908936,2,-0.6847347227017629,-0.09039858808885055,0.7202591568778079,-0.06475479576173557,0.9980803728103638,0.04154110699892044,-0.04593291133642197,36.68326568603516,3.110004425048828,18.28582763671875,2,106238.63966225,4,1,1582559148.811737,1582558685.643339,11,0.6387488,0,0,10.91,0,0,1582558765.788069,106237.992554,0,4.333405,99.31301
1582559151.239879,52,0,1582559151.000175,41.20633889793534,29.07283516543905,180.1,0.9552344,336.924980888212,3,6.000906205260658,-9999,106241.0740475,0.983978271484375,0.0447540283203125,-0.051483154296875,106241.0680355,-2.92260122308778,1.524849186136818,-0.04169346724263403,0.001195027842186391,0.006177032366394997,-0.01369296573102474,-0.01931166648864746,0.003679342567920685,-0.00765758752822876,2,-0.6847441439457386,-0.09044295615286138,0.720249823287289,-0.06469690794053555,0.9980764389038086,0.04168139025568962,-0.04589105769991875,36.68326568603516,3.110004425048828,18.28582763671875,2,106238.63966225,4,1,1582559148.811737,1582558685.643339,11,0.6387488,0,0,10.91,0,0,1582558765.788069,106237.992554,0,4.333405,99.31301
1582559151.24988,53,0,1582559151.000175,41.20633889793534,29.07283516543905,180.1,0.9552344,336.924980888212,3,6.000906205260658,-9999,106241.0840875,0.988525390625,0.0433197021484375,-0.04888916015625,106241.0780755,-2.922615089083016,1.524792417772129,-0.04186899558171737,0.0006802387651987374,-0.004370683804154396,-0.01698916032910347,-0.01293867826461792,0.002328962087631226,-0.005465030670166016,2,-0.6847161372275643,-0.09049930239658993,0.7202749390312065,-0.06463408000779403,0.9980664253234863,0.04185676202178001,-0.04594737663865089,36.89862823486328,3.150360107421875,18.49517822265625,2,106238.63966225,4,1,1582559148.811737,1582558685.643339,11,0.6387488,0,0,10.91,0,0,1582558765.788069,106237.992554,0,4.333405,99.31301
1582559151.259878,54,0,1582559151.000175,41.20633889793534,29.07283516543905,180.1,0.9552344,336.924980888212,3,6.000906205260658,-9999,106241.0941275,0.9877166748046875,0.0430145263671875,-0.04888916015625,106241.0881155,-2.922614388130348,1.524600856223837,-0.04207728270901544,-8.439994417130947e-05,-0.01912955194711685,-0.02008713223040104,-0.01017463207244873,0.001220501959323883,-0.003015697002410889,2,-0.6846373813970759,-0.09056805081883854,0.7203468799895427,-0.06457137789385581,0.9980490207672119,0.04206486791372299,-0.04613816738128662,36.89862823486328,3.150360107421875,18.49517822265625,2,106238.63966225,4,1,1582559148.811737,1582558685.643339,11,0.6387488,0,0,10.91,0,0,1582558765.788069,106237.992554,0,4.333405,99.31301
1582559151.280479,55,0,1582559151.000175,41.20633889793534,29.07283516543905,180.1,0.9552344,336.924980888212,3,6.000906205260658,-9999,106241.1041685,0.9898681640625,0.0449371337890625,-0.047943115234375,106241.0981565,-2.922589396962885,1.524256409668934,-0.04233728449403158,-0.003420009277760983,-0.0347556471824646,-0.02673411555588245,-0.01049870252609253,0.0005181021988391876,-0.002870738506317139,2,-0.684500021171825,-0.0906587314583624,0.7204718247346211,-0.06450656164003102,0.9980221390724182,0.04232463613152504,-0.0464814305305481,36.71218109130859,3.139469146728516,18.43026733398438,2,106238.63966225,4,1,1582559148.811737,1582558685.643339,11,0.6387488,0,0,10.91,0,0,1582558765.788069,106237.992554,0,4.333405,99.31301
1582559151.28146,56,0,1582559151.000175,41.20633889793534,29.07283516543905,180.1,0.9552344,336.924980888212,3,6.000906205260658,-9999,106241.1142085,0.9834747314453125,0.0461883544921875,-0.0494384765625,106241.1081965,-2.922539343516729,1.523770621380192,-0.04263015960075077,-0.007169758435338736,-0.04783499985933304,-0.02951016277074814,-0.008892059326171875,0.003094002604484558,-0.001196444034576416,2,-0.6843090246660549,-0.09076523575357012,0.7206451568696992,-0.06444588873173844,0.9979868531227112,0.04261725023388863,-0.04696566238999367,36.71218109130859,3.139469146728516,18.43026733398438,2,106238.63966225,4,1,1582559148.811737,1582558685.643339,11,0.6387488,0,0,10.91,0,0,1582558765.788069,106237.992554,0,4.333405,99.31301
1582559151.290014,57,0,1582559151.000175,41.20633889793534,29.07283516543905,180.1,0.9552344,336.924980888212,3,6.000906205260658,-9999,106241.1242485,0.9745025634765625,0.0439453125,-0.057373046875,106241.1182365,-2.922454891186225,1.523245818466548,-0.0429497012855913,-0.01049870997667313,-0.05396426469087601,-0.03074214234948158,-0.01758170127868652,0.002698320895433426,-0.003816306591033936,2,-0.6841010795744147,-0.09089187441666732,0.7208316980001958,-0.06439033147820725,0.9979485869407654,0.04293649643659592,-0.04748876020312309,36.79904937744141,3.299537658691406,18.35018920898438,2,106238.63966225,4,1,1582559148.811737,1582558685.643339,11,0.6387488,0,0,10.91,0,0,1582558765.788069,106237.992554,0,4.333405,99.31301
1582559151.300608,58,0,1582559151.000175,41.20633889793534,29.07283516543905,180.1,0.9552344,336.924980888212,3,6.000906205260658,-9999,106241.1342895,0.9793701171875,0.0462799072265625,-0.0566558837890625,106241.1282775,-2.92233830301456,1.522804993425611,-0.04329038459205566,-0.01344197150319815,-0.04214682430028915,-0.03303657099604607,-0.02354288101196289,0.0006793253123760223,-0.01073193550109863,2,-0.6839208801131743,-0.09103980278799377,0.7209888662729279,-0.06433529560198963,0.9979128241539001,0.04327686503529549,-0.04792796820402145,36.79904937744141,3.299537658691406,18.35018920898438,2,106238.63966225,4,1,1582559148.811737,1582558685.643339,11,0.6387488,0,0,10.91,0,0,1582558765.788069,106237.992554,0,4.333405,99.31301
1582559151.309911,59,0,1582559151.000175,41.20633889793534,29.07283516543905,180.1,0.9552344,336.924980888212,3,6.000906205260658,-9999,106241.1443295,0.978118896484375,0.052886962890625,-0.05279541015625,106241.1383175,-2.922226860171247,1.522331398339858,-0.04358952558229592,-0.01332585792988539,-0.0491996742784977,-0.03016781434416771,-0.01850229501724243,0.003905113786458969,-0.007650434970855713,2,-0.683730979927226,-0.09117004031178484,0.7211561877765218,-0.06429425958322775,0.9978770613670349,0.0435757227241993,-0.04839994013309479,36.90038299560547,3.510124206542969,18.3463134765625,2,106238.63966225,4,1,1582559148.811737,1582558685.643339,11,0.6387488,0,0,10.91,0,0,1582558765.788069,106237.992554,0,4.333405,99.31301
1582559151.322457,60,0,1582559151.000175,41.20633889793534,29.07283516543905,180.1,0.9552344,336.924980888212,3,6.000906205260658,-9999,106241.1543695,0.9923095703125,0.050048828125,-0.0388946533203125,106241.1483575,-2.922142183503224,1.521663107959918,-0.04385051489433064,-0.008721252903342247,-0.05838172137737274,-0.02487185224890709,-0.01995366811752319,0.009305257350206375,-0.003199636936187744,2,-0.6834738090619181,-0.09127119571633417,0.7213896874657285,-0.06426561955815864,0.9978331327438354,0.04383646324276924,-0.04906624183058739,36.90038299560547,3.510124206542969,18.3463134765625,2,106238.63966225,4,1,1582559148.811737,1582558685.643339,11,0.6387488,0,0,10.91,0,0,1582558765.788069,106237.992554,0,4.333405,99.31301
1582559151.341261,61,0,1582559151.000175,41.20633889793534,29.07283516543905,180.1,0.9552344,336.924980888212,3,6.000906205260658,-9999,106241.1644095,0.99859619140625,0.0529327392578125,-0.037750244140625,106241.1583975,-2.922027210599868,1.520393117097423,-0.04409888606884519,-0.01463719829916954,-0.1316660642623901,-0.022081658244133,-0.001141726970672607,0.005471192300319672,0.01442503929138184,2,-0.6829986200609416,-0.09135885674362745,0.7218272135748287,-0.06427979591025693,0.9977590441703796,0.04408459365367889,-0.05033288896083832,36.84278106689453,3.116973876953125,18.30697631835938,2,106238.63966225,4,1,1582559148.811737,1582558685.643339,11,0.6387488,0,0,10.91,0,0,1582558765.788069,106237.992554,0,4.333405,99.31301
1582559151.342409,62,0,1582559151.000175,41.20633889793534,29.07283516543905,180.1,0.9552344,336.924980888212,3,6.000906205260658,-9999,106241.1744505,0.977813720703125,0.0518341064453125,-0.0571136474609375,106241.1684385,-2.921950869832872,1.518991542737967,-0.04433010317688541,-0.007789678871631622,-0.1372243463993073,-0.02354400046169758,-0.004020035266876221,0.009527828544378281,0.009186148643493652,2,-0.6824781813073658,-0.09142296424461052,0.7223101577297812,-0.06429208180123849,0.9976773858070374,0.04431558400392532,-0.05173074826598167,36.84278106689453,3.116973876953125,18.30697631835938,2,106238.63966225,4,1,1582559148.811737,1582558685.643339,11,0.6387488,0,0,10.91,0,0,1582558765.788069,106237.992554,0,4.333405,99.31301
1582559151.350069,63,0,1582559151.000175,41.20633889793534,29.07283516543905,180.1,0.9552344,336.924980888212,3,6.000906205260658,-9999,106241.1844905,0.976837158203125,0.0505523681640625,-0.0592803955078125,106241.1784785,-2.921845513320394,1.517521439569279,-0.04452096541526909,-0.01181371510028839,-0.1473685801029205,-0.01947948336601257,-0.02160394191741943,0.006254803389310837,-0.00538402795791626,2,-0.6819332103173379,-0.09148025254504637,0.7228137858802358,-0.06433189847097995,0.9975916743278503,0.0445062592625618,-0.05319692194461823,36.81839752197266,3.271186828613281,18.127197265625,2,106238.63966225,4,1,1582559148.811737,1582558685.643339,11,0.6387488,0,0,10.91,0,0,1582558765.788069,106237.992554,0,4.333405,99.31301
1582559151.360208,64,0,1582559151.000175,41.20633889793534,29.07283516543905,180.1,0.9552344,336.924980888212,3,6.000906205260658,-9999,106241.1945615,0.9748382568359375,0.053436279296875,-0.06329345703125,106241.1885185,-2.92173035416053,1.516071590113758,-0.04465940284576543,-0.01202090922743082,-0.143966406583786,-0.01303489878773689,-0.02109229564666748,0.006681013852357864,-0.005936384201049805,2,-0.6813972130942003,-0.09152265861449126,0.7233083159792747,-0.06439242734581518,0.9975072741508484,0.0446445606648922,-0.05464288219809532,36.81839752197266,3.271186828613281,18.127197265625,2,106238.63966225,4,1,1582559148.811737,1582558685.643339,11,0.6387488,0,0,10.91,0,0,1582558765.788069,106237.992554,0,4.333405,99.31301
1582559151.372862,65,0,1582559151.000175,41.20633889793534,29.07283516543905,180.1,0.9552344,336.924980888212,3,6.000906205260658,-9999,106241.2046015,0.968414306640625,0.050811767578125,-0.0690155029296875,106241.1985595,-2.921594981459748,1.514697587031115,-0.04474793746968531,-0.01436395850032568,-0.1402568817138672,-0.007162096444517374,-0.0243079662322998,0.008393075317144394,-0.008578121662139893,2,-0.6808897365563658,-0.09155638320934573,0.7237745846493768,-0.06447399372734242,0.9974274039268494,0.04473300650715828,-0.05601318925619125,36.97106170654297,3.332889556884766,18.05718994140625,2,106238.63966225,4,1,1582559148.811737,1582558685.643339,11,0.6387488,0,0,10.91,0,0,1582558765.788069,106237.992554,0,4.333405,99.31301
1582559151.380346,66,0,1582559151.000175,41.20633889793534,29.07283516543905,180.1,0.9552344,336.924980888212,3,6.000906205260658,-9999,106241.2146415,0.9659576416015625,0.051788330078125,-0.0683746337890625,106241.2085995,-2.921489173783384,1.513585124510065,-0.04481543694943263,-0.009602226316928864,-0.1089812442660332,-0.006802835967391729,-0.03071141242980957,0.006067316979169846,-0.01312899589538574,2,-0.6804789931210811,-0.09158083132735435,0.72415177442457,-0.06454013044147497,0.997361421585083,0.04480043798685074,-0.05712258070707321,37.00019073486328,3.186542510986328,18.04525756835938,2,106238.63966225,4,1,1582559148.811737,1582558685.643339,11,0.6387488,0,0,10.91,0,0,1582558765.788069,106237.992554,0,4.333405,99.31301
1582559151.399048,67,0,1582559151.000175,41.20633889793534,29.07283516543905,180.1,0.9552344,336.924980888212,3,6.000906205260658,-9999,106241.2246825,0.96258544921875,0.05078125,-0.0707550048828125,106241.2186395,-2.921397541643679,1.512660468049087,-0.04483061339396088,-0.00930334534496069,-0.09491389244794846,-0.000423917081207037,-0.03146612644195557,0.006769321858882904,-0.0101768970489502,2,-0.6801392032232934,-0.09158762531924747,0.7244638813042533,-0.06461049029216731,0.9973075985908508,0.04481559991836548,-0.05804474279284477,37.00019073486328,3.186542510986328,18.04525756835938,2,106238.63966225,4,1,1582559148.811737,1582558685.643339,11,0.6387488,0,0,10.91,0,0,1582558765.788069,106237.992554,0,4.333405,99.31301
1582559151.400576,68,0,1582559151.000175,41.20633889793534,29.07283516543905,180.1,0.9552344,336.924980888212,3,6.000906205260658,-9999,106241.2347225,0.9537353515625,0.050048828125,-0.0805206298828125,106241.2286795,-2.921323026578523,1.512140349519893,-0.04478160074318429,-0.006817688699811697,-0.05233387649059296,0.007055569905787706,-0.03764849901199341,0.006192687898874283,-0.01502901315689087,2,-0.6799496983571865,-0.09157847667924102,0.7246368664128663,-0.06467805350473758,0.9972794651985168,0.0447666347026825,-0.05856357887387276,37.04438018798828,3.112018585205078,18.13638305664062,2,106238.63966225,4,1,1582559148.811737,1582558685.643339,11,0.6387488,0,0,10.91,0,0,1582558765.788069,106237.992554,0,4.333405,99.31301
1582559151.410942,69,0,1582559151.000175,41.20633889793534,29.07283516543905,180.1,0.9552344,336.924980888212,3,6.000906205260658,-9999,106241.2447625,0.960479736328125,0.0494384765625,-0.074859619140625,106241.2387205,-2.921272972614878,1.512012276162291,-0.04470408546119699,-0.003819235600531101,-0.0149295125156641,0.007284068968147039,-0.04336655139923096,0.004942648112773895,-0.02190488576889038,2,-0.6799046910989858,-0.09156339707403635,0.7246765161208032,-0.06472855037431537,0.9972754716873169,0.04468919709324837,-0.05869150906801224,37.04438018798828,3.112018585205078,18.13638305664062,2,106238.63966225,4,1,1582559148.811737,1582558685.643339,11,0.6387488,0,0,10.91,0,0,1582558765.788069,106237.992554,0,4.333405,99.31301
1582559151.422522,70,0,1582559151.000175,41.20633889793534,29.07283516543905,180.1,0.9552344,336.924980888212,3,6.000906205260658,-9999,106241.2548025,0.9629974365234375,0.052398681640625,-0.0729827880859375,106241.2487605,-2.921267579325662,1.5121712917861,-0.04459515879300458,0.0003835174720734358,0.01650194637477398,0.01049048453569412,-0.03648382425308228,0.005539793521165848,-0.01582270860671997,2,-0.679967249070483,-0.0915310820106694,0.7246189282403417,-0.06476042061367544,0.9972894787788391,0.04458037763834,-0.0585332028567791,37.21480560302734,3.227592468261719,18.13229370117188,2,106238.63966225,4,1,1582559148.811737,1582558685.643339,11,0.6387488,0,0,10.91,0,0,1582558765.788069,106237.992554,0,4.333405,99.31301
1582559151.430653,71,0,1582559151.000175,41.20633889793534,29.07283516543905,180.1,0.9552344,336.924980888212,3,6.000906205260658,-9999,106241.2648435,0.9674835205078125,0.0506744384765625,-0.0721588134765625,106241.2588005,-2.921278908815619,1.5125603886298,-0.04446607011681238,0.0007401147158816457,0.03805171698331833,0.01358161680400372,-0.03399455547332764,0.007606670260429382,-0.01509660482406616,2,-0.680114867938859,-0.09149328312697246,0.724483175887831,-0.06478263785871786,0.997317910194397,0.04445141926407814,-0.05814548954367638,37.21480560302734,3.227592468261719,18.13229370117188,2,106238.63966225,4,1,1582559148.811737,1582558685.643339,11,0.6387488,0,0,10.91,0,0,1582558765.788069,106237.992554,0,4.333405,99.31301
1582559151.440638,72,0,1582559151.000175,41.20633889793534,29.07283516543905,180.1,0.9552344,336.924980888212,3,6.000906205260658,-9999,106241.2748835,0.972564697265625,0.050537109375,-0.067718505859375,106241.2688415,-2.921317413590622,1.513136407927283,-0.04434220600987675,0.005734051112085581,0.05780548974871635,0.0130405779927969,-0.02951681613922119,0.006235111504793167,-0.0146486759185791,2,-0.6803311459532435,-0.09145419202753444,0.7242848507623929,-0.06478469779474202,0.9973567724227905,0.04432767629623413,-0.05757132545113564,37.09255218505859,3.175632476806641,18.0919189453125,2,106238.63966225,4,1,1582559148.811737,1582558685.643339,11,0.6387488,0,0,10.91,0,0,1582558765.788069,106237.992554,0,4.333405,99.31301
1582559151.458928,73,0,1582559151.000175,41.20633889793534,29.07283516543905,180.1,0.9552344,336.924980888212,3,6.000906205260658,-9999,106241.2849235,0.9752349853515625,0.0487823486328125,-0.0642242431640625,106241.2788815,-2.921378129410022,1.513827002975354,-0.04422856053276435,0.006680805236101151,0.07091116905212402,0.01257399097084999,-0.02419024705886841,0.006150335073471069,-0.01007306575775146,2,-0.68058936881898,-0.09141495198489036,0.7240485670707054,-0.06477003007563377,0.9974014163017273,0.04421414062380791,-0.0568828359246254,37.09255218505859,3.175632476806641,18.0919189453125,2,106238.63966225,4,1,1582559148.811737,1582558685.643339,11,0.6387488,0,0,10.91,0,0,1582558765.788069,106237.992554,0,4.333405,99.31301
1582559151.460675,74,0,1582559151.000175,41.20633889793534,29.07283516543905,180.1,0.9552344,336.924980888212,3,6.000906205260658,-9999,106241.2949645,0.978912353515625,0.046112060546875,-0.0624542236328125,106241.2889215,-2.921441293498031,1.514531021749809,-0.04413272570171762,0.007073111832141876,0.07131645828485489,0.01050113700330257,-0.02209806442260742,0.003987807780504227,-0.008028924465179443,2,-0.6808516362432322,-0.09138171237672342,0.7238080670174056,-0.06474776265627172,0.9974453449249268,0.04411840066313744,-0.05618086457252502,36.85002899169922,2.966327667236328,18.08285522460938,2,106238.63966225,4,1,1582559148.811737,1582558685.643339,11,0.6387488,0,0,10.91,0,0,1582558765.788069,106237.992554,0,4.333405,99.31301
1582559151.472269,75,0,1582559151.000175,41.20633889793534,29.07283516543905,180.1,0.9552344,336.924980888212,3,6.000906205260658,-9999,106241.3050045,0.9780426025390625,0.0486907958984375,-0.06231689453125,106241.2989925,-2.921494250821282,1.515227799008259,-0.04405893234958649,0.006497602444142103,0.07117451727390289,0.007300017867237329,-0.01879864931106567,0.002093181014060974,-0.007533907890319824,2,-0.6811096778209111,-0.09135966078919819,0.7235703959792169,-0.06472203777285913,0.9974875450134277,0.04404468089342117,-0.0554860383272171,36.85002899169922,2.966327667236328,18.08285522460938,2,106238.63966225,4,1,1582559148.811737,1582558685.643339,11,0.6387488,0,0,10.91,0,0,1582558765.788069,106237.992554,0,4.333405,99.31301
1582559151.480768,76,0,1582559151.000175,41.20633889793534,29.07283516543905,180.1,0.9552344,336.924980888212,3,6.000906205260658,-9999,106241.3150445,0.97381591796875,0.0499420166015625,-0.062957763671875,106241.3090325,-2.921529614297795,1.515889286463094,-0.04398622848182557,0.002455065958201885,0.06602787226438522,0.007872943766415119,-0.02036422491073608,0.005065023899078369,-0.007812380790710449,2,-0.6813540185019118,-0.09134283833657661,0.7233440402021558,-0.06470391838184839,0.9975272417068481,0.04397204518318176,-0.05482637509703636,36.96234893798828,3.354846954345703,18.09890747070312,2,106238.63966225,4,1,1582559148.811737,1582558685.643339,11,0.6387488,0,0,10.91,0,0,1582558765.788069,106237.992554,0,4.333405,99.31301
1582559151.490927,77,0,1582559151.000175,41.20633889793534,29.07283516543905,180.1,0.9552344,336.924980888212,3,6.000906205260658,-9999,106241.3250845,0.968536376953125,0.0503692626953125,-0.0663299560546875,106241.3190725,-2.92156904726993,1.516652192648036,-0.04390194248379878,0.00358105031773448,0.07823686301708221,0.009369373321533203,-0.02561283111572266,0.00617159903049469,-0.009977340698242188,2,-0.6816356796211096,-0.09132374978870242,0.7230829322541512,-0.06468370933471287,0.9975725412368774,0.04388784244656563,-0.05406554415822029,36.96234893798828,3.354846954345703,18.09890747070312,2,106238.63966225,4,1,1582559148.811737,1582558685.643339,11,0.6387488,0,0,10.91,0,0,1582558765.788069,106237.992554,0,4.333405,99.31301
1582559151.500991,78,0,1582559151.000175,41.20633889793534,29.07283516543905,180.1,0.9552344,336.924980888212,3,6.000906205260658,-9999,106241.3351255,0.973785400390625,0.0503692626953125,-0.0625762939453125,106241.3291135,-2.921635308146687,1.517573672075546,-0.0438023992392312,0.00679731136187911,0.0966818556189537,0.0105713689699769,-0.02989345788955688,0.006683073937892914,-0.01375049352645874,2,-0.681976500909627,-0.09129512727257068,0.7227678480435249,-0.06465176700687592,0.9976261854171753,0.04378839209675789,-0.05314650386571884,36.74103546142578,3.251052856445312,18.19393920898438,2,106238.63966225,4,1,1582559148.811737,1582558685.643339,11,0.6387488,0,0,10.91,0,0,1582558765.788069,106238.92885,0,4.417953,99.31204
1582559151.519243,79,0,1582559151.000175,41.20633889793534,29.07283516543905,180.1,0.9552344,336.924980888212,3,6.000906205260658,-9999,106241.3451655,0.9842376708984375,0.0486297607421875,-0.0564422607421875,106241.3391535,-2.921696949824687,1.518414416247173,-0.04368664559793598,0.006620743777602911,0.08109863102436066,0.01337967161089182,-0.02126073837280273,0.006646182388067245,-0.008501112461090088,2,-0.6822885558114555,-0.091259650321432,0.7224796868491771,-0.0646308190710526,0.9976755976676941,0.04367275163531303,-0.05230800434947014,36.74103546142578,3.251052856445312,18.19393920898438,2,106238.63966225,4,1,1582559148.811737,1582558685.643339,11,0.6387488,0,0,10.91,0,0,1582558765.788069,106238.92885,0,4.417953,99.31204
1582559151.523351,80,0,1582559151.000175,41.20633889793534,29.07283516543905,180.1,0.9552344,336.924980888212,3,6.000906205260658,-9999,106241.3552055,0.9817352294921875,0.0471954345703125,-0.0562591552734375,106241.3491935,-2.921741354756335,1.519228031263842,-0.04360995893723434,0.006508090998977423,0.08391359448432922,0.007846088148653507,-0.01416522264480591,0.004556074738502502,-0.005971670150756836,2,-0.6825880632834708,-0.09124320155960572,0.7222010804138821,-0.06460392812046331,0.9977210164070129,0.04359613731503487,-0.05149642750620842,36.78998565673828,3.055168151855469,18.39666748046875,2,106238.63966225,4,1,1582559148.811737,1582558685.643339,11,0.6387488,0,0,10.91,0,0,1582558765.788069,106238.92885,0,4.417953,99.31204
1582559151.530954,81,0,1582559151.000175,41.20633889793534,29.07283516543905,180.1,0.9552344,336.924980888212,3,6.000906205260658,-9999,106241.3652465,0.9814605712890625,0.0461883544921875,-0.0566558837890625,106241.3592345,-2.92176450551774,1.520013470688011,-0.04354925761772113,0.002801237162202597,0.07964400947093964,0.007551542483270168,-0.01664972305297852,0.003426544368267059,-0.005428194999694824,2,-0.6828755511162286,-0.09123886049735906,0.721931989942061,-0.06458058912769142,0.9977639317512512,0.0435354933142662,-0.05071290582418442,36.78998565673828,3.055168151855469,18.39666748046875,2,106238.63966225,4,1,1582559148.811737,1582558685.643339,11,0.6387488,0,0,10.91,0,0,1582558765.788069,106238.92885,0,4.417953,99.31204
1582559151.5411,82,0,1582559151.000175,41.20633889793534,29.07283516543905,180.1,0.9552344,336.924980888212,3,6.000906205260658,-9999,106241.3752865,0.9841766357421875,0.0460662841796875,-0.05517578125,106241.3692745,-2.921781132636932,1.520782372668706,-0.04350976757277799,0.001259001437574625,0.07824188470840454,0.003821108490228653,-0.01641571521759033,0.002306342124938965,-0.007630109786987305,2,-0.6831556706634195,-0.09124381628160375,0.7216687418891368,-0.06455306101780363,0.9978043437004089,0.04349604249000549,-0.04994579032063484,36.89775848388672,2.949832916259766,18.36227416992188,2,106238.63966225,4,1,1582559148.811737,1582558685.643339,11,0.6387488,0,0,10.91,0,0,1582558765.788069,106238.92885,0,4.417953,99.31204
1582559151.55112,83,0,1582559151.000175,41.20633889793534,29.07283516543905,180.1,0.9552344,336.924980888212,3,6.000906205260658,-9999,106241.3853265,0.983062744140625,0.04827880859375,-0.0519256591796875,106241.3793145,-2.921763377193701,1.521414279624842,-0.0434587596898671,-0.001969282515347004,0.06203708052635193,0.004768927581608295,-0.01382482051849365,0.003104999661445618,-0.005224347114562988,2,-0.6833852473543703,-0.09125195472448133,0.7214507233808938,-0.0645481422687193,0.9978378415107727,0.04344508051872253,-0.04931537061929703,36.89775848388672,2.949832916259766,18.36227416992188,2,106238.63966225,4,1,1582559148.811737,1582558685.643339,11,0.6387488,0,0,10.91,0,0,1582558765.788069,106238.92885,0,4.417953,99.31204
1582559151.561163,84,0,1582559151.000175,41.20633889793534,29.07283516543905,180.1,0.9552344,336.924980888212,3,6.000906205260658,-9999,106241.3953665,0.9796142578125,0.0499267578125,-0.0533447265625,106241.3893545,-2.921721458794206,1.521979234408146,-0.04337408740631597,-0.003770436160266399,0.05670438706874847,0.008432310074567795,-0.01587021350860596,0.005264841020107269,-0.004033327102661133,2,-0.6835910916428596,-0.09125412020867757,0.7212538020398755,-0.0645665769538212,0.9978692531585693,0.04336049035191536,-0.04875180870294571,36.82242584228516,3.266811370849609,18.43307495117188,2,106238.63966225,4,1,1582559148.811737,1582558685.643339,11,0.6387488,0,0,10.91,0,0,1582558765.788069,106238.92885,0,4.417953,99.31204
1582559151.583442,85,0,1582559151.000175,41.20633889793534,29.07283516543905,180.1,0.9552344,336.924980888212,3,6.000906205260658,-9999,106241.4054075,0.975433349609375,0.049072265625,-0.0542449951171875,106241.3993955,-2.921673308355452,1.52252769243335,-0.04324982410041218,-0.00484289089217782,0.05512779951095581,0.01379671506583691,-0.01980853080749512,0.006655514240264893,-0.005633294582366943,2,-0.6837925103210848,-0.09124369964790216,0.7210611375687044,-0.06460163610067768,0.9979013800621033,0.04323634132742882,-0.04820477962493896,36.82242584228516,3.266811370849609,18.43307495117188,2,106238.63966225,4,1,1582559148.811737,1582558685.643339,11,0.6387488,0,0,10.91,0,0,1582558765.788069,106238.92885,0,4.417953,99.31204
1582559151.584435,86,0,1582559151.000175,41.20633889793534,29.07283516543905,180.1,0.9552344,336.924980888212,3,6.000906205260658,-9999,106241.4154475,0.9754180908203125,0.047576904296875,-0.0568389892578125,106241.4094355,-2.921625929700384,1.523096350904572,-0.04310729232089618,-0.003563450649380684,0.05790838599205017,0.01586125791072845,-0.02344304323196411,0.005562011152505875,-0.007498085498809814,2,-0.6840020614928106,-0.09122710886100271,0.7208606870457732,-0.06464171291628845,0.9979345202445984,0.04309394210577011,-0.04763758927583694,36.64820098876953,3.203269958496094,18.46878051757812,2,106238.63966225,4,1,1582559148.811737,1582558685.643339,11,0.6387488,0,0,10.91,0,0,1582558765.788069,106238.92885,0,4.417953,99.31204
1582559151.591407,87,0,1582559151.000175,41.20633889793534,29.07283516543905,180.1,0.9552344,336.924980888212,3,6.000906205260658,-9999,106241.4254875,0.9811248779296875,0.04681396484375,-0.052337646484375,106241.4194755,-2.921571130269031,1.523687418824454,-0.04297011095166423,-0.004250812809914351,0.061545729637146,0.0142463194206357,-0.02242404222488403,0.004310578107833862,-0.0100257396697998,2,-0.6842190301203386,-0.09121574967706078,0.7206526058482625,-0.06468166104924103,0.9979684352874756,0.0429568886756897,-0.04704800993204117,36.64820098876953,3.203269958496094,18.46878051757812,2,106238.63966225,4,1,1582559148.811737,1582558685.643339,11,0.6387488,0,0,10.91,0,0,1582558765.788069,106238.92885,0,4.417953,99.31204
1582559151.601415,88,0,1582559151.000175,41.20633889793534,29.07283516543905,180.1,0.9552344,336.924980888212,3,6.000906205260658,-9999,106241.4355285,0.9855194091796875,0.0455322265625,-0.0473480224609375,106241.4295165,-2.921504415568934,1.524138371120793,-0.04284670693058436,-0.006554550025612116,0.0439964234828949,0.0134884063154459,-0.01579767465591431,0.003670986741781235,-0.004524827003479004,2,-0.6843842665369142,-0.0912089104728834,0.7204924778973605,-0.0647275762869983,0.9979948997497559,0.0428335964679718,-0.04659822210669518,36.64231109619141,2.918014526367188,18.416259765625,2,106238.63966225,4,1,1582559148.811737,1582558685.643339,11,0.6387488,0,0,10.91,0,0,1582558765.788069,106238.92885,0,4.417953,99.31204
1582559151.611375,89,0,1582559151.000175,41.20633889793534,29.07283516543905,180.1,0.9552344,336.924980888212,3,6.000906205260658,-9999,106241.4455985,0.980865478515625,0.0454559326171875,-0.0525360107421875,106241.4395565,-2.921429878665585,1.524500318065596,-0.04275295277424713,-0.007562556304037571,0.03554248064756393,0.01033841818571091,-0.01360601186752319,0.002406664192676544,-0.002139508724212646,2,-0.68451565889503,-0.09121251389692678,0.7203633318388523,-0.06477015521619073,0.9980156421661377,0.04273993149399757,-0.04623718187212944,36.64231109619141,2.918014526367188,18.416259765625,2,106238.63966225,4,1,1582559148.811737,1582558685.643339,11,0.6387488,0,0,10.91,0,0,1582558765.788069,106238.92885,0,4.417953,99.31204
1582559151.623857,90,0,1582559151.000175,41.20633889793534,29.07283516543905,180.1,0.9552344,336.924980888212,3,6.000906205260658,-9999,106241.4556395,0.977508544921875,0.04742431640625,-0.0551910400390625,106241.4495965,-2.921348182795479,1.524904178003336,-0.04267539192361243,-0.007984696887433529,0.04085977375507355,0.008432263508439064,-0.01851087808609009,0.003262385725975037,-0.008111953735351562,2,-0.6846610252228592,-0.09122576901691987,0.720220250177673,-0.0648078752272529,0.9980377554893494,0.04266243800520897,-0.04583428055047989,36.67943572998047,2.917594909667969,18.52432250976562,2,106238.63966225,4,1,1582559148.811737,1582558685.643339,11,0.6387488,0,0,10.91,0,0,1582558765.788069,106238.92885,0,4.417953,99.31204
1582559151.647025,91,0,1582559151.000175,41.20633889793534,29.07283516543905,180.1,0.9552344,336.924980888212,3,6.000906205260658,-9999,106241.4656795,0.9759521484375,0.048370361328125,-0.054779052734375,106241.4596365,-2.921269471104179,1.525383908355816,-0.04258634505864227,-0.007836624979972839,0.0473427027463913,0.00945917796343565,-0.02151209115982056,0.005060367286205292,-0.01031529903411865,2,-0.6848343634619318,-0.0912363375969,0.720050648444896,-0.0648449457411012,0.9980632662773132,0.0425734743475914,-0.0453556515276432,36.67943572998047,2.917594909667969,18.52432250976562,2,106238.63966225,4,1,1582559148.811737,1582558685.643339,11,0.6387488,0,0,10.91,0,0,1582558765.788069,106238.92885,0,4.417953,99.31204
1582559151.648137,92,0,1582559151.000175,41.20633889793534,29.07283516543905,180.1,0.9552344,336.924980888212,3,6.000906205260658,-9999,106241.4757195,0.9762725830078125,0.047943115234375,-0.0546417236328125,106241.4696775,-2.921183465251488,1.525954773724889,-0.04247928401688701,-0.008968554437160492,0.05723052099347115,0.01125169359147549,-0.02296155691146851,0.005762472748756409,-0.01059520244598389,2,-0.6850409705232176,-0.09124594729224886,0.7198491722953172,-0.06488672465872923,0.9980936646461487,0.04246651008725166,-0.04478609189391136,36.78061676025391,3.184543609619141,18.455078125,2,106238.63966225,4,1,1582559148.811737,1582558685.643339,11,0.6387488,0,0,10.91,0,0,1582558765.788069,106238.92885,0,4.417953,99.31204
1582559151.651423,93,0,1582559151.000175,41.20633889793534,29.07283516543905,180.1,0.9552344,336.924980888212,3,6.000906205260658,-9999,106241.4857595,0.9772796630859375,0.0483551025390625,-0.0518035888671875,106241.4797175,-2.921092403857942,1.526570553593868,-0.04236357583923973,-0.008332857862114906,0.06126653775572777,0.01193852350115776,-0.02186471223831177,0.005710288882255554,-0.01020282506942749,2,-0.6852638591059615,-0.09125567055239275,0.7196317137644253,-0.06493122501628118,0.9981259107589722,0.04235090687870979,-0.04417169094085693,36.78061676025391,3.184543609619141,18.455078125,2,106238.63966225,4,1,1582559148.811737,1582558685.643339,11,0.6387488,0,0,10.91,0,0,1582558765.788069,106238.92885,0,4.417953,99.31204
1582559151.662004,94,0,1582559151.000175,41.20633889793534,29.07283516543905,180.1,0.9552344,336.924980888212,3,6.000906205260658,-9999,106241.4958005,0.976409912109375,0.0489501953125,-0.0523834228515625,106241.4897575,-2.921008573751926,1.52722191095738,-0.04223114104939706,-0.006879494525492191,0.06411340832710266,0.01313615217804909,-0.02156329154968262,0.006132565438747406,-0.008488118648529053,2,-0.6855005939855836,-0.09125811259866426,0.7194016636342828,-0.06497724994732205,0.9981599450111389,0.04221858829259872,-0.04352178424596786,36.85637664794922,3.108249664306641,18.49755859375,2,106238.63966225,4,1,1582559148.811737,1582558685.643339,11,0.6387488,0,0,10.91,0,0,1582558765.788069,106238.92885,0,4.417953,99.31204
1582559151.673092,95,0,1582559151.000175,41.20633889793534,29.07283516543905,180.1,0.9552344,336.924980888212,3,6.000906205260658,-9999,106241.5058405,0.97808837890625,0.0471649169921875,-0.051300048828125,106241.4997985,-2.920921494326234,1.527934250538625,-0.04207248556408144,-0.008290703408420086,0.07166586816310883,0.01649253442883492,-0.02236366271972656,0.006520040333271027,-0.01041990518569946,2,-0.6857602590397628,-0.09125431666988436,0.7191498257060792,-0.06503072761984505,0.9981974363327026,0.04206007346510887,-0.04281103238463402,36.85637664794922,3.108249664306641,18.49755859375,2,106238.63966225,4,1,1582559148.811737,1582558685.643339,11,0.6387488,0,0,10.91,0,0,1582558765.788069,106238.92885,0,4.417953,99.31204
1582559151.682563,96,0,1582559151.000175,41.20633889793534,29.07283516543905,180.1,0.9552344,336.924980888212,3,6.000906205260658,-9999,106241.5158805,0.9823150634765625,0.0452728271484375,-0.0471649169921875,106241.5098385,-2.92081776965293,1.528635927854124,-0.04192182967063898,-0.009551286697387695,0.07035274803638458,0.01561667118221521,-0.01986676454544067,0.004625953733921051,-0.008724749088287354,2,-0.6860148657775937,-0.09125878808760315,0.7189011737389456,-0.06508791035566105,0.9982334971427917,0.04190955311059952,-0.042110875248909,36.87035369873047,3.177196502685547,18.61575317382812,2,106238.63966225,4,1,1582559148.811737,1582558685.643339,11,0.6387488,0,0,10.91,0,0,1582558765.788069,106238.92885,0,4.417953,99.31204
1582559151.69937,97,0,1582559151.000175,41.20633889793534,29.07283516543905,180.1,0.9552344,336.924980888212,3,6.000906205260658,-9999,106241.5259215,0.98089599609375,0.0460052490234375,-0.046875,106241.5198785,-2.9206968129541,1.529293640321158,-0.04177602450438645,-0.01004210766404867,0.06506344676017761,0.01569976285099983,-0.01622319221496582,0.003489963710308075,-0.005887091159820557,2,-0.6862525658709403,-0.09126954036803347,0.718667221438656,-0.06515165432100813,0.9982671737670898,0.04176387563347816,-0.04145457223057747,36.87035369873047,3.177196502685547,18.61575317382812,2,106238.63966225,4,1,1582559148.811737,1582558685.643339,11,0.6387488,0,0,10.91,0,0,1582558765.788069,106238.92885,0,4.417953,99.31204
1582559151.701791,98,0,1582559151.000175,41.20633889793534,29.07283516543905,180.1,0.9552344,336.924980888212,3,6.000906205260658,-9999,106241.5359615,0.979400634765625,0.045257568359375,-0.049163818359375,106241.5299185,-2.920560067112215,1.529938665349539,-0.04162989601160752,-0.01278750319033861,0.06320612132549286,0.01559209823608398,-0.01836162805557251,0.004093784838914871,-0.006851673126220703,2,-0.6864849298148125,-0.09128521507061957,0.718436823278344,-0.06522171379801985,0.9982996582984924,0.04161787405610085,-0.04081090167164803,36.79079437255859,3.096675872802734,18.633056640625,2,106238.63966225,4,1,1582559148.811737,1582558685.643339,11,0.6387488,0,0,10.91,0,0,1582558765.788069,106238.92885,0,4.417953,99.31204
1582559151.711656,99,0,1582559151.000175,41.20633889793534,29.07283516543905,180.1,0.9552344,336.924980888212,3,6.000906205260658,-9999,106241.5460015,0.9796905517578125,0.0464935302734375,-0.0472412109375,106241.5399595,-2.920424834721127,1.530628226246604,-0.04148488098551677,-0.01239255629479885,0.07023048400878906,0.01483123376965523,-0.01932632923126221,0.003918290138244629,-0.00958484411239624,2,-0.6867332233954753,-0.09130228616702393,0.7181912163467348,-0.06528882982888198,0.9983335733413696,0.04147298261523247,-0.04012274369597435,36.79079437255859,3.096675872802734,18.633056640625,2,106238.63966225,4,1,1582559148.811737,1582558685.643339,11,0.6387488,0,0,10.91,0,0,1582558765.788069,106238.92885,0,4.417953,99.31204
1582559151.722586,100,0,1582559151.000175,41.20633889793534,29.07283516543905,180.1,0.9552344,336.924980888212,3,6.000906205260658,-9999,106241.5560415,0.9810333251953125,0.04608154296875,-0.043792724609375,106241.5500305,-2.920282679035081,1.531294703072149,-0.04132210448646557,-0.01366102043539286,0.06651510298252106,0.01720144599676132,-0.0187796950340271,0.005225419998168945,-0.007244110107421875,2,-0.6869736580792523,-0.09131469632506363,0.7179527217622622,-0.0653656240490042,0.9983668923377991,0.04131034761667252,-0.03945763781666756,36.67168426513672,3.072357177734375,18.61459350585938,2,106238.63966225,4,1,1582559148.811737,1582558685.643339,11,0.6387488,0,0,10.91,0,0,1582558765.788069,106238.92885,0,4.417953,99.31204
1582559151.731742,101,0,1582559151.000175,41.20633889793534,29.07283516543905,180.1,0.9552344,336.924980888212,3,6.000906205260658,-9999,106241.566067125,0.9826202392578125,0.0465850830078125,-0.043609619140625,106241.5600705,-2.920137716947487,1.531878584044492,-0.0411340753619474,-0.01449538860470057,0.05779192224144936,0.01991627179086208,-0.01736068725585938,0.004879333078861237,-0.005004167556762695,2,-0.6871854276322218,-0.091316400967794,0.7177415832133729,-0.06545589904841002,0.9983975291252136,0.04112247750163078,-0.03887500613927841,36.67168426513672,3.072357177734375,18.61459350585938,2,106238.63966225,4,1,1582559148.811737,1582558685.643339,11,0.6387488,0,0,10.91,0,0,1582558765.788069,106238.92885,0,4.417953,99.31204
1582559151.742855,102,0,1582559151.000175,41.20633889793534,29.07283516543905,180.1,0.9552344,336.924980888212,3,6.000906205260658,-9999,106241.576107125,0.981964111328125,0.0471954345703125,-0.0440673828125,106241.570095125,-2.919994358484625,1.532426985272477,-0.04090230317263107,-0.01406557857990265,0.05640361085534096,0.02531132102012634,-0.01638436317443848,0.005828168243169785,-0.006039679050445557,2,-0.6873865243329746,-0.09130083648296908,0.7175413422083619,-0.06556234891641358,0.9984282851219177,0.0408908985555172,-0.03832784667611122,36.77631378173828,2.900108337402344,18.67019653320312,2,106238.63966225,4,1,1582559148.811737,1582558685.643339,11,0.6387488,0,0,10.91,0,0,1582558765.788069,106238.92885,0,4.417953,99.31204
1582559151.760736,103,0,1582559151.000175,41.20633889793534,29.07283516543905,180.1,0.9552344,336.924980888212,3,6.000906205260658,-9999,106241.586147125,0.9826507568359375,0.0477294921875,-0.04083251953125,106241.580135125,-2.919860008471617,1.532918590430166,-0.04064442624018939,-0.01316436473280191,0.04864848032593727,0.02713638544082642,-0.01679515838623047,0.006665784865617752,-0.006164193153381348,2,-0.6875688270646619,-0.09127104532626737,0.7173599608367925,-0.06567717066277408,0.9984575510025024,0.04063323512673378,-0.03783740848302841,36.77631378173828,2.900108337402344,18.67019653320312,2,106238.63966225,4,1,1582559148.811737,1582558685.643339,11,0.6387488,0,0,10.91,0,0,1582558765.788069,106238.92885,0,4.417953,99.31204
1582559151.761933,104,0,1582559151.000175,41.20633889793534,29.07283516543905,180.1,0.9552344,336.924980888212,3,6.000906205260658,-9999,106241.596188125,0.984588623046875,0.0487518310546875,-0.038177490234375,106241.590176125,-2.919756991514729,1.533354541058793,-0.04037123882813053,-0.01049747504293919,0.04357462748885155,0.02817102149128914,-0.01628875732421875,0.007488179951906204,-0.003395140171051025,2,-0.6877332695765719,-0.0912232410300991,0.7171981695329506,-0.06578859397616885,0.9984849691390991,0.04036027193069458,-0.03740254044532776,36.76348114013672,3.000419616699219,18.625244140625,2,106238.63966225,4,1,1582559148.811737,1582558685.643339,11,0.6387488,0,0,10.91,0,0,1582558765.788069,106238.92885,0,4.417953,99.31204
1582559151.772465,105,0,1582559151.000175,41.20633889793534,29.07283516543905,180.1,0.9552344,336.924980888212,3,6.000906205260658,-9999,106241.606228125,0.979339599609375,0.0432586669921875,-0.0413818359375,106241.600216125,-2.919641768039972,1.533716395000107,-0.04007926117282186,-0.01125248149037361,0.03584400564432144,0.03288881108164787,-0.01422357559204102,0.008680317550897598,-0.001498162746429443,2,-0.6878714296398176,-0.09117052798638982,0.7170607194612146,-0.06591426322021074,0.9985100626945496,0.04006853327155113,-0.03704166039824486,36.76348114013672,3.000419616699219,18.625244140625,2,106238.63966225,4,1,1582559148.811737,1582558685.643339,11,0.6387488,0,0,10.91,0,0,1582558765.788069,106238.92885,0,4.417953,99.31204
1582559151.781947,106,0,1582559151.000175,41.20633889793534,29.07283516543905,180.1,0.9552344,336.924980888212,3,6.000906205260658,-9999,106241.616268125,0.975494384765625,0.037445068359375,-0.0506591796875,106241.610256125,-2.919473741440048,1.534114496303634,-0.03988366503579074,-0.01790840737521648,0.0373862236738205,0.0201499592512846,-0.02115839719772339,0.001063339412212372,-0.006991922855377197,2,-0.68801563284665,-0.0911716428505123,0.7169121844784021,-0.06602395856424872,0.9985325932502747,0.03987309336662292,-0.03664444014430046,36.76096343994141,2.888477325439453,18.88211059570312,2,106238.63966225,4,1,1582559148.811737,1582558685.643339,11,0.6387488,0,0,10.91,0,0,1582558765.788069,106238.92885,0,4.417953,99.31204
1582559151.792019,107,0,1582559151.000175,41.20633889793534,29.07283516543905,180.1,0.9552344,336.924980888212,3,6.000906205260658,-9999,106241.626308125,0.981231689453125,0.042205810546875,-0.0482177734375,106241.620296125,-2.919347785406945,1.534733023089943,-0.03977193620976746,-0.01053198613226414,0.06616434454917908,0.0114107970148325,-0.02333676815032959,-0.001251112669706345,-0.01604777574539185,2,-0.6882367959942802,-0.09119553331313893,0.716691698619618,-0.06607951805085384,0.9985595345497131,0.03976145014166832,-0.0360269732773304,36.76096343994141,2.888477325439453,18.88211059570312,2,106238.63966225,4,1,1582559148.811737,1582558685.643339,11,0.6387488,0,0,10.91,0,0,1582558765.788069,106238.92885,0,4.417953,99.31204
1582559151.802956,108,0,1582559151.000175,41.20633889793534,29.07283516543905,180.1,0.9552344,336.924980888212,3,6.000906205260658,-9999,106241.636349125,0.9881744384765625,0.0427398681640625,-0.0377960205078125,106241.630337125,-2.919206276617255,1.535301064200518,-0.03970024477234385,-0.01379754859954119,0.05669836699962616,0.007138363551348448,-0.01563894748687744,0.002619989216327667,-0.01072531938552856,2,-0.6884372217467167,-0.09123743116322239,0.7164892404856463,-0.06612909332959299,0.9985826015472412,0.0396898165345192,-0.03545984625816345,36.45191192626953,2.987125396728516,18.85943603515625,2,106238.63966225,4,1,1582559148.811737,1582558685.643339,11,0.6387488,0,0,10.91,0,0,1582558765.788069,106238.92885,0,4.417953,99.31204
1582559151.823416,109,0,1582559151.000175,41.20633889793534,29.07283516543905,180.1,0.9552344,336.924980888212,3,6.000906205260658,-9999,106241.646389125,0.9846649169921875,0.04541015625,-0.0378265380859375,106241.640377125,-2.919044484643374,1.53574361878439,-0.03962686581181003,-0.01680399104952812,0.04477113485336304,0.007266195956617594,-0.01112568378448486,0.003761455416679382,-0.002622544765472412,2,-0.688591796097349,-0.09128159659311467,0.7163292280768344,-0.06619223179551111,0.9986011385917664,0.03961649537086487,-0.03501801565289497,36.45191192626953,2.987125396728516,18.85943603515625,2,106238.63966225,4,1,1582559148.811737,1582558685.643339,11,0.6387488,0,0,10.91,0,0,1582558765.788069,106238.92885,0,4.417953,99.31204
1582559151.824546,110,0,1582559151.000175,41.20633889793534,29.07283516543905,180.1,0.9552344,336.924980888212,3,6.000906205260658,-9999,106241.656429125,0.980133056640625,0.045623779296875,-0.03863525390625,106241.650417125,-2.918888845542244,1.536073727484239,-0.03952556790058581,-0.01435910724103451,0.03155025094747543,0.01084800343960524,-0.01498651504516602,0.006075236946344376,-0.003623783588409424,2,-0.6887076563458402,-0.09130998340508152,0.7162071103624622,-0.06626791555384963,0.9986164569854736,0.03951527550816536,-0.03468850255012512,36.68662261962891,2.819751739501953,18.70855712890625,2,106238.63966225,4,1,1582559148.811737,1582558685.643339,11,0.6387488,0,0,10.91,0,0,1582558765.788069,106238.92885,0,4.417953,99.31204
1582559151.83218,111,0,1582559151.000175,41.20633889793534,29.07283516543905,180.1,0.9552344,336.924980888212,3,6.000906205260658,-9999,106241.666470125,0.9739532470703125,0.046905517578125,-0.0408477783203125,106241.660458125,-2.918707517231855,1.53639560707174,-0.03938782709694746,-0.01782867312431335,0.0338168665766716,0.01482889708131552,-0.02067935466766357,0.006441820412874222,-0.005516767501831055,2,-0.6888210743476674,-0.09133399899207828,0.7160859732956881,-0.06636581764817868,0.9986331462860107,0.03937764465808868,-0.03436725586652756,36.68662261962891,2.819751739501953,18.70855712890625,2,106238.63966225,4,1,1582559148.811737,1582558685.643339,11,0.6387488,0,0,10.91,0,0,1582558765.788069,106238.92885,0,4.417953,99.31204
1582559151.842276,112,0,1582559151.000175,41.20633889793534,29.07283516543905,180.1,0.9552344,336.924980888212,3,6.000906205260658,-9999,106241.676510125,0.973052978515625,0.0491180419921875,-0.041900634765625,106241.670498125,-2.918514402115033,1.536730610587445,-0.03917063810797346,-0.01766817644238472,0.03322335332632065,0.02303659543395042,-0.02555149793624878,0.008169569075107574,-0.00731581449508667,2,-0.6889423468168758,-0.09133422656679946,0.7159573917284785,-0.06649482909739911,0.9986532330513,0.03916062042117119,-0.03403300419449806,36.72589874267578,2.780071258544922,18.85415649414062,2,106238.63966225,4,1,1582559148.811737,1582558685.643339,11,0.6387488,0,0,10.91,0,0,1582558765.788069,106238.92885,0,4.417953,99.31204
1582559151.852314,113,0,1582559151.000175,41.20633889793534,29.07283516543905,180.1,0.9552344,336.924980888212,3,6.000906205260658,-9999,106241.686550125,0.9761962890625,0.045989990234375,-0.041168212890625,106241.680538125,-2.918298368633053,1.53711151085035,-0.03886757475256584,-0.02174680680036545,0.03667933493852615,0.0318593829870224,-0.02592736482620239,0.00993737205862999,-0.008855819702148438,2,-0.6890829966354695,-0.09131330269510177,0.7158092985035258,-0.06665962836221649,0.9986778497695923,0.03885778784751892,-0.03365300968289375,36.72589874267578,2.780071258544922,18.85415649414062,2,106238.63966225,4,1,1582559148.811737,1582558685.643339,11,0.6387488,0,0,10.91,0,0,1582558765.788069,106238.92885,0,4.417953,99.31204
1582559151.863376,114,0,1582559151.000175,41.20633889793534,29.07283516543905,180.1,0.9552344,336.924980888212,3,6.000906205260658,-9999,106241.696621125,0.97906494140625,0.04412841796875,-0.041046142578125,106241.690578125,-2.918113982410051,1.537557259459084,-0.0385243062614526,-0.01777645945549011,0.04376481473445892,0.03492166101932526,-0.02223235368728638,0.006786283105611801,-0.008125901222229004,2,-0.6892501402889802,-0.09126938454719508,0.7156386099295662,-0.06682408007585924,0.9987059831619263,0.03851477801799774,-0.03320828825235367,36.55315399169922,2.799365997314453,18.74151611328125,2,106238.63966225,4,1,1582559148.811737,1582558685.643339,11,0.6387488,0,0,10.91,0,0,1582558765.788069,106238.92885,0,4.417953,99.31204
1582559151.886744,115,0,1582559151.000175,41.20633889793534,29.07283516543905,180.1,0.9552344,336.924980888212,3,6.000906205260658,-9999,106241.706661125,0.981292724609375,0.042724609375,-0.0369110107421875,106241.700619125,-2.917960683248948,1.538030574611935,-0.03818385196320436,-0.01379450131207705,0.04792040586471558,0.03348834812641144,-0.01986545324325562,0.005600761622190475,-0.00839996337890625,2,-0.6894283861621798,-0.09121675435236654,0.7154594702691078,-0.06697519962110492,0.9987346529960632,0.0381745733320713,-0.03273600712418556,36.55315399169922,2.799365997314453,18.74151611328125,2,106238.63966225,4,1,1582559148.811737,1582558685.643339,11,0.6387488,0,0,10.91,0,0,1582558765.788069,106238.92885,0,4.417953,99.31204
1582559151.89075,116,0,1582559151.000175,41.20633889793534,29.07283516543905,180.1,0.9552344,336.924980888212,3,6.000906205260658,-9999,106241.716702125,0.9830780029296875,0.044525146484375,-0.033782958984375,106241.710659125,-2.917803220728745,1.538430228870595,-0.03783151358781931,-0.01495790667831898,0.04133216291666031,0.03428958728909492,-0.01740467548370361,0.00514429435133934,-0.004022955894470215,2,-0.6895806000835952,-0.09115893132185669,0.7153051301135154,-0.06713530836010032,0.9987610578536987,0.03782248869538307,-0.03233728930354118,36.51291656494141,3.047386169433594,18.86056518554688,2,106238.63966225,4,1,1582559148.811737,1582558685.643339,11,0.6387488,0,0,10.91,0,0,1582558765.788069,106238.92885,0,4.417953,99.31204
1582559151.892519,117,0,1582559151.000175,41.20633889793534,29.07283516543905,180.1,0.9552344,336.924980888212,3,6.000906205260658,-9999,106241.726742125,0.9833984375,0.0460662841796875,-0.035552978515625,106241.720699125,-2.917656101989258,1.538720526354564,-0.03742409044721991,-0.01433446072041988,0.02717879228293896,0.04139996320009232,-0.01590341329574585,0.007809907197952271,-0.001993119716644287,2,-0.6896967080291994,-0.0910743089565352,0.7151869852364732,-0.06731579589033077,0.998785674571991,0.03741535544395447,-0.03204784169793129,36.51291656494141,3.047386169433594,18.86056518554688,2,106238.63966225,4,1,1582559148.811737,1582558685.643339,11,0.6387488,0,0,10.91,0,0,1582558765.788069,106238.92885,0,4.417953,99.31204
1582559151.902481,118,0,1582559151.000175,41.20633889793534,29.07283516543905,180.1,0.9552344,336.924980888212,3,6.000906205260658,-9999,106241.736782125,0.98095703125,0.041961669921875,-0.0405731201171875,106241.730740125,-2.917557039095322,1.539060089327389,-0.03701282348252246,-0.007876611314713955,0.03376562893390656,0.0420236624777317,-0.01634156703948975,0.008388929069042206,-0.005460083484649658,2,-0.6898327629991811,-0.09097346197796569,0.7150533087603097,-0.06747822216699405,0.9988118410110474,0.03700437396764755,-0.03170917555689812,36.46959686279297,3.070934295654297,19.08819580078125,2,106238.63966225,4,1,1582559148.811737,1582558685.643339,11,0.6387488,0,0,10.91,0,0,1582558765.788069,106238.92885,0,4.417953,99.31204
1582559151.912503,119,0,1582559151.000175,41.20633889793534,29.07283516543905,180.1,0.9552344,336.924980888212,3,6.000906205260658,-9999,106241.746822125,0.9861297607421875,0.0395355224609375,-0.0356903076171875,106241.740780125,-2.917472124458828,1.539418545043559,-0.03661545397020536,-0.005825444124639034,0.03590281307697296,0.040418840944767,-0.01807647943496704,0.004605289548635483,-0.009342432022094727,2,-0.6899755275156154,-0.09087337260236875,0.714913935060734,-0.06762994064972537,0.9988377690315247,0.03660727292299271,-0.03135160356760025,36.46959686279297,3.070934295654297,19.08819580078125,2,106238.63966225,4,1,1582559148.811737,1582558685.643339,11,0.6387488,0,0,10.91,0,0,1582558765.788069,106238.92885,0,4.417953,99.31204
1582559151.923132,120,0,1582559151.000175,41.20633889793534,29.07283516543905,180.1,0.9552344,336.924980888212,3,6.000906205260658,-9999,106241.756863125,0.9873504638671875,0.037261962890625,-0.0320892333984375,106241.750820125,-2.917391584130683,1.539658646763524,-0.03626095884755685,-0.006277805659919977,0.02324243448674679,0.03677592426538467,-0.01190191507339478,0.002930305898189545,-0.003676950931549072,2,-0.6900741539131795,-0.09078309066068629,0.7148169592430442,-0.06777066787913205,0.9988582730293274,0.03625301271677017,-0.03111218474805355,36.47803497314453,2.971633911132812,18.96322631835938,2,106238.63966225,4,1,1582559148.811737,1582558685.643339,11,0.6387488,0,0,10.91,0,0,1582558765.788069,106238.92885,0,4.417953,99.31204
1582559151.941375,121,0,1582559151.000175,41.20633889793534,29.07283516543905,180.1,0.9552344,336.924980888212,3,6.000906205260658,-9999,106241.766903125,0.9813385009765625,0.032196044921875,-0.037322998046875,106241.760860125,-2.917307768134511,1.53981315838725,-0.03603751485459721,-0.007146262563765049,0.01541007496416569,0.02395679615437984,-0.01310479640960693,0.0004376396536827087,-0.002412021160125732,2,-0.6901359460486518,-0.09073769370643833,0.7147534085289965,-0.06787100224796834,0.9988709688186646,0.03602971509099007,-0.03095809370279312,36.47803497314453,2.971633911132812,18.96322631835938,2,106238.63966225,4,1,1582559148.811737,1582558685.643339,11,0.6387488,0,0,10.91,0,0,1582558765.788069,106238.92885,0,4.417953,99.31204
1582559151.942643,122,0,1582559151.000175,41.20633889793534,29.07283516543905,180.1,0.9552344,336.924980888212,3,6.000906205260658,-9999,106241.776943125,0.9797515869140625,0.0311126708984375,-0.037139892578125,106241.770901125,-2.917201701697415,1.539935153124509,-0.03600276026350988,-0.0105860373005271,0.0129135362803936,0.004281298257410526,-0.01913708448410034,-0.004624050110578537,-0.007813394069671631,2,-0.6901763410498865,-0.09076607045699549,0.7147066308369284,-0.06791542701960895,0.9988760352134705,0.03599498420953751,-0.03083627671003342,36.49695587158203,2.866500854492188,18.9693603515625,2,106238.63966225,4,1,1582559148.811737,1582558685.643339,11,0.6387488,0,0,10.91,0,0,1582558765.788069,106238.92885,0,4.417953,99.31204
1582559151.952577,123,0,1582559151.000175,41.20633889793534,29.07283516543905,180.1,0.9552344,336.924980888212,3,6.000906205260658,-9999,106241.786983125,0.979156494140625,0.0406494140625,-0.0342559814453125,106241.780941125,-2.91708243914401,1.539989319873889,-0.03607802340059463,-0.01304440107196569,0.003809254616498947,-0.006275471765547991,-0.01892250776290894,-0.003799032419919968,-0.005685627460479736,2,-0.6901867881626734,-0.09083585783599839,0.7146863557470193,-0.06792950892643,0.9988750219345093,0.03607019782066345,-0.03078208863735199,36.49695587158203,2.866500854492188,18.9693603515625,2,106241.780514125,2,0,1582559151.952589,1582558685.643339,11,0.6387488,0,0,10.91,0,0,1582558765.788069,106238.92885,0,4.417953,99.31204
1582559151.962697,124,0,1582559151.000175,41.20633889793534,29.07283516543905,180.1,0.9552344,336.924980888212,3,6.000906205260658,-9999,106241.797024125,0.980926513671875,0.0391082763671875,-0.0334930419921875,106241.790981125,-2.916988594884151,1.539988581009368,-0.03620408288576754,-0.007936453446745872,0.003099272027611732,-0.0108055230230093,-0.02125257253646851,0.005779515951871872,-0.004174411296844482,2,-0.6901764023412221,-0.09091308938249187,0.7146875537262618,-0.06791939870709382,0.9988704919815063,0.03619617596268654,-0.03078268840909004,36.53238677978516,2.660839080810547,19.00399780273438,2,106241.780514125,2,0,1582559151.952589,1582558685.643339,11,0.6387488,0,0,10.91,0,0,1582558765.788069,106238.92885,0,4.417953,99.31204
1582559151.972976,125,0,1582559151.000175,41.20633889793534,29.07283516543905,180.1,0.9552344,336.924980888212,3,6.000906205260658,-9999,106241.807064125,0.9849700927734375,0.035430908203125,-0.033447265625,106241.801052125,-2.916861198362888,1.539776287390168,-0.03642266726157634,-0.01456026826053858,-0.02501199021935463,-0.02058092132210732,-0.01647722721099854,0.0006781741976737976,-0.001780569553375244,2,-0.6900845770347313,-0.09102763747635161,0.7147635213737068,-0.06789881838355913,0.9988558888435364,0.03641461580991745,-0.03099449165165424,36.53238677978516,2.660839080810547,19.00399780273438,2,106241.780514125,2,0,1582559151.952589,1582558685.643339,11,0.6387488,0,0,10.91,0,0,1582558765.788069,106238.92885,0,4.417953,99.31204
1582559151.999048,126,0,1582559151.000175,41.20633889793534,29.07283516543905,180.1,0.9552344,336.924980888212,3,6.000906205260658,-9999,106241.817104125,0.978546142578125,0.03826904296875,-0.0368804931640625,106241.811092125,-2.916749779532212,1.539518912295772,-0.03669323064264422,-0.01233934983611107,-0.02405178546905518,-0.02374458312988281,-0.01555901765823364,-0.0003705434501171112,-0.00433117151260376,2,-0.6899749122558215,-0.0911536585980383,0.714857334951956,-0.06785661621316776,0.9988380074501038,0.03668499737977982,-0.03125126287341118,36.56124114990234,2.684959411621094,18.81680297851562,2,106241.780514125,2,0,1582559151.952589,1582558685.643339,11,0.6387488,0,0,10.91,0,0,1582558765.788069,106238.92885,0,4.417953,99.31204
1582559151.999946,127,0,1582559151.000175,41.20633889793534,29.07283516543905,180.1,0.9552344,336.924980888212,3,6.000906205260658,-9999,106241.827145125,0.9710693359375,0.034637451171875,-0.031890869140625,106241.821133125,-2.916711899703815,1.539150326759753,-0.03713019587667202,-0.005594628397375345,-0.03753750026226044,-0.04280402511358261,-0.02171111106872559,0.0005506351590156555,-0.004298806190490723,2,-0.6898210354877177,-0.09130981579867917,0.7149975127475088,-0.06773562467535726,0.9988105297088623,0.03712166473269463,-0.03161891177296638,36.64723968505859,2.756385803222656,18.91946411132812,2,106241.780514125,2,0,1582559151.952589,1582558685.643339,11,0.6387488,0,0,10.91,0,0,1582558765.788069,106238.92885,0,4.417953,99.31204
1582559152.002906,128,0,1582559151.000175,41.20633889793534,29.07283516543905,180.1,0.9552344,336.924980888212,3,6.000906205260658,-9999,106241.837185125,0.9577178955078125,0.0387725830078125,-0.040008544921875,106241.831173125,-2.916783786432956,1.538762399212528,-0.03776010049435485,0.004873442929238081,-0.04052900522947311,-0.06342649459838867,-0.03029632568359375,-0.00334448367357254,-0.0009212493896484375,2,-0.6896561716958023,-0.09149619980898402,0.7151540760248488,-0.06750946078131961,0.9987745881080627,0.03775112703442574,-0.03200561925768852,36.64723968505859,2.756385803222656,18.91946411132812,2,106241.780514125,2,0,1582559151.952589,1582558685.643339,11,0.6387488,0,0,10.91,0,0,1582558765.788069,106238.92885,0,4.417953,99.31204
1582559152.012953,129,0,1582559151.000175,41.20633889793534,29.07283516543905,180.1,0.9552344,336.924980888212,3,6.000906205260658,-9999,106241.847225125,0.9456939697265625,0.043548583984375,-0.054595947265625,106241.841213125,-2.917003373929625,1.538703899110763,-0.03855220539791612,0.01921962574124336,-0.009232066571712494,-0.07895751297473907,-0.04466861486434937,0.001921351999044418,-0.01127052307128906,2,-0.6896081992933679,-0.09170057006906286,0.7152070091449397,-0.06715923965715585,0.9987423419952393,0.03854265809059143,-0.0320630744099617,36.52985382080078,2.798851013183594,18.96881103515625,2,106241.780514125,2,0,1582559151.952589,1582558685.643339,11,0.6387488,0,0,10.91,0,0,1582558765.788069,106238.92885,0,4.417953,99.31204
1582559152.023655,130,0,1582559151.000175,41.20633889793534,29.07283516543905,180.1,0.9552344,336.924980888212,3,6.000906205260658,-9999,106241.857265125,0.9486236572265625,0.03759765625,-0.0679473876953125,106241.851254125,-2.917367799619557,1.539479718998135,-0.03955737159255004,0.03290461748838425,0.07799838483333588,-0.1011504977941513,-0.05406862497329712,0.0033884197473526,-0.0264664888381958,2,-0.6898551300321397,-0.09195870894299155,0.7149837806455022,-0.06664509027468385,0.9987276792526245,0.03954705595970154,-0.03128699213266373,36.52985382080078,2.798851013183594,18.96881103515625,2,106241.780514125,2,0,1582559151.952589,1582558685.643339,11,0.6387488,0,0,10.91,0,0,1582558765.788069,106238.92885,0,4.417953,99.31204
1582559152.033071,131,0,1582559151.000175,41.20633889793534,29.07283516543905,180.1,0.9552344,336.924980888212,3,6.000906205260658,-9999,106241.867306125,0.961669921875,0.0360565185546875,-0.0618438720703125,106241.861294125,-2.917823659848747,1.541165682238685,-0.04082194124682899,0.04362543672323227,0.1746090948581696,-0.1287453770637512,-0.04854565858840942,-0.003994487226009369,-0.03991711139678955,2,-0.6904191170592621,-0.09230724657907222,0.7144574019650509,-0.06596615340499669,0.9987283945083618,0.04081060364842415,-0.02960162982344627,36.46935272216797,2.804241180419922,18.9815673828125,2,106241.780514125,2,0,1582559151.952589,1582558685.643339,11,0.6387488,0,0,10.91,0,0,1582558765.788069,106238.92885,0,4.417953,99.31204
1582559152.058449,132,0,1582559151.000175,41.20633889793534,29.07283516543905,180.1,0.9552344,336.924980888212,3,6.000906205260658,-9999,106241.877346125,0.97906494140625,0.042083740234375,-0.03753662109375,106241.871334125,-2.918224890960037,1.543205778436637,-0.04222202234856996,0.03525079041719437,0.2090533971786499,-0.142641082406044,-0.03368395566940308,-0.005775477737188339,-0.03011661767959595,2,-0.6911000756834076,-0.09273324404404995,0.7138099348213164,-0.06524260837226084,0.9987285137176514,0.04220947995781898,-0.0275624617934227,36.46935272216797,2.804241180419922,18.9815673828125,2,106241.780514125,2,0,1582559151.952589,1582558685.643339,11,0.6387488,0,0,10.91,0,0,1582558765.788069,106238.92885,0,4.417953,99.31204
1582559152.061048,133,0,1582559151.000175,41.20633889793534,29.07283516543905,180.1,0.9552344,336.924980888212,3,6.000906205260658,-9999,106241.887386125,0.9853515625,0.052337646484375,-0.0217742919921875,106241.881374125,-2.918580577509788,1.54507028065851,-0.04355975194741301,0.03127389028668404,0.1895249783992767,-0.1344489306211472,-0.01739519834518433,0.0009593144059181213,-0.008406341075897217,2,-0.6917184788911236,-0.09314580748498491,0.7132186817869304,-0.06456433140890247,0.9987208843231201,0.04354597628116608,-0.02569880895316601,36.47748565673828,3.0943603515625,19.16763305664062,2,106241.780514125,2,0,1582559151.952589,1582558685.643339,11,0.6387488,0,0,10.91,0,0,1582558765.788069,106238.92885,0,4.417953,99.31204
1582559152.063141,134,0,1582559151.000175,41.20633889793534,29.07283516543905,180.1,0.9552344,336.924980888212,3,6.000906205260658,-9999,106241.897427125,0.964752197265625,0.0473480224609375,-0.0305023193359375,106241.891415125,-2.918946403905565,1.546673726532515,-0.04490546336256061,0.03452837094664574,0.1565834283828735,-0.1346648335456848,-0.01580417156219482,0.007747232913970947,0.003280282020568848,2,-0.6922432908348136,-0.09354813672729528,0.7127172399361756,-0.06389109716808414,0.9987012147903442,0.04489037394523621,-0.02409594506025314,36.47748565673828,3.0943603515625,19.16763305664062,2,106241.780514125,2,0,1582559151.952589,1582558685.643339,11,0.6387488,0,0,10.91,0,0,1582558765.788069,106238.92885,0,4.417953,99.31204
1582559152.073308,135,0,1582559151.000175,41.20633889793534,29.07283516543905,180.1,0.9552344,336.924980888212,3,6.000906205260658,-9999,106241.907467125,0.94189453125,0.0466766357421875,-0.0632476806640625,106241.901455125,-2.919247473485161,1.548750141797021,-0.04629948250382882,0.0261418092995882,0.2065978497266769,-0.1392393410205841,-0.04058414697647095,-0.0004513822495937347,-0.01553475856781006,2,-0.6929306404771611,-0.09400393127695968,0.7120505870590746,-0.06320125067115125,0.9986856579780579,0.04628294333815575,-0.02202077768743038,36.40079498291016,3.079963684082031,19.39801025390625,2,106241.780514125,2,0,1582559151.952589,1582558685.643339,11,0.6387488,0,0,10.91,0,0,1582558765.788069,106238.92885,0,4.417953,99.31204
1582559152.083204,136,0,1582559151.000175,41.20633889793534,29.07283516543905,180.1,0.9552344,336.924980888212,3,6.000906205260658,-9999,106241.917507125,0.9602203369140625,0.050262451171875,-0.0525054931640625,106241.911495125,-2.919474045389803,1.551659792364347,-0.04766340155963043,0.02075594663619995,0.2977630794048309,-0.1354380398988724,-0.05725789070129395,0.0001997202634811401,-0.04702311754226685,2,-0.6939113865212615,-0.09449958368612799,0.7110903241582885,-0.06250806963207137,0.9986813068389893,0.04764535650610924,-0.01911363191902637,36.40079498291016,3.079963684082031,19.39801025390625,2,106241.780514125,2,0,1582559151.952589,1582558685.643339,11,0.6387488,0,0,10.91,0,0,1582558765.788069,106238.92885,0,4.417953,99.31204
1582559152.093337,137,0,1582559151.000175,41.20633889793534,29.07283516543905,180.1,0.9552344,336.924980888212,3,6.000906205260658,-9999,106241.927547125,0.997467041015625,0.0496063232421875,-0.017974853515625,106241.921535125,-2.919577342844828,1.554688306123313,-0.0489958898336409,0.008159726858139038,0.3076487481594086,-0.1333378702402115,-0.03116971254348755,0.001340106129646301,-0.02971023321151733,2,-0.6949284323812348,-0.09502881828961249,0.7100824261650313,-0.06186270033958369,0.9986703991889954,0.04897628724575043,-0.01608799584209919,36.41358184814453,3.188465118408203,19.55892944335938,2,106241.780514125,2,0,1582559151.952589,1582558685.643339,11,0.6387488,0,0,10.91,0,0,1582558765.788069,106238.92885,0,4.417953,99.31204
1582559152.121533,138,0,1582559151.000175,41.20633889793534,29.07283516543905,180.1,0.9552344,336.924980888212,3,6.000906205260658,-9999,106241.937588125,1.008331298828125,0.0532379150390625,-0.0085296630859375,106241.931576125,-2.919571997193203,1.55728391489613,-0.05028928234556084,-0.003317641792818904,0.2560858726501465,-0.1291860640048981,0.003417372703552246,-0.0006389319896697998,-9.310245513916016e-05,2,-0.6957869536919106,-0.09556702190298955,0.7092187191296151,-0.0612886985622722,0.9986446499824524,0.05026808753609657,-0.01349491905421019,36.41358184814453,3.188465118408203,19.55892944335938,2,106241.780514125,2,0,1582559151.952589,1582558685.643339,11,0.6387488,0,0,10.91,0,0,1582558765.788069,106238.92885,0,4.417953,99.31204
1582559152.125178,139,0,1582559151.000175,41.20633889793534,29.07283516543905,180.1,0.9552344,336.924980888212,3,6.000906205260658,-9999,106241.947659125,0.98944091796875,0.061981201171875,-0.0156097412109375,106241.941616125,-2.919506386130241,1.559664108035924,-0.0514848023039934,-0.007637555245310068,0.2401234358549118,-0.1191006749868393,0.006867051124572754,0.003552921116352081,0.0005342364311218262,2,-0.6965696504389711,-0.09608383217601386,0.7084239578040239,-0.06077936138065974,0.9986130595207214,0.05146206170320511,-0.01111723855137825,35.89485931396484,3.159503936767578,19.63177490234375,2,106241.780514125,2,0,1582559151.952589,1582558685.643339,11,0.6387488,0,0,10.91,0,0,1582558765.788069,106238.92885,0,4.417953,99.31204
1582559152.126099,140,0,1582559151.000175,41.20633889793534,29.07283516543905,180.1,0.9552344,336.924980888212,3,6.000906205260658,-9999,106241.957699125,0.9873199462890625,0.0579986572265625,-0.01171875,106241.951656125,-2.919339162134057,1.561884995162176,-0.05254767856916733,-0.01721327751874924,0.2232146710157394,-0.1061604619026184,-0.01208204030990601,0.009845715016126633,-0.006980061531066895,2,-0.6972963303138678,-0.09658349209212544,0.7076766626650044,-0.06035903538541962,0.9985800385475159,0.05252349749207497,-0.008898913860321045,35.89485931396484,3.159503936767578,19.63177490234375,2,106241.780514125,2,0,1582559151.952589,1582558685.643339,11,0.6387488,0,0,10.91,0,0,1582558765.788069,106238.92885,0,4.417953,99.31204
1582559152.133733,141,0,1582559152.000154,41.20634209369721,29.07284160714472,180.1476,0.23065,336.5756576933009,3,6.000906205260658,-9999,106241.967739125,0.9848480224609375,0.06195068359375,-0.00958251953125,106241.961697125,-2.919129064768077,1.563994701666563,-0.05350902694072457,-0.01961651258170605,0.2134294211864471,-0.09707003086805344,-0.01149821281433105,0.003788866102695465,-0.004907011985778809,2,-0.6979855120944163,-0.09705825944725921,0.7069630355697115,-0.05999387240472981,0.9985457062721252,0.053483497351408,-0.006791838444769382,36.01531219482422,3.483200073242188,19.8489990234375,2,106241.780514125,2,0,1582559151.952589,1582558685.643339,11,0.6387488,0,0,10.91,0,0,1582558765.788069,106238.92885,0,4.417953,99.31204
1582559152.143522,142,0,1582559152.000154,41.20634209369721,29.07284160714472,180.1476,0.23065,336.5756576933009,3,6.000906205260658,-9999,106241.977779125,0.9884490966796875,0.0697021484375,0.004486083984375,106241.971737125,-2.91891011546938,1.5658191771971,-0.054295660988694,-0.02195980958640575,0.1833419352769852,-0.07848449051380157,-0.01465576887130737,0.009793158620595932,-0.003098487854003906,2,-0.6985811068156202,-0.09746558205070535,0.7063428146113383,-0.05970619503629108,0.9985141158103943,0.05426898598670959,-0.004969795234501362,36.01531219482422,3.483200073242188,19.8489990234375,2,106241.780514125,2,0,1582559151.952589,1582558685.643339,11,0.6387488,0,0,10.91,0,0,1582558765.788069,106238.92885,0,4.417953,99.31204
1582559152.155778,143,0,1582559152.000154,41.20634209369721,29.07284160714472,180.1476,0.23065,336.5756576933009,3,6.000906205260658,-9999,106241.987820125,0.994598388671875,0.07159423828125,0.012969970703125,106241.981777125,-2.918716667791104,1.567062717350574,-0.05479472377516212,-0.01971156895160675,0.1245158985257149,-0.04944511502981186,-0.008347392082214355,0.01509295776486397,0.01042962074279785,2,-0.698986296739751,-0.09774537452721642,0.7059173166197954,-0.05953836100738906,0.9984922409057617,0.05476730689406395,-0.003727997420355678,35.96167755126953,3.461250305175781,20.06903076171875,2,106241.780514125,2,0,1582559151.952589,1582558685.643339,11,0.6387488,0,0,10.91,0,0,1582558765.788069,106238.92885,0,4.417953,99.31204
1582559152.177516,144,0,1582559152.000154,41.20634209369721,29.07284160714472,180.1476,0.23065,336.5756576933009,3,6.000906205260658,-9999,106241.997860125,0.99609375,0.0726165771484375,0.0126953125,106241.991817125,-2.918603367777922,1.567669973949236,-0.05499417338111637,-0.01169248390942812,0.06298033893108368,-0.01906329020857811,-0.004279673099517822,0.01715199649333954,0.0160331130027771,2,-0.6991852886315922,-0.09787298754440127,0.7057074416594097,-0.05947846402778026,0.9984831809997559,0.05496645718812943,-0.00312162097543478,35.96167755126953,3.461250305175781,20.06903076171875,2,106241.780514125,2,0,1582559151.952589,1582558685.643339,11,0.6387488,0,0,10.91,0,0,1582558765.788069,106238.92885,0,4.417953,99.31204
1582559152.178407,145,0,1582559152.000154,41.20634209369721,29.07284160714472,180.1476,0.23065,336.5756576933009,3,6.000906205260658,-9999,106242.007900125,0.9928436279296875,0.0687713623046875,0.007843017578125,106242.001858125,-2.918583030147047,1.56774811290668,-0.05493873219384566,-0.001461950945667922,0.008549593389034271,0.005716891027987003,-0.002573966979980469,0.01705481857061386,0.01442933082580566,2,-0.6992145799366012,-0.09786299599453464,0.7056780288888203,-0.059501356847225,0.9984866976737976,0.05491109937429428,-0.00304361036978662,35.79161834716797,3.1719970703125,20.07806396484375,2,106241.780514125,2,0,1582559151.952589,1582558685.643339,11,0.6387488,0,0,10.91,0,0,1582558765.788069,106238.92885,0,4.417953,99.31204
1582559152.183641,146,0,1582559152.000154,41.20634209369721,29.07284160714472,180.1476,0.23065,336.5756576933009,3,6.000906205260658,-9999,106242.017941125,0.9847869873046875,0.0671234130859375,0.004852294921875,106242.011898125,-2.918659960577758,1.567463983204125,-0.05470721485805891,0.008666655980050564,-0.0289315227419138,0.02279328554868698,-0.008109390735626221,0.01383759453892708,0.01025760173797607,2,-0.6991294281540009,-0.09774644087761049,0.7057727192954518,-0.05956952257052403,0.9984983801841736,0.05467993021011353,-0.003327351994812489,35.79161834716797,3.1719970703125,20.07806396484375,2,106241.780514125,2,0,1582559151.952589,1582558685.643339,11,0.6387488,0,0,10.91,0,0,1582558765.788069,106238.92885,0,4.417953,99.31204
1582559152.193687,147,0,1582559152.000154,41.20634209369721,29.07284160714472,180.1476,0.23065,336.5756576933009,3,6.000906205260658,-9999,106242.027981125,0.982696533203125,0.0587005615234375,-0.009185791015625,106242.021938125,-2.91878730925283,1.567016036140205,-0.05441434722269244,0.01367899123579264,-0.04581596329808235,0.03047410771250725,-0.01514297723770142,0.01161245256662369,0.006005346775054932,2,-0.698991888860271,-0.09758584021531307,0.7059243681088472,-0.05964943805314125,0.9985126852989197,0.05438749864697456,-0.003774686250835657,35.93212127685547,2.974933624267578,20.06033325195312,2,106241.780514125,2,0,1582559151.952589,1582558685.643339,11,0.6387488,0,0,10.91,0,0,1582558765.788069,106238.92885,0,4.417953,99.31204
1582559152.206026,148,0,1582559152.000154,41.20634209369721,29.07284160714472,180.1476,0.23065,336.5756576933009,3,6.000906205260658,-9999,106242.038021125,0.9842376708984375,0.0513763427734375,-0.015960693359375,106242.031979125,-2.918910320151776,1.566682372028015,-0.05418795356963135,0.01130800228565931,-0.03258756175637245,0.02336369082331657,-0.01603895425796509,0.002179808914661407,-0.008050382137298584,2,-0.6988911714069421,-0.09745346700198863,0.7060379697376231,-0.05970189702954486,0.9985237121582031,0.054161436855793,-0.004107904620468616,35.93212127685547,2.974933624267578,20.06033325195312,2,106241.780514125,2,0,1582559151.952589,1582558685.643339,11,0.6387488,0,0,10.91,0,0,1582558765.788069,106238.92885,0,4.417953,99.31204
1582559152.213725,149,0,1582559152.000154,41.20634209369721,29.07284160714472,180.1476,0.23065,336.5756576933009,3,6.000906205260658,-9999,106242.048061125,0.9879150390625,0.0566253662109375,-0.0097198486328125,106242.042019125,-2.919052436059711,1.566471886590255,-0.05402412536200206,0.01440685708075762,-0.01831195317208767,0.01536089275032282,-0.01435315608978271,-0.002112090587615967,-0.01171553134918213,2,-0.6988317796410569,-0.09734004638848202,0.7061110252833505,-0.05971960086710773,0.9985318779945374,0.05399784818291664,-0.004318118095397949,35.98810577392578,3.109844207763672,19.90835571289062,2,106241.780514125,2,0,1582559151.952589,1582558685.643339,11,0.6387488,0,0,10.91,0,0,1582558765.788069,106238.92885,0,4.417953,99.31204
1582559152.234665,150,0,1582559152.000154,41.20634209369721,29.07284160714472,180.1476,0.23065,336.5756576933009,3,6.000906205260658,-9999,106242.058102125,0.99298095703125,0.0552520751953125,-0.0072479248046875,106242.052090125,-2.919176719906425,1.566189541537074,-0.05386669016474421,0.0121836019679904,-0.02855522558093071,0.01646429859101772,-0.009462416172027588,0.003416266292333603,-0.004139900207519531,2,-0.6987458162777922,-0.09723292039634934,0.7062085864703953,-0.0597447603748024,0.9985389113426208,0.05384064465761185,-0.004600086715072393,35.98810577392578,3.109844207763672,19.90835571289062,2,106241.780514125,2,0,1582559151.952589,1582558685.643339,11,0.6387488,0,0,10.91,0,0,1582558765.788069,106238.92885,0,4.417953,99.31204
1582559152.235429,151,0,1582559152.000154,41.20634209369721,29.07284160714472,180.1476,0.23065,336.5756576933009,3,6.000906205260658,-9999,106242.068142125,0.99310302734375,0.0513916015625,-0.009918212890625,106242.062130125,-2.919268166833386,1.565891879814206,-0.05373517553352803,0.008528147824108601,-0.0275791771709919,0.01512233167886734,-0.005928099155426025,0.0004196055233478546,-0.004117250442504883,2,-0.6986515547086425,-0.09714592482033679,0.7063114999100045,-0.05977317855141948,0.9985446929931641,0.05370932072401047,-0.004897348582744598,35.99240875244141,3.208930969238281,19.969970703125,2,106241.780514125,2,0,1582559151.952589,1582558685.643339,11,0.6387488,0,0,10.91,0,0,1582558765.788069,106238.92885,0,4.417953,99.31204
1582559152.243895,152,0,1582559152.000154,41.20634209369721,29.07284160714472,180.1476,0.23065,336.5756576933009,3,6.000906205260658,-9999,106242.078182125,0.9932098388671875,0.0450439453125,-0.006378173828125,106242.072170125,-2.919284052065738,1.565396584015501,-0.05370764594996971,0.002006181515753269,-0.05243371427059174,0.00501475902274251,-0.005591452121734619,-0.003047171980142593,-0.003546476364135742,2,-0.6984787314579671,-0.0971158924055751,0.7064840463969106,-0.05980126801829594,0.9985434412956238,0.05368182808160782,-0.005391930229961872,35.99240875244141,3.208930969238281,19.969970703125,2,106241.780514125,2,0,1582559151.952589,1582558685.643339,11,0.6387488,0,0,10.91,0,0,1582558765.788069,106238.92885,0,4.417953,99.31204
1582559152.256309,153,0,1582559152.000154,41.20634209369721,29.07284160714472,180.1476,0.23065,336.5756576933009,3,6.000906205260658,-9999,106242.088223125,0.9847564697265625,0.050201416015625,-0.021270751953125,106242.082211125,-2.919246244664348,1.565019674278179,-0.05389252416474277,-0.003509225090965629,-0.03595380485057831,-0.01794781535863876,-0.00750201940536499,-0.009335387498140335,-0.004131197929382324,2,-0.6983347304479697,-0.09718275356218996,0.7066200225136062,-0.0597679844918524,0.9985314607620239,0.0538664385676384,-0.005768233444541693,36.00460052490234,3.109279632568359,19.85623168945312,2,106241.780514125,2,0,1582559151.952589,1582558685.643339,11,0.6387488,0,0,10.91,0,0,1582558765.788069,106238.92885,0,4.417953,99.31204
1582559152.26397,154,0,1582559152.000154,41.20634209369721,29.07284160714472,180.1476,0.23065,336.5756576933009,3,6.000906205260658,-9999,106242.098263125,0.990081787109375,0.0530242919921875,-0.0113372802734375,106242.092251125,-2.919235532386466,1.564775326300885,-0.05423619662621028,-0.0005436923238448799,-0.0271907951682806,-0.03263037651777267,-0.01372283697128296,-0.002522334456443787,-0.01488888263702393,2,-0.6982311038890244,-0.09729989951404641,0.7067151501921276,-0.05966292183195614,0.9985113739967346,0.05420961230993271,-0.006012110039591789,36.00460052490234,3.109279632568359,19.85623168945312,2,106241.780514125,2,0,1582559151.952589,1582558685.643339,11,0.6387488,0,0,10.91,0,0,1582558765.788069,106238.92885,0,4.417953,99.31204
1582559152.274469,155,0,1582559152.000154,41.20634209369721,29.07284160714472,180.1476,0.23065,336.5756576933009,3,6.000906205260658,-9999,106242.108303125,0.9833526611328125,0.0523223876953125,-0.0196990966796875,106242.102291125,-2.919257729056179,1.564698341311784,-0.05472307626510739,0.002064341213554144,-0.006473800167441368,-0.04814542084932327,-0.009484410285949707,-0.00216948613524437,-0.006068885326385498,2,-0.6981811865088382,-0.09746087032222586,0.7067570675680531,-0.05948781741673298,0.9984844326972961,0.05469576641917229,-0.006088819354772568,35.98865509033203,3.172355651855469,19.8692626953125,2,106242.101894125,4,1,1582559152.273969,1582558685.643339,11,0.6387488,0,0,10.91,0,0,1582558765.788069,106238.92885,0,4.417953,99.31204
1582559152.30578,156,0,1582559152.000154,41.20634209369721,29.07284160714472,180.1476,0.23065,336.5756576933009,3,6.000906205260658,-9999,106242.118343125,0.9813385009765625,0.0566864013671875,-0.0164337158203125,106242.112331125,-2.91926705350693,1.56480253087456,-0.05530891083819307,1.397283995174803e-05,0.01164605095982552,-0.05916303768754005,-0.01615136861801147,-0.00240374356508255,-0.01474857330322266,2,-0.6981897771913118,-0.09766646306926673,0.7067381565373426,-0.05927365216915889,0.9984527826309204,0.05528071522712708,-0.005984594114124775,35.98865509033203,3.172355651855469,19.8692626953125,2,106242.101894125,4,1,1582559152.273969,1582558685.643339,11,0.6387488,0,0,10.91,0,0,1582558765.788069,106238.92885,0,4.417953,99.31204
1582559152.30882,157,0,1582559152.000154,41.20634209369721,29.07284160714472,180.1476,0.23065,336.5756576933009,3,6.000906205260658,-9999,106242.128384125,0.9735107421875,0.0625762939453125,-0.0164947509765625,106242.122372125,-2.919299689907653,1.565033622870184,-0.05592539210295556,0.003612702246755362,0.02483002841472626,-0.06160169467329979,-0.01897186040878296,0.001985326409339905,-0.01067656278610229,2,-0.6982427855858272,-0.09787840091726527,0.7066765116770921,-0.05903425814181834,0.9984198808670044,0.05589624494314194,-0.005753661971539259,35.96134185791016,3.223434448242188,19.89431762695312,2,106242.101894125,4,1,1582559152.273969,1582558685.643339,11,0.6387488,0,0,10.91,0,0,1582558765.788069,106238.92885,0,4.417953,99.31204
1582559152.309591,158,0,1582559152.000154,41.20634209369721,29.07284160714472,180.1476,0.23065,336.5756576933009,3,6.000906205260658,-9999,106242.138424125,0.987030029296875,0.0606842041015625,-0.00726318359375,106242.132412125,-2.919371419486209,1.565337738277201,-0.05656155890502833,0.006353037897497416,0.03387071192264557,-0.06399022042751312,-0.02478182315826416,0.005988568067550659,-0.01082772016525269,2,-0.6983224754955768,-0.09808569675134873,0.7065911261708779,-0.05877052774753724,0.998386025428772,0.0565314032137394,-0.005449832417070866,35.96134185791016,3.223434448242188,19.89431762695312,2,106242.101894125,4,1,1582559152.273969,1582558685.643339,11,0.6387488,0,0,10.91,0,0,1582558765.788069,106238.92885,0,4.417953,99.31204
1582559152.314158,159,0,1582559152.000154,41.20634209369721,29.07284160714472,180.1476,0.23065,336.5756576933009,3,6.000906205260658,-9999,106242.148464125,1.001602172851562,0.0634613037109375,0.0068817138671875,106242.142452125,-2.919467549748844,1.565331177276957,-0.05712515954011387,0.009508351795375347,0.002258721739053726,-0.05593469738960266,-0.0076751708984375,0.003548759967088699,0.0007750988006591797,2,-0.6982971255232708,-0.09824978951655948,0.7066124416574563,-0.05853880031607514,0.9983537197113037,0.05709409713745117,-0.005456206854432821,35.87584686279297,3.272506713867188,19.84109497070312,2,106242.101894125,4,1,1582559152.273969,1582558685.643339,11,0.6387488,0,0,10.91,0,0,1582558765.788069,106238.92885,0,4.417953,99.31204
1582559152.324187,160,0,1582559152.000154,41.20634209369721,29.07284160714472,180.1476,0.23065,336.5756576933009,3,6.000906205260658,-9999,106242.158504125,0.998748779296875,0.06427001953125,0.0090484619140625,106242.152493125,-2.919559012369311,1.564710887663667,-0.05759016505688149,0.009056557901203632,-0.06280529499053955,-0.04687816649675369,0.003844857215881348,0.006593853235244751,0.01457834243774414,2,-0.6980594943751955,-0.09836302901106918,0.7068453217598714,-0.05837364743701277,0.9983237981796265,0.0575583353638649,-0.006075313780456781,35.87584686279297,3.272506713867188,19.84109497070312,2,106242.101894125,4,1,1582559152.273969,1582558685.643339,11,0.6387488,0,0,10.91,0,0,1582558765.788069,106238.92885,0,4.417953,99.31204
