loggingTime,loggingSample,identifierForVendor,locationTimestamp_since1970,locationLatitude,locationLongitude,locationAltitude,locationSpeed,locationCourse,locationVerticalAccuracy,locationHorizontalAccuracy,locationFloor,accelerometerTimestamp_sinceReboot,accelerometerAccelerationX,accelerometerAccelerationY,accelerometerAccelerationZ,motionTimestamp_sinceReboot,motionYaw,motionRoll,motionPitch,motionRotationRateX,motionRotationRateY,motionRotationRateZ,motionUserAccelerationX,motionUserAccelerationY,motionUserAccelerationZ,motionAttitudeReferenceFrame,motionQuaternionX,motionQuaternionY,motionQuaternionZ,motionQuaternionW,motionGravityX,motionGravityY,motionGravityZ,motionMagneticFieldX,motionMagneticFieldY,motionMagneticFieldZ,motionMagneticFieldCalibrationAccuracy,activityTimestamp_sinceReboot,activity,activityActivityConfidence,activityActivityStartDate,pedometerStartDate,pedometerNumberofSteps,pedometerAverageActivePace,pedometerCurrentPace,pedometerCurrentCadence,pedometerDistance,pedometerFloorAscended,pedometerFloorDescended,pedometerEndDate,altimeterTimestamp_sinceReboot,altimeterReset,altimeterRelativeAltitude,altimeterPressure
1582559300.893685,1,0,1582559299.998886,41.20592214438152,29.07252297474292,178.6905,0.1630881,3.189844124246055,3,6.000906205260658,-9999,106390.682086625,0.97418212890625,0.1087646484375,-0.0655670166015625,106390.676043625,2.205242982347746,1.519332478380889,-0.1122161917649615,-0.02025106735527515,0.04845283925533295,-0.002294187899678946,-0.01776057481765747,-0.002644598484039307,-0.0157005786895752,2,0.6319543779139809,-0.2739979332781259,-0.6285981645740909,-0.3611415939413948,0.9923948049545288,0.1119808256626129,-0.05111759528517723,26.16985321044922,22.84420776367188,1.20941162109375,2,106388.6286745417,4,2,1582559298.800749,1582558685.643339,11,0.6387488,0,0,10.91,0,0,1582558765.788069,106387.776208,0,5.004547,99.30508
1582559300.895699,2,0,1582559299.998886,41.20592214438152,29.07252297474292,178.6905,0.1630881,3.189844124246055,3,6.000906205260658,-9999,106390.692126625,0.9759063720703125,0.1077880859375,-0.060028076171875,106390.686083625,2.205443387721495,1.519823940265991,-0.1121961794468415,-0.01940172910690308,0.04863316565752029,0.005932492204010487,-0.01971065998077393,-0.003952264785766602,-0.01455593109130859,2,0.6321333730775515,-0.2740299468914053,-0.6284824620356827,-0.3610052807842926,0.9924219846725464,0.1119609400629997,-0.05062997341156006,26.21167755126953,22.79580688476562,1.250885009765625,2,106388.6286745417,4,2,1582559298.800749,1582558685.643339,11,0.6387488,0,0,10.91,0,0,1582558765.788069,106387.776208,0,5.004547,99.30508
1582559300.89731,3,0,1582559299.998886,41.20592214438152,29.07252297474292,178.6905,0.1630881,3.189844124246055,3,6.000906205260658,-9999,106390.702182375,0.9896697998046875,0.112457275390625,-0.0444488525390625,106390.696140375,2.205554817158478,1.51997144225689,-0.112219736057376,-0.01295155100524426,0.01902680285274982,-0.001641537994146347,-0.01381039619445801,-0.00354844331741333,-0.008034586906433105,2,0.6321984290600523,-0.2740135374059884,-0.6284518722298525,-0.3609570737473669,0.9924268126487732,0.1119843497872353,-0.05048345401883125,26.21167755126953,22.79580688476562,1.250885009765625,2,106388.6286745417,4,2,1582559298.800749,1582558685.643339,11,0.6387488,0,0,10.91,0,0,1582558765.788069,106387.776208,0,5.004547,99.30508
1582559300.898594,4,0,1582559299.998886,41.20592214438152,29.07252297474292,178.6905,0.1630881,3.189844124246055,3,6.000906205260658,-9999,106390.712222375,0.976287841796875,0.1097259521484375,-0.0586700439453125,106390.706180375,2.205575894892295,1.519695331208989,-0.1122580063771657,-0.005908812396228313,-0.0293845534324646,-0.003198753343895078,-0.003187298774719238,0.0002129673957824707,0.006292819976806641,2,0.6321201323878698,-0.273944355929956,-0.628536336970775,-0.3609996889171384,0.9924085736274719,0.112022377550602,-0.05075725540518761,25.94255828857422,23.01702880859375,1.347442626953125,2,106388.6286745417,4,2,1582559298.800749,1582558685.643339,11,0.6387488,0,0,10.91,0,0,1582558765.788069,106387.776208,0,5.004547,99.30508
1582559300.918517,5,0,1582559299.998886,41.20592214438152,29.07252297474292,178.6905,0.1630881,3.189844124246055,3,6.000906205260658,-9999,106390.722263375,0.9696044921875,0.109405517578125,-0.065032958984375,106390.716220375,2.205598313356899,1.519437939770382,-0.1122974941372667,-0.004857663065195084,-0.02481377124786377,-0.003458145307376981,-0.01981699466705322,-0.002603411674499512,-0.01162517070770264,2,0.6320480853494914,-0.2738776873551284,-0.62861484237654,-0.3610396000858443,0.9923909902572632,0.112061619758606,-0.05101246014237404,25.94255828857422,23.01702880859375,1.347442626953125,2,106388.6286745417,4,2,1582559298.800749,1582558685.643339,11,0.6387488,0,0,10.91,0,0,1582558765.788069,106387.776208,0,5.004547,99.30508
1582559300.91956,6,0,1582559299.998886,41.20592214438152,29.07252297474292,178.6905,0.1630881,3.189844124246055,3,6.000906205260658,-9999,106390.732303375,0.968231201171875,0.110595703125,-0.0647735595703125,106390.726260375,2.205609639869748,1.519231366861653,-0.1123227062914864,-0.000898496771696955,-0.01941565424203873,-0.003053907537832856,-0.02308416366577148,-0.002475857734680176,-0.01383113861083984,2,0.6319883988285873,-0.2738284291356631,-0.6286777526852216,-0.3610717811159237,0.9923775196075439,0.1120866686105728,-0.05121731013059616,25.98188018798828,22.92858123779297,1.19696044921875,2,106388.6286745417,4,2,1582559298.800749,1582558685.643339,11,0.6387488,0,0,10.91,0,0,1582558765.788069,106387.776208,0,5.004547,99.30508
1582559300.920282,7,0,1582559299.998886,41.20592214438152,29.07252297474292,178.6905,0.1630881,3.189844124246055,3,6.000906205260658,-9999,106390.742343375,0.966766357421875,0.10992431640625,-0.0655670166015625,106390.736331375,2.205670716956766,1.519070949725108,-0.1122953673564961,-0.006987015716731548,-0.01670162752270699,0.003361913375556469,-0.02507781982421875,-0.001441597938537598,-0.0141901969909668,2,0.6319423188617982,-0.2737892809235468,-0.628744287624556,-0.3610664954586326,0.9923725128173828,0.1120595037937164,-0.05137667059898376,25.98188018798828,22.92858123779297,1.19696044921875,2,106388.6286745417,4,2,1582559298.800749,1582558685.643339,11,0.6387488,0,0,10.91,0,0,1582558765.788069,106387.776208,0,5.004547,99.30508
1582559300.921172,8,0,1582559299.998886,41.20592214438152,29.07252297474292,178.6905,0.1630881,3.189844124246055,3,6.000906205260658,-9999,106390.752384375,0.9687347412109375,0.111175537109375,-0.064910888671875,106390.746372375,2.205715603320444,1.518964108209126,-0.1122451734171791,-0.003483540145680308,-0.00887409970164299,0.005460937041789293,-0.02588653564453125,-0.002002030611038208,-0.01435846090316772,2,0.6319075516053976,-0.2737724488652875,-0.6287948091865022,-0.3610520355519296,0.9923725724220276,0.1120096296072006,-0.05148298665881157,26.20084381103516,22.96086883544922,1.32586669921875,2,106388.6286745417,4,2,1582559298.800749,1582558685.643339,11,0.6387488,0,0,10.91,0,0,1582558765.788069,106387.776208,0,5.004547,99.30508
1582559300.926955,9,0,1582559299.998886,41.20592214438152,29.07252297474292,178.6905,0.1630881,3.189844124246055,3,6.000906205260658,-9999,106390.762424375,0.97308349609375,0.1086578369140625,-0.06378173828125,106390.756412375,2.205742581109914,1.51890556455073,-0.1121907838051098,-0.002593777840957046,-0.003661494702100754,0.005696893204003572,-0.02347868680953979,-0.001062929630279541,-0.01388806104660034,2,0.6318848977793077,-0.2737713969287708,-0.628827579982505,-0.3610353643339772,0.9923756122589111,0.1119555756449699,-0.05154139548540115,26.20084381103516,22.96086883544922,1.32586669921875,2,106388.6286745417,4,2,1582559298.800749,1582558685.643339,11,0.6387488,0,0,10.91,0,0,1582558765.788069,106387.776208,0,5.004547,99.30508
1582559300.937164,10,0,1582559299.998886,41.20592214438152,29.07252297474292,178.6905,0.1630881,3.189844124246055,3,6.000906205260658,-9999,106390.772464375,0.9735870361328125,0.1087799072265625,-0.063751220703125,106390.766452375,2.205790260125089,1.518846921515042,-0.1121276119668321,-0.003531587077304721,-0.006295995786786079,0.006145656108856201,-0.01867616176605225,-0.003441572189331055,-0.01196789741516113,2,0.6318637621281151,-0.2737667021578583,-0.6288656375215076,-0.3610095833748829,0.9923796057701111,0.1118928045034409,-0.05159995704889297,26.22621917724609,23.10885620117188,1.349029541015625,2,106388.6286745417,4,2,1582559298.800749,1582558685.643339,11,0.6387488,0,0,10.91,0,0,1582558765.788069,106387.776208,0,5.004547,99.30508
1582559300.947209,11,0,1582559299.998886,41.20592214438152,29.07252297474292,178.6905,0.1630881,3.189844124246055,3,6.000906205260658,-9999,106390.782504375,0.9744720458984375,0.10955810546875,-0.0628204345703125,106390.776492375,2.205851053212398,1.518827120097473,-0.1120638338595232,-0.005780094303190708,0.0005318168550729752,0.006661777384579182,-0.02033025026321411,-0.002874612808227539,-0.0132906436920166,2,0.6318565361789833,-0.2737650950714692,-0.6288939284939224,-0.3609742180100116,0.9923857450485229,0.1118294224143028,-0.05161998048424721,26.22621917724609,23.10885620117188,1.349029541015625,2,106388.6286745417,4,2,1582559298.800749,1582558685.643339,11,0.6387488,0,0,10.91,0,0,1582558765.788069,106387.776208,0,5.004547,99.30508
1582559300.957051,12,0,1582559299.998886,41.20592214438152,29.07252297474292,178.6905,0.1630881,3.189844124246055,3,6.000906205260658,-9999,106390.792545375,0.9789276123046875,0.11065673828125,-0.058135986328125,106390.786533375,2.205854866312536,1.51870739671585,-0.1120172611388972,0.0002279323234688491,-0.01332025416195393,0.0042075808160007,-0.01691132783889771,-0.001851737499237061,-0.009784102439880371,2,0.6318126187204859,-0.2737577131544935,-0.6289404544016677,-0.360975495442964,0.992384672164917,0.1117831468582153,-0.05173905938863754,26.13091278076172,23.06484222412109,1.35162353515625,2,106388.6286745417,4,2,1582559298.800749,1582558685.643339,11,0.6387488,0,0,10.91,0,0,1582558765.788069,106387.776208,0,5.004547,99.30508
1582559300.982506,13,0,1582559299.998886,41.20592214438152,29.07252297474292,178.6905,0.1630881,3.189844124246055,3,6.000906205260658,-9999,106390.802585375,0.9742279052734375,0.11004638671875,-0.0619659423828125,106390.796573375,2.205840368957135,1.51852303329915,-0.1119689262137868,0.0001736038248054683,-0.01719009317457676,0.004550862591713667,-0.0148928165435791,-0.001162797212600708,-0.007281064987182617,2,0.631745574245369,-0.2737450932792564,-0.6290045165980342,-0.3609909841358957,0.992380678653717,0.111735112965107,-0.05192230641841888,26.13091278076172,23.06484222412109,1.35162353515625,2,106388.6286745417,4,2,1582559298.800749,1582558685.643339,11,0.6387488,0,0,10.91,0,0,1582558765.788069,106387.776208,0,5.004547,99.30508
1582559300.983816,14,0,1582559299.998886,41.20592214438152,29.07252297474292,178.6905,0.1630881,3.189844124246055,3,6.000906205260658,-9999,106390.812625375,0.973175048828125,0.108795166015625,-0.0641937255859375,106390.806613375,2.205790584408664,1.518349099746726,-0.1119308847443891,0.005831347312778234,-0.01632284000515938,0.004319272469729185,-0.01917588710784912,-0.001857370138168335,-0.01090788841247559,2,0.6316785110351949,-0.273742019251573,-0.6290569947318813,-0.3610190671546853,0.9923757314682007,0.1116973087191582,-0.05209513008594513,26.13645172119141,22.9493408203125,1.26055908203125,2,106388.6286745417,4,2,1582559298.800749,1582558685.643339,11,0.6387488,0,0,10.91,0,0,1582558765.788069,106387.776208,0,5.004547,99.30508
1582559300.987332,15,0,1582559299.998886,41.20592214438152,29.07252297474292,178.6905,0.1630881,3.189844124246055,3,6.000906205260658,-9999,106390.822666375,0.97259521484375,0.1078643798828125,-0.0662078857421875,106390.816654375,2.205751327223631,1.518230977728931,-0.1119143279743966,0.004673138726502657,-0.00965401902794838,0.001694460865110159,-0.01982766389846802,-0.003290534019470215,-0.01286578178405762,2,0.6316335655092992,-0.2737385878023227,-0.6290900754411466,-0.3610426512283129,0.9923714399337769,0.1116808578372002,-0.05221245065331459,26.13645172119141,22.9493408203125,1.26055908203125,2,106388.6286745417,4,2,1582559298.800749,1582558685.643339,11,0.6387488,0,0,10.91,0,0,1582558765.788069,106387.776208,0,5.004547,99.30508
1582559301.000101,16,0,1582559299.998886,41.20592214438152,29.07252297474292,178.6905,0.1630881,3.189844124246055,3,6.000906205260658,-9999,106390.832706375,0.9733428955078125,0.1083526611328125,-0.066192626953125,106390.826694375,2.205723065714955,1.518160522008847,-0.1119065055679303,0.001980260014533997,-0.004158943891525269,0.0003454466350376606,-0.02028250694274902,-0.003664255142211914,-0.01432138681411743,2,0.6316063732381734,-0.2737374272164323,-0.6291086529084217,-0.3610589367950569,0.992368757724762,0.111673079431057,-0.0522824190557003,26.02780914306641,23.02521514892578,1.384979248046875,2,106388.6286745417,4,2,1582559298.800749,1582558685.643339,11,0.6387488,0,0,10.91,0,0,1582558765.788069,106387.776208,0,5.004547,99.30508
1582559301.007344,17,0,1582559299.998886,41.20592214438152,29.07252297474292,178.6905,0.1630881,3.189844124246055,3,6.000906205260658,-9999,106390.842746375,0.974822998046875,0.10833740234375,-0.0641937255859375,106390.836734375,2.205691011663981,1.51807132807039,-0.1119145078273709,0.002600244013592601,-0.00680985301733017,-0.001517168246209621,-0.01923930644989014,-0.003397524356842041,-0.01424819231033325,2,0.6315751093972019,-0.273728770876234,-0.6291296072660421,-0.3610835644630025,0.9923630952835083,0.1116810366511345,-0.05237088352441788,26.02780914306641,23.02521514892578,1.384979248046875,2,106388.6286745417,4,2,1582559298.800749,1582558685.643339,11,0.6387488,0,0,10.91,0,0,1582558765.788069,106387.776208,0,5.004547,99.30508
1582559301.017396,18,0,1582559299.998886,41.20592214438152,29.07252297474292,178.6905,0.1630881,3.189844124246055,3,6.000906205260658,-9999,106390.852786375,0.9676055908203125,0.1097412109375,-0.065826416015625,106390.846774375,2.205711647835897,1.517965102524599,-0.111900767891985,-0.001192847499623895,-0.009703127667307854,0.001879498828202486,-0.01833492517471313,-0.003170192241668701,-0.01182293891906738,2,0.6315424905122776,-0.2737076730856295,-0.629169328328912,-0.361087601979213,0.9923592209815979,0.1116673797369003,-0.05247638374567032,26.09546661376953,22.83716583251953,1.4031982421875,2,106388.6286745417,4,2,1582559298.800749,1582558685.643339,11,0.6387488,0,0,10.91,0,0,1582558765.788069,106387.776208,0,5.004547,99.30508
1582559301.046862,19,0,1582559299.998886,41.20592214438152,29.07252297474292,178.6905,0.1630881,3.189844124246055,3,6.000906205260658,-9999,106390.862827375,0.9599456787109375,0.1114349365234375,-0.071441650390625,106390.856815375,2.205766354892936,1.517973342672468,-0.1118321847282881,-0.005136989057064056,0.0002304613590240479,0.008662836626172066,-0.02748298645019531,-0.001591384410858154,-0.01520293951034546,2,0.6315425434360971,-0.2737146507018988,-0.6291884700815633,-0.3610488605336462,0.9923673272132874,0.1115992292761803,-0.05246861279010773,26.09546661376953,22.83716583251953,1.4031982421875,2,106388.6286745417,4,2,1582559298.800749,1582558685.643339,11,0.6387488,0,0,10.91,0,0,1582558765.788069,106387.776208,0,5.004547,99.30508
1582559301.048954,20,0,1582559299.998886,41.20592214438152,29.07252297474292,178.6905,0.1630881,3.189844124246055,3,6.000906205260658,-9999,106390.872867375,0.9671173095703125,0.1113433837890625,-0.0679931640625,106390.866855375,2.205783946841419,1.518173871659996,-0.1117357093477924,0.0006769329193048179,0.0229196809232235,0.009998136200010777,-0.03270751237869263,0.0004576146602630615,-0.01978111267089844,2,0.6315939586164833,-0.2737772596787081,-0.6291449035823827,-0.3609870570831092,0.9923883080482483,0.1115033552050591,-0.05227016657590866,26.15859222412109,23.023193359375,1.1048583984375,2,106388.6286745417,4,2,1582559298.800749,1582558685.643339,11,0.6387488,0,0,10.91,0,0,1582558765.788069,106387.776208,0,5.004547,99.30508
1582559301.050113,21,0,1582559299.998886,41.20592214438152,29.07252297474292,178.6905,0.1630881,3.189844124246055,3,6.000906205260658,-9999,106390.882907375,0.9723968505859375,0.1095428466796875,-0.064483642578125,106390.876895375,2.20580873875223,1.518402291798241,-0.1116277865889314,-0.001808595145121217,0.02248478680849075,0.01075287628918886,-0.02363717555999756,-0.00064048171043396,-0.01520049571990967,2,0.6316534067805726,-0.2738465128355904,-0.6290959973215562,-0.3609159615114776,0.9924123883247375,0.1113961040973663,-0.05204412341117859,26.15859222412109,23.023193359375,1.1048583984375,2,106390.876468375,2,0,1582559301.048543,1582558685.643339,11,0.6387488,0,0,10.91,0,0,1582558765.788069,106387.776208,0,5.004547,99.30508
1582559301.057517,22,0,1582559299.998886,41.20592214438152,29.07252297474292,178.6905,0.1630881,3.189844124246055,3,6.000906205260658,-9999,106390.892978375,0.9749298095703125,0.10858154296875,-0.0629425048828125,106390.886936375,2.205796986289388,1.518646833736274,-0.1115259618087276,0.001976412488147616,0.02782698906958103,0.01055047661066055,-0.02064001560211182,-0.001897275447845459,-0.01307779550552368,2,0.631713847695706,-0.273928103267333,-0.6290341842302353,-0.3608557854929003,0.9924362897872925,0.1112949103116989,-0.05180201679468155,26.28426361083984,22.80055999755859,1.090972900390625,2,106390.876468375,2,0,1582559301.048543,1582558685.643339,11,0.6387488,0,0,10.91,0,0,1582558765.788069,106387.776208,0,5.004547,99.30508
1582559301.067557,23,0,1582559299.998886,41.20592214438152,29.07252297474292,178.6905,0.1630881,3.189844124246055,3,6.000906205260658,-9999,106390.903018375,0.979034423828125,0.1074371337890625,-0.06109619140625,106390.896976375,2.205785105223959,1.518814083200908,-0.1114597495456148,0.001127662952058017,0.01691974513232708,0.007006075233221054,-0.0167345404624939,-0.003113210201263428,-0.01104617118835449,2,0.6317551393278673,-0.2739840062743263,-0.6289906812050345,-0.3608169173734502,0.9924523234367371,0.1112291067838669,-0.05163641646504402,26.28426361083984,22.80055999755859,1.090972900390625,2,106390.876468375,2,0,1582559301.048543,1582558685.643339,11,0.6387488,0,0,10.91,0,0,1582558765.788069,106387.776208,0,5.004547,99.30508
1582559301.077983,24,0,1582559299.998886,41.20592214438152,29.07252297474292,178.6905,0.1630881,3.189844124246055,3,6.000906205260658,-9999,106390.913059375,0.9789886474609375,0.106689453125,-0.0609130859375,106390.907016375,2.205773183912498,1.518941522263524,-0.1114308222559483,0.001608570571988821,0.01347453147172928,0.00280083017423749,-0.01366204023361206,-0.004198342561721802,-0.01011967658996582,2,0.6317893505574009,-0.2740203692902657,-0.6289532991838936,-0.3607946166721354,0.992462158203125,0.111200362443924,-0.05151010677218437,26.20940399169922,22.8359375,1.226806640625,2,106390.876468375,2,0,1582559301.048543,1582558685.643339,11,0.6387488,0,0,10.91,0,0,1582558765.788069,106387.776208,0,5.004547,99.30508
1582559301.109295,25,0,1582559299.998886,41.20592214438152,29.07252297474292,178.6905,0.1630881,3.189844124246055,3,6.000906205260658,-9999,106390.923099375,0.9754180908203125,0.1085968017578125,-0.0620269775390625,106390.917056375,2.205776992931776,1.519021952099516,-0.1114086743117313,-0.0007227605092339218,0.008166052401065826,0.001937699504196644,-0.0143553614616394,-0.004328936338424683,-0.009726524353027344,2,0.6318119285106046,-0.2740410216068363,-0.6289324087805659,-0.3607758028553769,0.9924687147140503,0.1111783534288406,-0.05143041163682938,26.20940399169922,22.8359375,1.226806640625,2,106390.876468375,2,0,1582559301.048543,1582558685.643339,11,0.6387488,0,0,10.91,0,0,1582558765.788069,106387.776208,0,5.004547,99.30508
1582559301.110573,26,0,1582559299.998886,41.20592214438152,29.07252297474292,178.6905,0.1630881,3.189844124246055,3,6.000906205260658,-9999,106390.933139375,0.97723388671875,0.109405517578125,-0.06060791015625,106390.927097375,2.20577022184842,1.519079091730216,-0.111380778707698,0.0009214194724336267,0.008673993870615959,0.002894109580665827,-0.01809984445571899,-0.001936107873916626,-0.01135468482971191,2,0.6318248863010119,-0.2740627321131162,-0.6289179841611027,-0.3607618195178032,0.9924747943878174,0.1111506298184395,-0.05137386545538902,26.21561431884766,23.09129333496094,1.33306884765625,2,106390.876468375,2,0,1582559301.048543,1582558685.643339,11,0.6387488,0,0,10.91,0,0,1582558765.788069,106387.776208,0,5.004547,99.30508
1582559301.111774,27,0,1582559299.998886,41.20592214438152,29.07252297474292,178.6905,0.1630881,3.189844124246055,3,6.000906205260658,-9999,106390.943179375,0.9771728515625,0.10845947265625,-0.060577392578125,106390.937137375,2.205752903678884,1.519050529501061,-0.1113620097210451,0.001372026279568672,-0.00100632943212986,0.002571867313235998,-0.01506394147872925,-0.001993745565414429,-0.009190022945404053,2,0.6318107829380623,-0.2740692870698144,-0.6289271507990127,-0.3607656124669672,0.9924754500389099,0.1111319735646248,-0.05140231922268867,26.21561431884766,23.09129333496094,1.33306884765625,2,106390.876468375,2,0,1582559301.048543,1582558685.643339,11,0.6387488,0,0,10.91,0,0,1582558765.788069,106387.776208,0,5.004547,99.30508
1582559301.117736,28,0,1582559299.998886,41.20592214438152,29.07252297474292,178.6905,0.1630881,3.189844124246055,3,6.000906205260658,-9999,106390.953220375,0.9731903076171875,0.1089324951171875,-0.06378173828125,106390.947177375,2.205729070620897,1.518990161822194,-0.1113558111975646,0.002044732449576259,-0.004092760384082794,0.0007766755297780037,-0.01646554470062256,-0.002719998359680176,-0.01021361351013184,2,0.6317876402493068,-0.2740679572771578,-0.6289429426415305,-0.3607794790197793,0.9924729466438293,0.1111258193850517,-0.05146226659417152,26.22809600830078,23.08776092529297,1.246429443359375,2,106390.876468375,2,0,1582559301.048543,1582558685.643339,11,0.6387488,0,0,10.91,0,0,1582558765.788069,106387.776208,0,5.004547,99.30508
1582559301.127815,29,0,1582559299.998886,41.20592214438152,29.07252297474292,178.6905,0.1630881,3.189844124246055,3,6.000906205260658,-9999,106390.963260375,0.973663330078125,0.108367919921875,-0.0632171630859375,106390.957218375,2.205703768447208,1.518975120922242,-0.1113509949164062,0.002665781648829579,0.002236507833003998,0.0003614886663854122,-0.02006638050079346,-0.002196401357650757,-0.01302152872085571,2,0.6317787403648104,-0.2740748317230119,-0.6289439572850646,-0.3607880570104151,0.9924727082252502,0.1111210286617279,-0.05147721990942955,26.22809600830078,23.08776092529297,1.246429443359375,2,106390.876468375,2,0,1582559301.048543,1582558685.643339,11,0.6387488,0,0,10.91,0,0,1582558765.788069,106387.776208,0,5.004547,99.30508
1582559301.13781,30,0,1582559299.998886,41.20592214438152,29.07252297474292,178.6905,0.1630881,3.189844124246055,3,6.000906205260658,-9999,106390.973300375,0.9736175537109375,0.1088104248046875,-0.061737060546875,106390.967258375,2.205681192765867,1.518924855596868,-0.1113437608776447,0.00360616878606379,-0.004764828830957413,0.000825952272862196,-0.01893550157546997,-0.003028452396392822,-0.01150673627853394,2,0.6317587752863787,-0.2740753079990785,-0.6289570404738192,-0.3607999189296905,0.9924709796905518,0.1111138388514519,-0.05152714997529984,26.09732818603516,23.04901123046875,1.31854248046875,2,106390.876468375,2,0,1582559301.048543,1582558685.643339,11,0.6387488,0,0,10.91,0,0,1582558765.788069,106387.776208,0,5.004547,99.30508
1582559301.149881,31,0,1582559300.998879,41.20592372835273,29.07252323632774,178.6898,0.04199315,1.350439602928946,3,6.000906205260658,-9999,106390.983341375,0.9670867919921875,0.110137939453125,-0.0657958984375,106390.977298375,2.205683405280405,1.518869122993872,-0.1113199981336167,0.0008537918329238892,-0.005791211500763893,0.001862987410277128,-0.02027797698974609,-0.00222662091255188,-0.011252760887146,2,0.6317380740900407,-0.2740724444317729,-0.6289791681106066,-0.3607997997191272,0.9924707412719727,0.1110902279615402,-0.05158260092139244,26.09732818603516,23.04901123046875,1.31854248046875,2,106390.876468375,2,0,1582559301.048543,1582558685.643339,11,0.6387488,0,0,10.91,0,0,1582558765.788069,106387.776208,0,5.004547,99.30508
1582559301.157746,32,0,1582559300.998879,41.20592372835273,29.07252323632774,178.6898,0.04199315,1.350439602928946,3,6.000906205260658,-9999,106390.993381375,0.9638824462890625,0.1102142333984375,-0.0697784423828125,106390.987369375,2.205713887119569,1.518899938560671,-0.1112512674464957,-0.00338369351811707,0.001256603747606277,0.007184929680079222,-0.0270620584487915,-0.0007392466068267822,-0.01552504301071167,2,0.6317418988341974,-0.2740911659496265,-0.6289868030120004,-0.3607655062400447,0.9924799203872681,0.1110219210386276,-0.05155241116881371,25.95729827880859,23.1300048828125,1.242340087890625,2,106390.876468375,2,0,1582559301.048543,1582558685.643339,11,0.6387488,0,0,10.91,0,0,1582558765.788069,106387.776208,0,5.004547,99.30508
1582559301.167759,33,0,1582559300.998879,41.20592372835273,29.07252323632774,178.6898,0.04199315,1.350439602928946,3,6.000906205260658,-9999,106391.003421375,0.969024658203125,0.10791015625,-0.0679473876953125,106390.997409375,2.205736086437948,1.519120698376679,-0.1111716122790538,-0.001325336284935474,0.02339093387126923,0.007772955577820539,-0.02877604961395264,-0.0010567307472229,-0.01922285556793213,2,0.6318027180270528,-0.2741503991589437,-0.6289348607358246,-0.3607045598424225,0.9925001263618469,0.1109427586197853,-0.05133376643061638,25.95729827880859,23.1300048828125,1.242340087890625,2,106390.876468375,2,0,1582559301.048543,1582558685.643339,11,0.6387488,0,0,10.91,0,0,1582558765.788069,106387.776208,0,5.004547,99.30508
1582559301.177782,34,0,1582559300.998879,41.20592372835273,29.07252323632774,178.6898,0.04199315,1.350439602928946,3,6.000906205260658,-9999,106391.013461375,0.973114013671875,0.107696533203125,-0.06494140625,106391.007449375,2.205763176355978,1.519430760020949,-0.1110951077462786,-0.001830627676099539,0.03140383213758469,0.007652408443391323,-0.0226055383682251,-0.00320848822593689,-0.01624977588653564,2,0.6318927371258918,-0.2742231474798694,-0.6288550598179522,-0.3606307879976272,0.9925245046615601,0.1108667254447937,-0.05102646723389626,26.10282135009766,23.09735107421875,1.304534912109375,2,106390.876468375,2,0,1582559301.048543,1582558685.643339,11,0.6387488,0,0,10.91,0,0,1582558765.788069,106387.776208,0,5.004547,99.30508
1582559301.188293,35,0,1582559300.998879,41.20592372835273,29.07252323632774,178.6898,0.04199315,1.350439602928946,3,6.000906205260658,-9999,106391.023502375,0.976898193359375,0.1075286865234375,-0.06170654296875,106391.017490375,2.205797216971642,1.51975254252326,-0.1110392075653223,-0.004089521244168282,0.03257455676794052,0.005569017492234707,-0.01956111192703247,-0.003030836582183838,-0.01440232992172241,2,0.6319904005263951,-0.2742889545048061,-0.6287692108216241,-0.3605593270188486,0.9925470948219299,0.1108111664652824,-0.05070740729570389,26.10282135009766,23.09735107421875,1.304534912109375,2,106390.876468375,2,0,1582559301.048543,1582558685.643339,11,0.6387488,0,0,10.91,0,0,1582558765.788069,106387.776208,0,5.004547,99.30508
1582559301.197924,36,0,1582559300.998879,41.20592372835273,29.07252323632774,178.6898,0.04199315,1.350439602928946,3,6.000906205260658,-9999,106391.033542375,0.980072021484375,0.1083221435546875,-0.058074951171875,106391.027530375,2.205843937071762,1.519969365914314,-0.1110000059051283,-0.006086955312639475,0.02175038121640682,0.004517040681093931,-0.01512086391448975,-0.003312289714813232,-0.01083320379257202,2,0.6320592518445908,-0.2743262563935543,-0.6287158584458408,-0.3605031822448341,0.9925623536109924,0.1107722073793411,-0.05049241334199905,26.07128143310547,22.77951812744141,1.337493896484375,2,106390.876468375,2,0,1582559301.048543,1582558685.643339,11,0.6387488,0,0,10.91,0,0,1582558765.788069,106387.776208,0,5.004547,99.30508
1582559301.207978,37,0,1582559300.998879,41.20592372835273,29.07252323632774,178.6898,0.04199315,1.350439602928946,3,6.000906205260658,-9999,106391.043582375,0.9766387939453125,0.1095123291015625,-0.06085205078125,106391.037570375,2.205864688752368,1.520098289344211,-0.11096376918295,-0.00119898933917284,0.01325969211757183,0.004438477102667093,-0.01319360733032227,-0.002101272344589233,-0.008428037166595459,2,0.6320973194757185,-0.2743549713643867,-0.6286851659699373,-0.3604682232739255,0.9925729036331177,0.1107361912727356,-0.0503646582365036,26.07128143310547,22.77951812744141,1.337493896484375,2,106390.876468375,2,0,1582559301.048543,1582558685.643339,11,0.6387488,0,0,10.91,0,0,1582558765.788069,106387.776208,0,5.004547,99.30508
1582559301.218469,38,0,1582559300.998879,41.20592372835273,29.07252323632774,178.6898,0.04199315,1.350439602928946,3,6.000906205260658,-9999,106391.053623375,0.975830078125,0.109405517578125,-0.059722900390625,106391.047611375,2.205863339997518,1.520222624221862,-0.1109330263292121,0.000587289163377136,0.01448727585375309,0.003134287893772125,-0.01698750257492065,-0.001323133707046509,-0.01120662689208984,2,0.6321317474303966,-0.2743879547237708,-0.6286508554702268,-0.360442334147143,0.992582380771637,0.1107056364417076,-0.05024140700697899,26.04482269287109,23.04758453369141,1.453399658203125,2,106390.876468375,2,0,1582559301.048543,1582558685.643339,11,0.6387488,0,0,10.91,0,0,1582558765.788069,106387.776208,0,5.004547,99.30508
1582559301.228007,39,0,1582559300.998879,41.20592372835273,29.07252323632774,178.6898,0.04199315,1.350439602928946,3,6.000906205260658,-9999,106391.063663375,0.977203369140625,0.108001708984375,-0.0607452392578125,106391.057651375,2.205846164487667,1.520287128620363,-0.1109030352014334,0.001971866702660918,0.007475970312952995,0.002854921855032444,-0.01699405908584595,-0.001506894826889038,-0.01004987955093384,2,0.6321452839986963,-0.2744149504886921,-0.6286325600938172,-0.3604299443038418,0.9925889372825623,0.1106758341193199,-0.05017754808068275,26.04482269287109,23.04758453369141,1.453399658203125,2,106390.876468375,2,0,1582559301.048543,1582558685.643339,11,0.6387488,0,0,10.91,0,0,1582558765.788069,106387.776208,0,5.004547,99.30508
1582559301.238033,40,0,1582559300.998879,41.20592372835273,29.07252323632774,178.6898,0.04199315,1.350439602928946,3,6.000906205260658,-9999,106391.073703375,0.9775848388671875,0.106781005859375,-0.0607452392578125,106391.067691375,2.205823371530648,1.520312567802681,-0.1108996067733137,0.00254044309258461,0.00493895448744297,-0.0001776935532689095,-0.01563775539398193,-0.003090411424636841,-0.01128053665161133,2,0.6321496428040043,-0.2744278928251975,-0.6286210393893991,-0.360432632977871,0.9925906658172607,0.1106724292039871,-0.05015232041478157,26.10805511474609,23.19166564941406,1.231597900390625,2,106390.876468375,2,0,1582559301.048543,1582558685.643339,11,0.6387488,0,0,10.91,0,0,1582558765.788069,106387.776208,0,5.004547,99.30508
1582559301.248122,41,0,1582559300.998879,41.20592372835273,29.07252323632774,178.6898,0.04199315,1.350439602928946,3,6.000906205260658,-9999,106391.083743375,0.9757537841796875,0.108428955078125,-0.0622100830078125,106391.077731375,2.205807164608881,1.520292016004881,-0.1109114034589361,0.001292752218432724,-0.001041973009705544,-0.0007366910576820374,-0.01568126678466797,-0.003941386938095093,-0.01103132963180542,2,0.6321426785381464,-0.2744254097841714,-0.628622591585966,-0.3604440818553978,0.9925883412361145,0.1106841489672661,-0.05017265677452087,26.10805511474609,23.19166564941406,1.231597900390625,2,106390.876468375,2,0,1582559301.048543,1582558685.643339,11,0.6387488,0,0,10.91,0,0,1582558765.788069,106387.776208,0,5.004547,99.30508
1582559301.258147,42,0,1582559300.998879,41.20592372835273,29.07252323632774,178.6898,0.04199315,1.350439602928946,3,6.000906205260658,-9999,106391.093784375,0.9724884033203125,0.10858154296875,-0.0628204345703125,106391.087772375,2.205803808710303,1.520269839653985,-0.1109178996005179,0.0001106400741264224,-1.452304422855377e-05,-0.000897497870028019,-0.01807504892349243,-0.002086251974105835,-0.0130234956741333,2,0.6321362015564794,-0.274420311318072,-0.6286278540419559,-0.3604500960906575,0.9925864934921265,0.1106906086206436,-0.0501946322619915,26.08798980712891,23.14621734619141,1.283294677734375,2,106390.876468375,2,0,1582559301.048543,1582558685.643339,11,0.6387488,0,0,10.91,0,0,1582558765.788069,106387.776208,0,5.004547,99.30508
1582559301.268391,43,0,1582559300.998879,41.20592372835273,29.07252323632774,178.6898,0.04199315,1.350439602928946,3,6.000906205260658,-9999,106391.103824375,0.969818115234375,0.109619140625,-0.0625762939453125,106391.097812375,2.205816041434023,1.520262930486196,-0.1109021774614376,-0.001016143476590514,0.0001663044095039368,0.001352606806904078,-0.02105194330215454,-0.002116411924362183,-0.01248252391815186,2,0.6321334025802906,-0.2744204282696283,-0.62863499579447,-0.3604425493981634,0.9925879836082458,0.1106749773025513,-0.05020157992839813,26.08798980712891,23.14621734619141,1.283294677734375,2,106390.876468375,2,0,1582559301.048543,1582558685.643339,11,0.6387488,0,0,10.91,0,0,1582558765.788069,106387.776208,0,5.004547,99.30508
1582559301.27822,44,0,1582559300.998879,41.20592372835273,29.07252323632774,178.6898,0.04199315,1.350439602928946,3,6.000906205260658,-9999,106391.113864375,0.9674530029296875,0.1112823486328125,-0.0641021728515625,106391.107852375,2.20581436097747,1.520325803234907,-0.110855453432299,0.0008641388267278671,0.008130861446261406,0.004038653336465359,-0.02383744716644287,-0.0006203949451446533,-0.01332306861877441,2,0.6321461178525636,-0.274447756634444,-0.6286228580562103,-0.360420476514504,0.9925962090492249,0.1106285452842712,-0.05013943091034889,26.15218353271484,23.17265319824219,1.415130615234375,2,106390.876468375,2,0,1582559301.048543,1582558685.643339,11,0.6387488,0,0,10.91,0,0,1582558765.788069,106388.712381,0,4.993973,99.30521
1582559301.288284,45,0,1582559300.998879,41.20592372835273,29.07252323632774,178.6898,0.04199315,1.350439602928946,3,6.000906205260658,-9999,106391.123905375,0.9684600830078125,0.1099395751953125,-0.065399169921875,106391.117893375,2.205820495728826,1.520479956716976,-0.1107733185674799,-0.001204338390380144,0.01597493700683117,0.007841647602617741,-0.02562415599822998,0.0004836022853851318,-0.01455903053283691,2,0.6321834128993467,-0.2745008139725898,-0.6285894308717218,-0.3603728951140102,0.9926129579544067,0.1105469092726707,-0.04998687282204628,26.15218353271484,23.17265319824219,1.415130615234375,2,106390.876468375,2,0,1582559301.048543,1582558685.643339,11,0.6387488,0,0,10.91,0,0,1582558765.788069,106388.712381,0,4.993973,99.30521
1582559301.298336,46,0,1582559300.998879,41.20592372835273,29.07252323632774,178.6898,0.04199315,1.350439602928946,3,6.000906205260658,-9999,106391.133945375,0.971649169921875,0.10736083984375,-0.063873291015625,106391.127933375,2.205804146238005,1.520742599025419,-0.1107010773651219,0.002771517494693398,0.02723010070621967,0.00691361865028739,-0.02439403533935547,-0.001077234745025635,-0.01657396554946899,2,0.6322531261126731,-0.2745773040975591,-0.6285160741063013,-0.3603205690300848,0.9926341772079468,0.1104751154780388,-0.04972657561302185,26.09014129638672,22.95429992675781,1.518524169921875,2,106390.876468375,2,0,1582559301.048543,1582558685.643339,11,0.6387488,0,0,10.91,0,0,1582558765.788069,106388.712381,0,4.993973,99.30521
1582559301.308369,47,0,1582559300.998879,41.20592372835273,29.07252323632774,178.6898,0.04199315,1.350439602928946,3,6.000906205260658,-9999,106391.144016375,0.9744873046875,0.1056060791015625,-0.060546875,106391.137973375,2.205781479091685,1.521063409259926,-0.1106594341968679,0.003511876333504915,0.03409173339605331,0.004305053036659956,-0.0205540657043457,-0.003614604473114014,-0.01393240690231323,2,0.6323447662453731,-0.2746560100080593,-0.6284176620040746,-0.3602711093797333,0.9926545023918152,0.1104337275028229,-0.04940834641456604,26.09014129638672,22.95429992675781,1.518524169921875,2,106390.876468375,2,0,1582559301.048543,1582558685.643339,11,0.6387488,0,0,10.91,0,0,1582558765.788069,106388.712381,0,4.993973,99.30521
1582559301.318437,48,0,1582559300.998879,41.20592372835273,29.07252323632774,178.6898,0.04199315,1.350439602928946,3,6.000906205260658,-9999,106391.154056375,0.9742889404296875,0.1068115234375,-0.0615997314453125,106391.148013375,2.205779340487172,1.521405488018351,-0.1106568249623142,-0.0005287377280183136,0.03489059209823608,-0.0005288557149469852,-0.01849603652954102,-0.004832655191421509,-0.01199853420257568,2,0.6324515657553129,-0.2747191683398029,-0.628309565377526,-0.3602240230549052,0.9926716089248657,0.1104311347007751,-0.04906878992915154,26.09822845458984,23.10294342041016,1.201019287109375,2,106390.876468375,2,0,1582559301.048543,1582558685.643339,11,0.6387488,0,0,10.91,0,0,1582558765.788069,106388.712381,0,4.993973,99.30521
1582559301.329042,49,0,1582559300.998879,41.20592372835273,29.07252323632774,178.6898,0.04199315,1.350439602928946,3,6.000906205260658,-9999,106391.164096375,0.9776458740234375,0.1071624755859375,-0.05950927734375,106391.158054375,2.20576576513142,1.521785663824785,-0.1106697730775686,0.001370362471789122,0.04080813378095627,-0.001716359052807093,-0.0189099907875061,-0.003380686044692993,-0.01342898607254028,2,0.6325709973241883,-0.274787675037199,-0.6281847136316508,-0.3601799932593292,0.9926888942718506,0.110444001853466,-0.04869133234024048,26.09822845458984,23.10294342041016,1.201019287109375,2,106390.876468375,2,0,1582559301.048543,1582558685.643339,11,0.6387488,0,0,10.91,0,0,1582558765.788069,106388.712381,0,4.993973,99.30521
1582559301.338517,50,0,1582559300.998879,41.20592372835273,29.07252323632774,178.6898,0.04199315,1.350439602928946,3,6.000906205260658,-9999,106391.174136375,0.983245849609375,0.10589599609375,-0.0546722412109375,106391.168094375,2.205774085409956,1.52204480190242,-0.1107098210598688,-0.001354818232357502,0.0281069204211235,-0.004057536367326975,-0.01401990652084351,-0.003710418939590454,-0.0104820728302002,2,0.6326593812532855,-0.2748184337422232,-0.6280972917601679,-0.3601536984316434,0.9926970601081848,0.1104838028550148,-0.04843387007713318,26.14310455322266,23.04759979248047,1.3443603515625,2,106390.876468375,2,0,1582559301.048543,1582558685.643339,11,0.6387488,0,0,10.91,0,0,1582558765.788069,106388.712381,0,4.993973,99.30521
1582559301.348565,51,0,1582559300.998879,41.20592372835273,29.07252323632774,178.6898,0.04199315,1.350439602928946,3,6.000906205260658,-9999,106391.184177375,0.9807586669921875,0.1078643798828125,-0.054656982421875,106391.178134375,2.205780001374834,1.522120604435515,-0.1107596172316605,0.0001924782409332693,0.009734839200973511,-0.004590967670083046,-0.01015758514404297,-0.004385530948638916,-0.006300449371337891,2,0.6326912787613911,-0.2748137005157069,-0.6280657202980089,-0.3601562405669193,0.992695152759552,0.1105332970619202,-0.04835835099220276,26.14310455322266,23.04759979248047,1.3443603515625,2,106390.876468375,2,0,1582559301.048543,1582558685.643339,11,0.6387488,0,0,10.91,0,0,1582558765.788069,106388.712381,0,4.993973,99.30521
1582559301.359015,52,0,1582559300.998879,41.20592372835273,29.07252323632774,178.6898,0.04199315,1.350439602928946,3,6.000906205260658,-9999,106391.194217375,0.975982666015625,0.110992431640625,-0.056854248046875,106391.188175375,2.205818940547743,1.522026759820391,-0.1107662917572253,-0.003195148194208741,-0.008861755952239037,-0.0008966261520981789,-0.01324981451034546,-0.001996546983718872,-0.006695568561553955,2,0.6326681313140259,-0.2747822741402177,-0.6281012675294296,-0.3601589014086497,0.992689847946167,0.1105399280786514,-0.04845147579908371,26.14720916748047,23.03315734863281,1.303314208984375,2,106390.876468375,2,0,1582559301.048543,1582558685.643339,11,0.6387488,0,0,10.91,0,0,1582558765.788069,106388.712381,0,4.993973,99.30521
1582559301.368589,53,0,1582559300.998879,41.20592372835273,29.07252323632774,178.6898,0.04199315,1.350439602928946,3,6.000906205260658,-9999,106391.204257375,0.9697723388671875,0.1146697998046875,-0.0601654052734375,106391.198215375,2.205908326448066,1.521793661017162,-0.1106612374476902,-0.008425063453614712,-0.02353950217366219,0.01132168993353844,-0.01846867799758911,0.0011749267578125,-0.009301483631134033,2,0.6325918422974379,-0.2747468639259944,-0.6282093579435648,-0.36013159614603,0.9926902651786804,0.1104355156421661,-0.04868344217538834,26.14720916748047,23.03315734863281,1.303314208984375,2,106390.876468375,2,0,1582559301.048543,1582558685.643339,11,0.6387488,0,0,10.91,0,0,1582558765.788069,106388.712381,0,4.993973,99.30521
1582559301.378711,54,0,1582559300.998879,41.20592372835273,29.07252323632774,178.6898,0.04199315,1.350439602928946,3,6.000906205260658,-9999,106391.214298375,0.9683837890625,0.1129302978515625,-0.064208984375,106391.208255375,2.205999449821507,1.521577606575362,-0.1104662271451485,-0.00849678460508585,-0.01936359331011772,0.01989741995930672,-0.02436953783035278,0.004679977893829346,-0.01261073350906372,2,0.6325080136780252,-0.2747437447100253,-0.6283278356258128,-0.360074475962166,0.9927011728286743,0.1102416962385178,-0.04889897629618645,25.97032928466797,23.05892944335938,1.48345947265625,2,106390.876468375,2,0,1582559301.048543,1582558685.643339,11,0.6387488,0,0,10.91,0,0,1582558765.788069,106388.712381,0,4.993973,99.30521
1582559301.388717,55,0,1582559300.998879,41.20592372835273,29.07252323632774,178.6898,0.04199315,1.350439602928946,3,6.000906205260658,-9999,106391.224338375,0.97332763671875,0.107757568359375,-0.0606689453125,106391.218295375,2.206080582145989,1.521358947066853,-0.1102197463283867,-0.007000088226050138,-0.02176683023571968,0.02519391477108002,-0.02363824844360352,0.001949608325958252,-0.01507782936096191,2,0.6324144516981998,-0.2747603907739685,-0.6284542299873913,-0.3600055112553676,0.9927175641059875,0.1099967136979103,-0.04911737889051437,25.97032928466797,23.05892944335938,1.48345947265625,2,106390.876468375,2,0,1582559301.048543,1582558685.643339,11,0.6387488,0,0,10.91,0,0,1582558765.788069,106388.712381,0,4.993973,99.30521
1582559301.398791,56,0,1582559300.998879,41.20592372835273,29.07252323632774,178.6898,0.04199315,1.350439602928946,3,6.000906205260658,-9999,106391.234378375,0.972137451171875,0.105682373046875,-0.0639495849609375,106391.228336375,2.206164138855908,1.521166323310627,-0.1099682595899684,-0.006866588722914457,-0.01684770733118057,0.0254869069904089,-0.01979589462280273,-0.002744048833847046,-0.01194006204605103,2,0.6323286409455539,-0.2747826487994692,-0.6285737006387675,-0.3599307508683473,0.992735743522644,0.1097467541694641,-0.04930997267365456,25.99639129638672,23.30442047119141,1.548919677734375,2,106390.876468375,2,0,1582559301.048543,1582558685.643339,11,0.6387488,0,0,10.91,0,0,1582558765.788069,106388.712381,0,4.993973,99.30521
1582559301.408748,57,0,1582559300.998879,41.20592372835273,29.07252323632774,178.6898,0.04199315,1.350439602928946,3,6.000906205260658,-9999,106391.244418375,0.9751434326171875,0.109619140625,-0.0581817626953125,106391.238376375,2.206241620295327,1.52092488762338,-0.1096986830975642,-0.004247369710355997,-0.02061208710074425,0.0262278001755476,-0.0207899808883667,-0.00375780463218689,-0.01468956470489502,2,0.6322240014246352,-0.2748040231752015,-0.6287105437563065,-0.3598591422771767,0.992753267288208,0.1094788014888763,-0.04955112189054489,25.99639129638672,23.30442047119141,1.548919677734375,2,106390.876468375,2,0,1582559301.048543,1582558685.643339,11,0.6387488,0,0,10.91,0,0,1582558765.788069,106388.712381,0,4.993973,99.30521
1582559301.418815,58,0,1582559300.998879,41.20592372835273,29.07252323632774,178.6898,0.04199315,1.350439602928946,3,6.000906205260658,-9999,106391.254459375,0.9777984619140625,0.1065216064453125,-0.0584564208984375,106391.248447375,2.206386102404122,1.520269482437975,-0.1092485640145929,-0.008330114185810089,-0.0875428318977356,0.06029706448316574,-0.01833474636077881,0.003220617771148682,-0.005689799785614014,2,0.631971946743122,-0.2747896184809939,-0.6290214283265186,-0.3597695233862316,0.9927696585655212,0.1090313792228699,-0.05020424723625183,26.00928497314453,23.05321502685547,1.2806396484375,2,106390.876468375,2,0,1582559301.048543,1582558685.643339,11,0.6387488,0,0,10.91,0,0,1582558765.788069,106388.712381,0,4.993973,99.30521
1582559301.428982,59,0,1582559300.998879,41.20592372835273,29.07252323632774,178.6898,0.04199315,1.350439602928946,3,6.000906205260658,-9999,106391.264499375,0.9702911376953125,0.103485107421875,-0.07110595703125,106391.258487375,2.206470387867848,1.520154604872458,-0.108946675330195,-0.0001209203619509935,0.004116782918572426,0.03279752656817436,-0.01840752363204956,-0.004871517419815063,-0.01520234346389771,2,0.6319032200940446,-0.2748423929259935,-0.6291250188721421,-0.3596687898331873,0.9927967190742493,0.108731284737587,-0.05031995847821236,26.00928497314453,23.05321502685547,1.2806396484375,2,106390.876468375,2,0,1582559301.048543,1582558685.643339,11,0.6387488,0,0,10.91,0,0,1582558765.788069,106388.712381,0,4.993973,99.30521
1582559301.439343,60,0,1582559300.998879,41.20592372835273,29.07252323632774,178.6898,0.04199315,1.350439602928946,3,6.000906205260658,-9999,106391.274539375,0.985382080078125,0.1078948974609375,-0.0525054931640625,106391.268527375,2.206557405789481,1.51996484137826,-0.1086500142448989,-0.009989026933908463,-0.02675572782754898,0.03236682713031769,-0.01896429061889648,-0.003966063261032104,-0.01563775539398193,2,0.6318120487848871,-0.2748791328753884,-0.6292518586966587,-0.3595790758259078,0.9928193688392639,0.1084363758563995,-0.0505099929869175,26.07209014892578,23.22565460205078,1.44085693359375,2,106390.876468375,2,0,1582559301.048543,1582558685.643339,11,0.6387488,0,0,10.91,0,0,1582558765.788069,106388.712381,0,4.993973,99.30521
1582559301.448966,61,0,1582559300.998879,41.20592372835273,29.07252323632774,178.6898,0.04199315,1.350439602928946,3,6.000906205260658,-9999,106391.284580375,0.98052978515625,0.1084442138671875,-0.0574951171875,106391.278568375,2.206626791160157,1.519709034686831,-0.1083647530304283,-0.006342094391584396,-0.02322650700807571,0.02883307635784149,-0.008728206157684326,-0.0001881122589111328,-0.003434538841247559,2,0.6316993367287168,-0.274905766225744,-0.6293943022543734,-0.3595072928839436,0.9928371906280518,0.1081527918577194,-0.05076553672552109,26.07209014892578,23.22565460205078,1.44085693359375,2,106390.876468375,2,0,1582559301.048543,1582558685.643339,11,0.6387488,0,0,10.91,0,0,1582558765.788069,106388.712381,0,4.993973,99.30521
1582559301.459003,62,0,1582559300.998879,41.20592372835273,29.07252323632774,178.6898,0.04199315,1.350439602928946,3,6.000906205260658,-9999,106391.294620375,0.9737091064453125,0.10791015625,-0.05841064453125,106391.288608375,2.206708070519646,1.519315577479416,-0.1080459162428005,-0.006669496651738882,-0.03842571377754211,0.03216086328029633,-0.01324385404586792,0.0006020665168762207,-0.006566643714904785,2,0.6315399653751277,-0.2749150800774703,-0.6295881493208245,-0.3594407297081116,0.9928514957427979,0.1078358218073845,-0.05115794017910957,26.35887908935547,23.16156768798828,1.508056640625,2,106390.876468375,2,0,1582559301.048543,1582558685.643339,11,0.6387488,0,0,10.91,0,0,1582558765.788069,106388.712381,0,4.993973,99.30521
1582559301.469008,63,0,1582559300.998879,41.20592372835273,29.07252323632774,178.6898,0.04199315,1.350439602928946,3,6.000906205260658,-9999,106391.304660375,0.96624755859375,0.108978271484375,-0.0649871826171875,106391.298648375,2.206802091601088,1.518932709659266,-0.1076600193934953,-0.009538252837955952,-0.03702621906995773,0.03923395276069641,-0.02190208435058594,0.000253528356552124,-0.008625388145446777,2,0.6313757701083904,-0.2749445804686011,-0.6297925094836788,-0.3593487907743634,0.99287348985672,0.1074521616101265,-0.05154022946953773,26.35887908935547,23.16156768798828,1.508056640625,2,106390.876468375,2,0,1582559301.048543,1582558685.643339,11,0.6387488,0,0,10.91,0,0,1582558765.788069,106388.712381,0,4.993973,99.30521
1582559301.479018,64,0,1582559300.998879,41.20592372835273,29.07252323632774,178.6898,0.04199315,1.350439602928946,3,6.000906205260658,-9999,106391.314700375,0.9632568359375,0.1058349609375,-0.069061279296875,106391.308688375,2.206840523064143,1.518688712049836,-0.1072214742193262,-0.001242970814928412,-0.0252984706312418,0.04518161341547966,-0.02762788534164429,0.002124041318893433,-0.01452994346618652,2,0.6312399104515902,-0.275034015132485,-0.6299519373783566,-0.3592394601786776,0.9929077625274658,0.1070161461830139,-0.0517849326133728,26.23903656005859,22.82901763916016,1.355194091796875,2,106390.876468375,2,0,1582559301.048543,1582558685.643339,11,0.6387488,0,0,10.91,0,0,1582558765.788069,106388.712381,0,4.993973,99.30521
1582559301.489124,65,0,1582559300.998879,41.20592372835273,29.07252323632774,178.6898,0.04199315,1.350439602928946,3,6.000906205260658,-9999,106391.324741375,0.9593658447265625,0.098907470703125,-0.0724639892578125,106391.318729375,2.206865763708513,1.518661673533161,-0.1068192318574215,0.001695560989901423,-0.001439210027456284,0.04099619016051292,-0.03108733892440796,-0.00212976336479187,-0.01846814155578613,2,0.6311758641483397,-0.2751545429424084,-0.6300342039751917,-0.359115247875797,0.9929491281509399,0.1066162064671516,-0.0518140122294426,26.10039520263672,23.02114105224609,1.3699951171875,2,106390.876468375,2,0,1582559301.048543,1582558685.643339,11,0.6387488,0,0,10.91,0,0,1582558765.788069,106388.712381,0,4.993973,99.30521
1582559301.499156,66,0,1582559300.998879,41.20592372835273,29.07252323632774,178.6898,0.04199315,1.350439602928946,3,6.000906205260658,-9999,106391.334781375,0.95526123046875,0.1041412353515625,-0.076263427734375,106391.328769375,2.206937175684736,1.518883806845266,-0.1064927325235301,-0.008133894763886929,0.01924525201320648,0.03194041177630424,-0.03485661745071411,-0.008213639259338379,-0.02227246761322021,2,0.6312077210624371,-0.2752801910241382,-0.6300332335626332,-0.3589649536548039,0.99299556016922,0.1062915623188019,-0.05159525945782661,26.10039520263672,23.02114105224609,1.3699951171875,2,106390.876468375,2,0,1582559301.048543,1582558685.643339,11,0.6387488,0,0,10.91,0,0,1582558765.788069,106388.712381,0,4.993973,99.30521
1582559301.509201,67,0,1582559300.998879,41.20592372835273,29.07252323632774,178.6898,0.04199315,1.350439602928946,3,6.000906205260658,-9999,106391.344821375,0.9574432373046875,0.11248779296875,-0.07220458984375,106391.338809375,2.206906553485277,1.519477156339812,-0.1061031693507097,0.006429068744182587,0.06495228409767151,0.03791388124227524,-0.03845316171646118,0.001085042953491211,-0.02568280696868896,2,0.6313332253586347,-0.2755254452668158,-0.6299074853113457,-0.3587766816993708,0.9930672645568848,0.1059041991829872,-0.05100817605853081,26.05158233642578,23.05784606933594,1.30712890625,2,106390.876468375,2,0,1582559301.048543,1582558685.643339,11,0.6387488,0,0,10.91,0,0,1582558765.788069,106388.712381,0,4.993973,99.30521
1582559301.519281,68,0,1582559300.998879,41.20592372835273,29.07252323632774,178.6898,0.04199315,1.350439602928946,3,6.000906205260658,-9999,106391.354862375,0.9610443115234375,0.110870361328125,-0.0656280517578125,106391.348850375,2.206867182925091,1.520199405696294,-0.1055781693539896,0.005561677273362875,0.07389731705188751,0.05190905928611755,-0.03474587202072144,0.006490141153335571,-0.02066057920455933,2,0.6314782042834447,-0.2758412947991057,-0.6297626475487963,-0.3585327423514984,0.9931590557098389,0.1053821370005608,-0.05029371380805969,26.05158233642578,23.05784606933594,1.30712890625,2,106390.876468375,2,0,1582559301.048543,1582558685.643339,11,0.6387488,0,0,10.91,0,0,1582558765.788069,106388.712381,0,4.993973,99.30521
1582559301.529323,69,0,1582559300.998879,41.20592372835273,29.07252323632774,178.6898,0.04199315,1.350439602928946,3,6.000906205260658,-9999,106391.364902375,0.95660400390625,0.114349365234375,-0.0663909912109375,106391.358890375,2.206810689755673,1.521042407650863,-0.1048842895100946,0.009076517075300217,0.08396433293819427,0.06753861904144287,-0.03341114521026611,0.006570190191268921,-0.01630645990371704,2,0.6316339235937367,-0.2762400060725483,-0.6296057430893069,-0.358227025647803,0.9932739734649658,0.1046920940279961,-0.04946009069681168,26.25943756103516,23.01741027832031,1.351654052734375,2,106390.876468375,2,0,1582559301.048543,1582558685.643339,11,0.6387488,0,0,10.91,0,0,1582558765.788069,106388.712381,0,4.993973,99.30521
1582559301.539318,70,0,1582559300.998879,41.20592372835273,29.07252323632774,178.6898,0.04199315,1.350439602928946,3,6.000906205260658,-9999,106391.374942375,0.9596405029296875,0.1161041259765625,-0.06573486328125,106391.368930375,2.206741202556965,1.522085655772004,-0.1039500170860499,0.01005530171096325,0.1048255935311317,0.09372451156377792,-0.03745037317276001,0.01116189360618591,-0.0184980034828186,2,0.6318154445153176,-0.2767579368969031,-0.6294244925997763,-0.3578255034618513,0.9934223294258118,0.1037629097700119,-0.04842857643961906,26.25943756103516,23.01741027832031,1.351654052734375,2,106390.876468375,2,0,1582559301.048543,1582558685.643339,11,0.6387488,0,0,10.91,0,0,1582558765.788069,106388.712381,0,4.993973,99.30521
1582559301.549413,71,0,1582559300.998879,41.20592372835273,29.07252323632774,178.6898,0.04199315,1.350439602928946,3,6.000906205260658,-9999,106391.384982375,0.966552734375,0.1072540283203125,-0.0632781982421875,106391.378970375,2.206609000749934,1.523299797140911,-0.1028705583722189,0.02047705091536045,0.1239934340119362,0.1081665679812431,-0.03267598152160645,0.01243451237678528,-0.01853978633880615,2,0.6320205065134644,-0.277373824644962,-0.6292028819309747,-0.3573760929944198,0.9935917854309082,0.1026892215013504,-0.04722768068313599,26.12175750732422,22.83489227294922,1.293670654296875,2,106390.876468375,2,0,1582559301.048543,1582558685.643339,11,0.6387488,0,0,10.91,0,0,1582558765.788069,106388.712381,0,4.993973,99.30521
1582559301.55942,72,0,1582559300.998879,41.20592372835273,29.07252323632774,178.6898,0.04199315,1.350439602928946,3,6.000906205260658,-9999,106391.395053375,0.9682769775390625,0.101287841796875,-0.0641937255859375,106391.389011375,2.206488741970951,1.524623492478549,-0.1017341946440722,0.01679911836981773,0.1339167654514313,0.1140978634357452,-0.02755880355834961,0.003738850355148315,-0.01803451776504517,2,0.6322530586623272,-0.2780237015194507,-0.6289583167347462,-0.3568898789908879,0.9937693476676941,0.1015587970614433,-0.04591778293251991,26.12175750732422,22.83489227294922,1.293670654296875,2,106390.876468375,2,0,1582559301.048543,1582558685.643339,11,0.6387488,0,0,10.91,0,0,1582558765.788069,106388.712381,0,4.993973,99.30521
1582559301.571642,73,0,1582559300.998879,41.20592372835273,29.07252323632774,178.6898,0.04199315,1.350439602928946,3,6.000906205260658,-9999,106391.405093375,0.980499267578125,0.0953521728515625,-0.0565643310546875,106391.399051375,2.206332545313404,1.526023641065038,-0.1006160609839527,0.02172650024294853,0.144565686583519,0.11266028881073,-0.02448493242263794,0.0001520812511444092,-0.01922321319580078,2,0.6325070185272929,-0.278691923170086,-0.6286798503911646,-0.3564089890145179,0.9939454197883606,0.100446380674839,-0.04453136771917343,26.35863494873047,22.83037567138672,1.39935302734375,2,106390.876468375,2,0,1582559301.048543,1582558685.643339,11,0.6387488,0,0,10.91,0,0,1582558765.788069,106388.712381,0,4.993973,99.30521
1582559301.579674,74,0,1582559300.998879,41.20592372835273,29.07252323632774,178.6898,0.04199315,1.350439602928946,3,6.000906205260658,-9999,106391.415134375,0.9774322509765625,0.0790863037109375,-0.05657958984375,106391.409091375,2.206231127432134,1.527347965535963,-0.09970493347997031,0.01412579696625471,0.1340605765581131,0.09487991034984589,-0.01282382011413574,-0.006539821624755859,-0.01246434450149536,2,0.6327749467965708,-0.2792604118122793,-0.6283993730806754,-0.3559827689035179,0.9940945506095886,0.09953981637954712,-0.04321897774934769,26.35863494873047,22.83037567138672,1.39935302734375,2,106390.876468375,2,0,1582559301.048543,1582558685.643339,11,0.6387488,0,0,10.91,0,0,1582558765.788069,106388.712381,0,4.993973,99.30521
1582559301.589722,75,0,1582559300.998879,41.20592372835273,29.07252323632774,178.6898,0.04199315,1.350439602928946,3,6.000906205260658,-9999,106391.425174375,0.97515869140625,0.0740814208984375,-0.059234619140625,106391.419132375,2.206213457706945,1.528676842745982,-0.09929759219318449,0.002192172221839428,0.133636862039566,0.0368107408285141,-0.0187649130821228,-0.02401754260063171,-0.01648515462875366,2,0.6331299364180334,-0.2796366880274675,-0.6280456178964128,-0.3556802960294029,0.9941914677619934,0.09913448989391327,-0.04189961403608322,26.36862945556641,22.98762512207031,1.511749267578125,2,106390.876468375,2,0,1582559301.048543,1582558685.643339,11,0.6387488,0,0,10.91,0,0,1582558765.788069,106388.712381,0,4.993973,99.30521
1582559301.59969,76,0,1582559300.998879,41.20592372835273,29.07252323632774,178.6898,0.04199315,1.350439602928946,3,6.000906205260658,-9999,106391.435214375,0.9742889404296875,0.0909423828125,-0.055023193359375,106391.429172375,2.206188614279756,1.530153566484291,-0.09917306194374748,0.002438154770061374,0.1492595076560974,0.01089886669069529,-0.01899039745330811,-0.02157428860664368,-0.01853317022323608,2,0.6335717007887219,-0.279948100915678,-0.6275949442720817,-0.3554440648324765,0.9942646026611328,0.09901057928800583,-0.0404319204390049,26.36862945556641,22.98762512207031,1.511749267578125,2,106390.876468375,2,0,1582559301.048543,1582558685.643339,11,0.6387488,0,0,10.91,0,0,1582558765.788069,106388.712381,0,4.993973,99.30521
1582559301.609679,77,0,1582559300.998879,41.20592372835273,29.07252323632774,178.6898,0.04199315,1.350439602928946,3,6.000906205260658,-9999,106391.445255375,0.9736328125,0.094482421875,-0.045318603515625,106391.439212375,2.206130853596004,1.531666362262145,-0.09912488483672562,0.004254963248968124,0.1551669389009476,0.006388003937900066,-0.02184748649597168,-0.006206482648849487,-0.0155213475227356,2,0.6340310670337664,-0.2802510229673268,-0.6271135222489915,-0.3552357849427987,0.9943292737007141,0.09896263480186462,-0.03892793878912926,26.46323394775391,23.15257263183594,1.62982177734375,2,106390.876468375,2,0,1582559301.048543,1582558685.643339,11,0.6387488,0,0,10.91,0,0,1582558765.788069,106388.712381,0,4.993973,99.30521
1582559301.619741,78,0,1582559300.998879,41.20592372835273,29.07252323632774,178.6898,0.04199315,1.350439602928946,3,6.000906205260658,-9999,106391.455295375,0.9792327880859375,0.0904083251953125,-0.0404510498046875,106391.449252375,2.206036111712737,1.532976588608612,-0.0992106227045549,0.008756326511502266,0.1327773481607437,-0.007767654489725828,-0.01950877904891968,-0.005498319864273071,-0.005731642246246338,2,0.6344410447088366,-0.2804855839811291,-0.6266665324569132,-0.355107706476913,0.9943711161613464,0.09904795140028,-0.0376247949898243,26.46323394775391,23.15257263183594,1.62982177734375,2,106390.876468375,2,0,1582559301.048543,1582558685.643339,11,0.6387488,0,0,10.91,0,0,1582558765.788069,106388.712381,0,4.993973,99.30521
1582559301.6369,79,0,1582559300.998879,41.20592372835273,29.07252323632774,178.6898,0.04199315,1.350439602928946,3,6.000906205260658,-9999,106391.465335375,0.98016357421875,0.0921630859375,-0.0430145263671875,106391.459293375,2.205946073775421,1.534159341437824,-0.09939592049335723,0.008472966030240059,0.1215617060661316,-0.017337990924716,-0.01594829559326172,-0.008963495492935181,-0.00562739372253418,2,0.6348260928095004,-0.2806632003801174,-0.6262433047295795,-0.3550257639002102,0.9943965077400208,0.09923233836889267,-0.03644799813628197,26.58000946044922,23.02985382080078,1.565155029296875,2,106390.876468375,2,0,1582559301.048543,1582558685.643339,11,0.6387488,0,0,10.91,0,0,1582558765.788069,106388.712381,0,4.993973,99.30521
1582559301.639923,80,0,1582559300.998879,41.20592372835273,29.07252323632774,178.6898,0.04199315,1.350439602928946,3,6.000906205260658,-9999,106391.475375375,1.006851196289062,0.0858001708984375,-0.0198974609375,106391.469333375,2.205870998869721,1.534984482082118,-0.09969152649307846,0.006793220527470112,0.09259049594402313,-0.02868562564253807,-0.01149308681488037,-0.007777631282806396,-0.005503296852111816,2,0.6351172310312091,-0.2807363445486162,-0.6259170247849699,-0.355022484434183,0.9943968057632446,0.09952647984027863,-0.03562641516327858,26.58000946044922,23.02985382080078,1.565155029296875,2,106390.876468375,2,0,1582559301.048543,1582558685.643339,11,0.6387488,0,0,10.91,0,0,1582558765.788069,106388.712381,0,4.993973,99.30521
1582559301.649888,81,0,1582559300.998879,41.20592372835273,29.07252323632774,178.6898,0.04199315,1.350439602928946,3,6.000906205260658,-9999,106391.485416375,1.026092529296875,0.0890350341796875,-0.0004119873046875,106391.479373375,2.205889005122974,1.534590955331227,-0.1001384856817886,-0.002724650781601667,-0.0375392809510231,-0.04661322757601738,0.01861011981964111,-0.01565366983413696,0.02192521095275879,2,0.6350621197735314,-0.2805138908668653,-0.6259681551798583,-0.3552067750605876,0.9943382143974304,0.09997121244668961,-0.03601612150669098,26.27846527099609,22.97495269775391,1.52227783203125,2,106390.876468375,2,0,1582559301.048543,1582558685.643339,11,0.6387488,0,0,10.91,0,0,1582558765.788069,106388.712381,0,4.993973,99.30521
1582559301.66032,82,0,1582559300.998879,41.20592372835273,29.07252323632774,178.6898,0.04199315,1.350439602928946,3,6.000906205260658,-9999,106391.495456375,0.993011474609375,0.1057891845703125,-0.0315093994140625,106391.489414375,2.206053552704196,1.533091987028783,-0.1005337376361848,-0.02006351388990879,-0.1584051102399826,-0.03808509930968285,0.02892839908599854,-0.007776796817779541,0.03463029861450195,2,0.6346738067841492,-0.2800653907164879,-0.6264051066817216,-0.3554843847726492,0.9942435622215271,0.100364476442337,-0.03750507161021233,26.27846527099609,22.97495269775391,1.52227783203125,2,106390.876468375,2,0,1582559301.048543,1582558685.643339,11,0.6387488,0,0,10.91,0,0,1582558765.788069,106388.712381,0,4.993973,99.30521
1582559301.670028,83,0,1582559300.998879,41.20592372835273,29.07252323632774,178.6898,0.04199315,1.350439602928946,3,6.000906205260658,-9999,106391.505496375,0.9227752685546875,0.10186767578125,-0.1164703369140625,106391.499484375,2.205941356825341,1.532402060729893,-0.1010574495949464,0.009742319583892822,-0.09809331595897675,-0.0505545511841774,-0.0134732723236084,0.00725063681602478,-0.005304276943206787,2,0.6345187799364445,-0.2798060382787912,-0.6265138407997505,-0.3557737399613925,0.9941648840904236,0.1008855253458023,-0.03818899765610695,26.47444915771484,23.05593109130859,1.354888916015625,2,106390.876468375,2,0,1582559301.048543,1582558685.643339,11,0.6387488,0,0,10.91,0,0,1582558765.788069,106388.712381,0,4.993973,99.30521
1582559301.68257,84,0,1582559300.998879,41.20592372835273,29.07252323632774,178.6898,0.04199315,1.350439602928946,3,6.000906205260658,-9999,106391.515537375,0.933380126953125,0.07843017578125,-0.1082305908203125,106391.509525375,2.205561298578041,1.534515099824598,-0.1019865186507489,0.04035397991538048,0.2639951407909393,-0.09922587871551514,-0.0843348503112793,-0.005698025226593018,-0.09932863712310791,2,0.635263161075003,-0.2799970071399461,-0.6256150533207121,-0.3558765292107421,0.9941491484642029,0.1018098145723343,-0.03608478605747223,26.47444915771484,23.05593109130859,1.354888916015625,2,106390.876468375,2,0,1582559301.048543,1582558685.643339,11,0.6387488,0,0,10.91,0,0,1582558765.788069,106388.712381,0,4.993973,99.30521
1582559301.704521,85,0,1582559300.998879,41.20592372835273,29.07252323632774,178.6898,0.04199315,1.350439602928946,3,6.000906205260658,-9999,106391.525577375,1.044479370117188,0.1036376953125,0.0190887451171875,106391.519565375,2.205535092614299,1.53563745843041,-0.1027992573694654,-0.004643854219466448,0.1071994006633759,-0.08177417516708374,-0.03451752662658691,-0.02329155802726746,-0.04261714220046997,2,0.6357292951426916,-0.2799379182972299,-0.6251132885589821,-0.3559723639203621,0.9941059947013855,0.1026182919740677,-0.03496605157852173,26.37871551513672,22.91583251953125,1.380218505859375,2,106390.876468375,2,0,1582559301.048543,1582558685.643339,11,0.6387488,0,0,10.91,0,0,1582558765.788069,106388.712381,0,4.993973,99.30521
1582559301.705768,86,0,1582559300.998879,41.20592372835273,29.07252323632774,178.6898,0.04199315,1.350439602928946,3,6.000906205260658,-9999,106391.535617375,1.003646850585938,0.11199951171875,-0.0230712890625,106391.529605375,2.205669344079356,1.535344698784734,-0.103245233688927,-0.01525460463017225,-0.03406891971826553,-0.0423891618847847,0.05036211013793945,0.006538033485412598,0.05581700801849365,2,0.6357217161141677,-0.2796965658787853,-0.6251531636950487,-0.3561057306272936,0.9940499663352966,0.1030619069933891,-0.03525546193122864,26.37871551513672,22.91583251953125,1.380218505859375,2,106390.876468375,2,0,1582559301.048543,1582558685.643339,11,0.6387488,0,0,10.91,0,0,1582558765.788069,106388.712381,0,4.993973,99.30521
1582559301.710144,87,0,1582559300.998879,41.20592372835273,29.07252323632774,178.6898,0.04199315,1.350439602928946,3,6.000906205260658,-9999,106391.545657375,0.9818115234375,0.0958251953125,-0.0526885986328125,106391.539645375,2.20583395182111,1.534801689396608,-0.1035989178968742,-0.01841684244573116,-0.05869676917791367,-0.03530009463429451,0.0002928376197814941,0.004705935716629028,0.001500308513641357,2,0.6356266335972195,-0.2794312486534019,-0.6252938753717038,-0.3562366438781079,0.9939941763877869,0.1034137010574341,-0.03579391911625862,26.52416229248047,23.07134246826172,1.602630615234375,2,106390.876468375,2,0,1582559301.048543,1582558685.643339,11,0.6387488,0,0,10.91,0,0,1582558765.788069,106388.712381,0,4.993973,99.30521
1582559301.720295,88,0,1582559300.998879,41.20592372835273,29.07252323632774,178.6898,0.04199315,1.350439602928946,3,6.000906205260658,-9999,106391.555698375,0.982177734375,0.0992279052734375,-0.0481719970703125,106391.549686375,2.206001966470307,1.534388370027828,-0.1039891328486899,-0.01704715564846992,-0.03839946910738945,-0.04041970521211624,-0.01285076141357422,-0.008316606283187866,-0.01739257574081421,2,0.6355778422714992,-0.2791758688824669,-0.6253876484118914,-0.3563592574561999,0.9939388632774353,0.103801816701889,-0.03620328009128571,26.52416229248047,23.07134246826172,1.602630615234375,2,106390.876468375,2,0,1582559301.048543,1582558685.643339,11,0.6387488,0,0,10.91,0,0,1582558765.788069,106388.712381,0,4.993973,99.30521
1582559301.730423,89,0,1582559300.998879,41.20592372835273,29.07252323632774,178.6898,0.04199315,1.350439602928946,3,6.000906205260658,-9999,106391.565738375,0.98272705078125,0.1052093505859375,-0.0406951904296875,106391.559726375,2.206233096960975,1.533822061588341,-0.1043059187138523,-0.02486113645136356,-0.06229601427912712,-0.0329119898378849,-0.01200366020202637,-0.003779590129852295,-0.009887874126434326,2,0.6354792222447303,-0.2788972767199863,-0.6255539992314278,-0.3564612994076245,0.993885338306427,0.1041168868541718,-0.03676493465900421,26.39743804931641,22.90664672851562,1.507476806640625,2,106390.876468375,2,0,1582559301.048543,1582558685.643339,11,0.6387488,0,0,10.91,0,0,1582558765.788069,106388.712381,0,4.993973,99.30521
1582559301.742239,90,0,1582559300.998879,41.20592372835273,29.07252323632774,178.6898,0.04199315,1.350439602928946,3,6.000906205260658,-9999,106391.575778375,0.9756622314453125,0.1073760986328125,-0.04681396484375,106391.569766375,2.206455758074467,1.533130088658353,-0.1044981048568702,-0.02285024523735046,-0.0768444836139679,-0.0181228406727314,-0.01247674226760864,0.001964867115020752,-0.003615856170654297,2,0.6353218333606652,-0.2786399319858016,-0.6257802917987448,-0.3565458927765562,0.9938396215438843,0.1043080240488052,-0.03745191171765327,26.39743804931641,22.90664672851562,1.507476806640625,2,106390.876468375,2,0,1582559301.048543,1582558685.643339,11,0.6387488,0,0,10.91,0,0,1582558765.788069,106388.712381,0,4.993973,99.30521
1582559301.764035,91,0,1582559300.998879,41.20592372835273,29.07252323632774,178.6898,0.04199315,1.350439602928946,3,6.000906205260658,-9999,106391.585819375,0.976165771484375,0.1082916259765625,-0.047119140625,106391.579807375,2.206649913252213,1.532347000121205,-0.1046083572830055,-0.02011118456721306,-0.07997369766235352,-0.01049741264432669,-0.0195615291595459,0.002587616443634033,-0.01029914617538452,2,0.6351198726297661,-0.2784023764544669,-0.6260446358726497,-0.35662740479447,0.9937986135482788,0.1044176742434502,-0.03822972998023033,26.33463287353516,22.70321655273438,1.319915771484375,2,106390.876468375,2,0,1582559301.048543,1582558685.643339,11,0.6387488,0,0,10.91,0,0,1582558765.788069,106388.712381,0,4.993973,99.30521
1582559301.765989,92,0,1582559300.998879,41.20592372835273,29.07252323632774,178.6898,0.04199315,1.350439602928946,3,6.000906205260658,-9999,106391.595859375,0.9701690673828125,0.11322021484375,-0.0498504638671875,106391.589847375,2.20679482455871,1.53144252802095,-0.1045805798880632,-0.01675924099981785,-0.0841204822063446,0.004732050932943821,-0.01792740821838379,0.004995644092559814,-0.008011460304260254,2,0.6348528015286842,-0.2782042004913206,-0.6263623966192214,-0.3566994962364771,0.9937664270401001,0.1043900474905968,-0.03912868723273277,26.33463287353516,22.70321655273438,1.319915771484375,2,106390.876468375,2,0,1582559301.048543,1582558685.643339,11,0.6387488,0,0,10.91,0,0,1582558765.788069,106388.712381,0,4.993973,99.30521
1582559301.770831,93,0,1582559300.998879,41.20592372835273,29.07252323632774,178.6898,0.04199315,1.350439602928946,3,6.000906205260658,-9999,106391.605899375,0.9667816162109375,0.107757568359375,-0.0552215576171875,106391.599887375,2.206853052741073,1.530834096925719,-0.1044949207790929,-0.005255717784166336,-0.05564703419804573,0.005683864466845989,-0.02595388889312744,0.008102059364318848,-0.01241135597229004,2,0.6346578309144533,-0.2781053827157347,-0.6265805848333003,-0.3567400436824472,0.9937512278556824,0.1043048575520515,-0.03973366692662239,26.56734466552734,23.03521728515625,1.459228515625,2,106390.876468375,2,0,1582559301.048543,1582558685.643339,11,0.6387488,0,0,10.91,0,0,1582558765.788069,106388.712381,0,4.993973,99.30521
1582559301.781402,94,0,1582559300.998879,41.20592372835273,29.07252323632774,178.6898,0.04199315,1.350439602928946,3,6.000906205260658,-9999,106391.615939375,0.976348876953125,0.1106109619140625,-0.046783447265625,106391.609927375,2.20693684599562,1.530376267956951,-0.1042967845067882,-0.00795283168554306,-0.05013109743595123,0.02024087123572826,-0.02586483955383301,0.00338590145111084,-0.01477819681167603,2,0.6344970539653308,-0.2780624960713723,-0.6267751008758616,-0.3567180459035683,0.9937537312507629,0.1041077971458435,-0.0401894748210907,26.56734466552734,23.03521728515625,1.459228515625,2,106390.876468375,2,0,1582559301.048543,1582558685.643339,11,0.6387488,0,0,10.91,0,0,1582558765.788069,106388.712381,0,4.993973,99.30521
1582559301.790546,95,0,1582559300.998879,41.20592372835273,29.07252323632774,178.6898,0.04199315,1.350439602928946,3,6.000906205260658,-9999,106391.625980375,0.97802734375,0.1034088134765625,-0.0484771728515625,106391.619968375,2.207046211948597,1.529690623412328,-0.1039766068016052,-0.01050547137856483,-0.07500182092189789,0.03355960547924042,-0.01631838083267212,0.006451010704040527,-0.004756927490234375,2,0.6342505507514121,-0.2780110512622503,-0.6270672611588959,-0.3566828705436302,0.9937590956687927,0.103789359331131,-0.04087219014763832,26.34362030029297,22.77862548828125,1.475433349609375,2,106390.876468375,2,0,1582559301.048543,1582558685.643339,11,0.6387488,0,0,10.91,0,0,1582558765.788069,106388.712381,0,4.993973,99.30521
1582559301.822019,96,0,1582559300.998879,41.20592372835273,29.07252323632774,178.6898,0.04199315,1.350439602928946,3,6.000906205260658,-9999,106391.636020375,0.9731597900390625,0.0983123779296875,-0.0572967529296875,106391.630008375,2.207137916673862,1.529077411425437,-0.1036943953414761,-0.007646535057574511,-0.0593702644109726,0.027276661247015,-0.01702433824539185,-0.001935184001922607,-0.01000553369522095,2,0.6340297155804503,-0.2779656927446652,-0.6273267214689963,-0.3566546394078285,0.9937630891799927,0.1035086661577225,-0.04148278757929802,26.34362030029297,22.77862548828125,1.475433349609375,2,106390.876468375,2,0,1582559301.048543,1582558685.643339,11,0.6387488,0,0,10.91,0,0,1582558765.788069,106388.712381,0,4.993973,99.30521
1582559301.823382,97,0,1582559300.998879,41.20592372835273,29.07252323632774,178.6898,0.04199315,1.350439602928946,3,6.000906205260658,-9999,106391.646091375,0.9625396728515625,0.1005096435546875,-0.06634521484375,106391.640048375,2.207200103417015,1.528692165200578,-0.1035140809605606,-0.005448095500469208,-0.04464937746524811,0.01850580796599388,-0.02265739440917969,-0.005143135786056519,-0.01690012216567993,2,0.6338911175418649,-0.2779367637173216,-0.6274910121216298,-0.3566345607817084,0.993765652179718,0.1033293157815933,-0.04186641424894333,26.29106903076172,22.79193878173828,1.5008544921875,2,106390.876468375,2,0,1582559301.048543,1582558685.643339,11,0.6387488,0,0,10.91,0,0,1582558765.788069,106388.712381,0,4.993973,99.30521
1582559301.824523,98,0,1582559300.998879,41.20592372835273,29.07252323632774,178.6898,0.04199315,1.350439602928946,3,6.000906205260658,-9999,106391.656131375,0.965667724609375,0.1027069091796875,-0.064056396484375,106391.650089375,2.207171587563091,1.528874078843387,-0.1034256351413942,0.004789887461811304,0.02626991644501686,0.008451830595731735,-0.03335517644882202,-0.001881331205368042,-0.02727341651916504,2,0.6339312942764893,-0.2780073888454644,-0.6274434615003771,-0.3565916261632923,0.9937822818756104,0.1032413467764854,-0.04168601334095001,26.29106903076172,22.79193878173828,1.5008544921875,2,106390.876468375,2,0,1582559301.048543,1582558685.643339,11,0.6387488,0,0,10.91,0,0,1582558765.788069,106388.712381,0,4.993973,99.30521
1582559301.83086,99,0,1582559300.998879,41.20592372835273,29.07252323632774,178.6898,0.04199315,1.350439602928946,3,6.000906205260658,-9999,106391.666171375,0.9790802001953125,0.1011199951171875,-0.0481719970703125,106391.660129375,2.207112423079252,1.529077183962941,-0.1033740018440218,0.005239163059741259,0.02059365436434746,0.004831795580685139,-0.02508342266082764,-0.001143306493759155,-0.01891493797302246,2,0.6339792242249455,-0.2780793902302648,-0.6273774440911181,-0.3565664653024743,0.9937961101531982,0.1031899899244308,-0.04148439317941666,26.26442718505859,22.82501983642578,1.506683349609375,2,106390.876468375,2,0,1582559301.048543,1582558685.643339,11,0.6387488,0,0,10.91,0,0,1582558765.788069,106388.712381,0,4.993973,99.30521
1582559301.840767,100,0,1582559300.998879,41.20592372835273,29.07252323632774,178.6898,0.04199315,1.350439602928946,3,6.000906205260658,-9999,106391.676212375,0.9765777587890625,0.098419189453125,-0.053802490234375,106391.670169375,2.207055615337453,1.529230093231613,-0.103349188828878,0.005737567786127329,0.01695886626839638,0.003527029417455196,-0.01500612497329712,-0.00221717357635498,-0.007408976554870605,2,0.6340156421562358,-0.2781328719865613,-0.6273231813840268,-0.356555637964909,0.9938051104545593,0.1031653061509132,-0.04133254289627075,26.26442718505859,22.82501983642578,1.506683349609375,2,106390.876468375,2,0,1582559301.048543,1582558685.643339,11,0.6387488,0,0,10.91,0,0,1582558765.788069,106388.712381,0,4.993973,99.30521
1582559301.850829,101,0,1582559300.998879,41.20592372835273,29.07252323632774,178.6898,0.04199315,1.350439602928946,3,6.000906205260658,-9999,106391.686252375,0.9874114990234375,0.0960235595703125,-0.045654296875,106391.680209375,2.207017360537756,1.529307286057433,-0.1033459365137287,0.004336212761700153,0.01185758039355278,0.001672404352575541,-0.01690167188644409,-0.005677729845046997,-0.01331448554992676,2,0.6340340682655282,-0.2781598125900335,-0.6272924086550137,-0.3565558797726627,0.9938085675239563,0.1031620725989342,-0.04125583916902542,26.37758636474609,22.55123138427734,1.457305908203125,2,106390.876468375,2,0,1582559301.048543,1582558685.643339,11,0.6387488,0,0,10.91,0,0,1582558765.788069,106388.712381,0,4.993973,99.30521
1582559301.86305,102,0,1582559300.998879,41.20592372835273,29.07252323632774,178.6898,0.04199315,1.350439602928946,3,6.000906205260658,-9999,106391.6962895,0.9958343505859375,0.0993194580078125,-0.033172607421875,106391.690250375,2.207055903328285,1.528919993329097,-0.1032951179631424,-0.002722833538427949,-0.0344923660159111,0.004878484178334475,-0.004256546497344971,-0.00692412257194519,-0.001469969749450684,2,0.6339105081566399,-0.2780952964239436,-0.6274307855605864,-0.3565823721185715,0.9937977194786072,0.1031115278601646,-0.04164094850420952,26.37758636474609,22.55123138427734,1.457305908203125,2,106390.876468375,2,0,1582559301.048543,1582558685.643339,11,0.6387488,0,0,10.91,0,0,1582558765.788069,106388.712381,0,4.993973,99.30521
1582559301.888818,103,0,1582559300.998879,41.20592372835273,29.07252323632774,178.6898,0.04199315,1.350439602928946,3,6.000906205260658,-9999,106391.7063305,0.9955596923828125,0.103790283203125,-0.036102294921875,106391.7002875,2.207210133783595,1.527874513853602,-0.1031323315986342,-0.01528656203299761,-0.1083239763975143,0.02068114839494228,0.001965880393981934,-0.002291262149810791,0.01006853580474854,2,0.6335800014360794,-0.277913760523195,-0.6278177031210984,-0.3566305449596269,0.9937705397605896,0.1029496043920517,-0.04268064722418785,26.41854095458984,22.60538482666016,1.51483154296875,2,106390.876468375,2,0,1582559301.048543,1582558685.643339,11,0.6387488,0,0,10.91,0,0,1582558765.788069,106388.712381,0,4.993973,99.30521
1582559301.890345,104,0,1582559300.998879,41.20592372835273,29.07252323632774,178.6898,0.04199315,1.350439602928946,3,6.000906205260658,-9999,106391.7163705,0.987640380859375,0.100860595703125,-0.0499267578125,106391.7103275,2.207363565966528,1.526520411222684,-0.1030187728109542,-0.01443127915263176,-0.13702392578125,0.01024597696959972,0.001738548278808594,0.0005378127098083496,0.004914999008178711,2,0.633159483248777,-0.2776610867119285,-0.6282932868874743,-0.3567362207224884,0.9937232136726379,0.1028366461396217,-0.04402678087353706,26.41854095458984,22.60538482666016,1.51483154296875,2,106390.876468375,2,0,1582559301.048543,1582558685.643339,11,0.6387488,0,0,10.91,0,0,1582558765.788069,106388.712381,0,4.993973,99.30521
1582559301.891594,105,0,1582559300.998879,41.20592372835273,29.07252323632774,178.6898,0.04199315,1.350439602928946,3,6.000906205260658,-9999,106391.7264105,0.9745941162109375,0.1000823974609375,-0.0533599853515625,106391.7203685,2.207495531767465,1.525087113591294,-0.1029628458227498,-0.01195134315639734,-0.1390636414289474,0.005325520411133766,-0.01112711429595947,-0.002275228500366211,-0.007255077362060547,2,0.6327191345716955,-0.277382127544703,-0.6287801190960683,-0.3568769520208341,0.9936649799346924,0.1027810201048851,-0.04545130580663681,26.34531402587891,22.75216674804688,1.4505615234375,2,106390.876468375,2,0,1582559301.048543,1582558685.643339,11,0.6387488,0,0,10.91,0,0,1582558765.788069,106388.712381,0,4.993973,99.30521
1582559301.902365,106,0,1582559300.998879,41.20592372835273,29.07252323632774,178.6898,0.04199315,1.350439602928946,3,6.000906205260658,-9999,106391.7364505,0.97412109375,0.09967041015625,-0.0583343505859375,106391.7304085,2.207643059249549,1.523504448209313,-0.1029334791134474,-0.01701974868774414,-0.1631637811660767,0.006536835338920355,-0.01854878664016724,-0.002505362033843994,-0.005849242210388184,2,0.632237483661364,-0.2770627168862558,-0.6293120182772014,-0.3570411543308905,0.9935948848724365,0.1027518063783646,-0.04702403023838997,26.34531402587891,22.75216674804688,1.4505615234375,2,106390.876468375,2,0,1582559301.048543,1582558685.643339,11,0.6387488,0,0,10.91,0,0,1582558765.788069,106388.712381,0,4.993973,99.30521
1582559301.911243,107,0,1582559300.998879,41.20592372835273,29.07252323632774,178.6898,0.04199315,1.350439602928946,3,6.000906205260658,-9999,106391.7464915,0.9598388671875,0.0892486572265625,-0.0821533203125,106391.7404485,2.20772378684935,1.522412760564242,-0.1031198711846188,-0.00829017162322998,-0.1077761650085449,-0.01842870190739632,-0.02317720651626587,-0.004720211029052734,-0.01562893390655518,2,0.6319324253282009,-0.276780640190364,-0.6296394840648806,-0.3572227278167655,0.993523895740509,0.102937214076519,-0.04810777306556702,26.37589263916016,23.00478363037109,1.53057861328125,2,106390.876468375,2,0,1582559301.048543,1582558685.643339,11,0.6387488,0,0,10.91,0,0,1582558765.788069,106388.712381,0,4.993973,99.30521
1582559301.939819,108,0,1582559300.998879,41.20592372835273,29.07252323632774,178.6898,0.04199315,1.350439602928946,3,6.000906205260658,-9999,106391.7565315,0.99273681640625,0.0879974365234375,-0.054962158203125,106391.7505195,2.207796071918712,1.521692321525918,-0.1036104460193169,-0.009178603067994118,-0.06430520117282867,-0.04937240108847618,-0.03185033798217773,-0.01570653915405273,-0.0333024263381958,2,0.6317876463793018,-0.2764667211431466,-0.6297956990235372,-0.357446266460637,0.9934383034706116,0.1034251675009727,-0.04882104322314262,26.37589263916016,23.00478363037109,1.53057861328125,2,106390.876468375,2,0,1582559301.048543,1582558685.643339,11,0.6387488,0,0,10.91,0,0,1582558765.788069,106388.712381,0,4.993973,99.30521
1582559301.940523,109,0,1582559300.998879,41.20592372835273,29.07252323632774,178.6898,0.04199315,1.350439602928946,3,6.000906205260658,-9999,106391.7665715,1.009140014648438,0.09136962890625,-0.0401458740234375,106391.7605595,2.207936319493077,1.520384798262372,-0.1043237244936251,-0.01918809488415718,-0.1385386884212494,-0.06953998655080795,0.0073356032371521,-0.01510405540466309,0.002920746803283691,2,0.6314999106758742,-0.2759524528326221,-0.6301112130571597,-0.3577958253939103,0.9932996034622192,0.1041345968842506,-0.05011621490120888,26.42919158935547,23.07568359375,1.380279541015625,2,106390.876468375,2,0,1582559301.048543,1582558685.643339,11,0.6387488,0,0,10.91,0,0,1582558765.788069,106388.712381,0,4.993973,99.30521
1582559301.941181,110,0,1582559300.998879,41.20592372835273,29.07252323632774,178.6898,0.04199315,1.350439602928946,3,6.000906205260658,-9999,106391.7766115,0.9678955078125,0.088897705078125,-0.081207275390625,106391.7706005,2.208075372294567,1.519155446995401,-0.1053285833207915,-0.01827050559222698,-0.1279857605695724,-0.1001139730215073,0.008998394012451172,-0.0139370858669281,0.004076004028320312,2,0.6312791760557692,-0.2753555345373949,-0.6303516384513241,-0.3582215117282229,0.9931322932243347,0.1051339358091354,-0.05133186280727386,26.42919158935547,23.07568359375,1.380279541015625,2,106390.876468375,2,0,1582559301.048543,1582558685.643339,11,0.6387488,0,0,10.91,0,0,1582558765.788069,106388.712381,0,4.993973,99.30521
1582559301.95116,111,0,1582559300.998879,41.20592372835273,29.07252323632774,178.6898,0.04199315,1.350439602928946,3,6.000906205260658,-9999,106391.7866525,0.9713134765625,0.10052490234375,-0.0694580078125,106391.7806405,2.208174568686918,1.518448086341375,-0.106537497186744,-0.01547977980226278,-0.06763266772031784,-0.1222730726003647,-0.03009802103042603,-0.01674199104309082,-0.03305429220199585,2,0.6312471717296247,-0.2747966063498666,-0.6303849796778176,-0.3586482445896634,0.9929680824279785,0.1063360720872879,-0.05202766507863998,26.21009063720703,23.03157806396484,1.376739501953125,2,106390.876468375,2,0,1582559301.048543,1582558685.643339,11,0.6387488,0,0,10.91,0,0,1582558765.788069,106388.712381,0,4.993973,99.30521
1582559301.961121,112,0,1582559300.998879,41.20592372835273,29.07252323632774,178.6898,0.04199315,1.350439602928946,3,6.000906205260658,-9999,106391.7966925,0.9679718017578125,0.1207275390625,-0.0551910400390625,106391.7906805,2.208290800114771,1.517569373924412,-0.1075917148576294,-0.01825886964797974,-0.0940915048122406,-0.1058105081319809,-0.01745760440826416,-0.002959072589874268,-0.01096224784851074,2,0.6311406187368127,-0.2742524857882342,-0.6305019038948665,-0.3590465187314592,0.992809534072876,0.1073842570185661,-0.05289418622851372,26.21009063720703,23.03157806396484,1.376739501953125,2,106390.876468375,2,0,1582559301.048543,1582558685.643339,11,0.6387488,0,0,10.91,0,0,1582558765.788069,106388.712381,0,4.993973,99.30521
1582559301.971121,113,0,1582559300.998879,41.20592372835273,29.07252323632774,178.6898,0.04199315,1.350439602928946,3,6.000906205260658,-9999,106391.8067325,0.925140380859375,0.12451171875,-0.0840911865234375,106391.8007205,2.208322474565263,1.516926260508328,-0.1083337036887508,-0.006372649222612381,-0.06835232675075531,-0.07397507876157761,-0.03402107954025269,0.01526957750320435,-0.006146788597106934,2,0.6310508698944828,-0.2738806673779878,-0.6305828912017019,-0.3593457133311011,0.9926954507827759,0.1081219241023064,-0.05352836102247238,26.34586334228516,23.08986663818359,1.328765869140625,2,106390.876468375,2,0,1582559301.048543,1582558685.643339,11,0.6387488,0,0,10.91,0,0,1582558765.788069,106388.712381,0,4.993973,99.30521
1582559301.991322,114,0,1582559300.998879,41.20592372835273,29.07252323632774,178.6898,0.04199315,1.350439602928946,3,6.000906205260658,-9999,106391.8167735,0.956390380859375,0.111602783203125,-0.0729827880859375,106391.8107615,2.208251830340604,1.516879381242085,-0.1088890292723745,0.00461431173607707,0.005928851664066315,-0.05471891909837723,-0.06948083639144897,0.01335924863815308,-0.03430140018463135,2,0.6311076970021128,-0.2737101506560123,-0.6304894665927937,-0.3595398322027337,0.9926329255104065,0.1086739748716354,-0.05357165634632111,26.34586334228516,23.08986663818359,1.328765869140625,2,106390.876468375,2,0,1582559301.048543,1582558685.643339,11,0.6387488,0,0,10.91,0,0,1582558765.788069,106388.712381,0,4.993973,99.30521
1582559301.99207,115,0,1582559300.998879,41.20592372835273,29.07252323632774,178.6898,0.04199315,1.350439602928946,3,6.000906205260658,-9999,106391.8268135,0.988677978515625,0.10980224609375,-0.050872802734375,106391.8208015,2.208181781133527,1.516571520000711,-0.1093784270841971,0.003633469576016068,-0.03096471726894379,-0.04952868446707726,-0.02500796318054199,0.001245349645614624,-0.01165974140167236,2,0.6310726706201339,-0.2735143594704759,-0.6304897665589821,-0.3597497514353956,0.9925631880760193,0.1091604605317116,-0.05387435853481293,26.28437042236328,22.88001251220703,1.328094482421875,2,106390.876468375,2,0,1582559301.048543,1582558685.643339,11,0.6387488,0,0,10.91,0,0,1582558765.788069,106388.712381,0,4.993973,99.30521
1582559302.001266,116,0,1582559300.998879,41.20592372835273,29.07252323632774,178.6898,0.04199315,1.350439602928946,3,6.000906205260658,-9999,106391.8368535,0.968231201171875,0.109710693359375,-0.0686492919921875,106391.8308415,2.208124970305204,1.516087435739178,-0.1098181585841757,0.002629296388477087,-0.04823891818523407,-0.04608270898461342,-0.006577491760253906,0.0001365840435028076,0.000552058219909668,2,0.6309766361420939,-0.2732990742984835,-0.6305564934834319,-0.3599646504665602,0.9924888610839844,0.1095975562930107,-0.05435220152139664,26.28437042236328,22.88001251220703,1.328094482421875,2,106390.876468375,2,0,1582559301.048543,1582558685.643339,11,0.6387488,0,0,10.91,0,0,1582558765.788069,106388.712381,0,4.993973,99.30521
1582559302.011324,117,0,1582559300.998879,41.20592372835273,29.07252323632774,178.6898,0.04199315,1.350439602928946,3,6.000906205260658,-9999,106391.8468935,0.9677734375,0.113433837890625,-0.0667266845703125,106391.8408825,2.208064838229628,1.515738388595782,-0.1101838777461747,0.004126259125769138,-0.03285250067710876,-0.0390239991247654,-0.02745342254638672,7.811188697814941e-05,-0.01645267009735107,2,0.6309118591603302,-0.2731336983070509,-0.6305928189723413,-0.3601401339449709,0.992429792881012,0.109961062669754,-0.05469641834497452,26.24028778076172,23.0130615234375,1.3717041015625,2,106391.8404855,4,2,1582559302.01256,1582558685.643339,11,0.6387488,0,0,10.91,0,0,1582558765.788069,106388.712381,0,4.993973,99.30521
1582559302.021806,118,0,1582559300.998879,41.20592372835273,29.07252323632774,178.6898,0.04199315,1.350439602928946,3,6.000906205260658,-9999,106391.8569345,0.96484375,0.119354248046875,-0.0619964599609375,106391.8509225,2.207983814266782,1.515293530586198,-0.1103933595847367,0.006601554341614246,-0.04694417119026184,-0.02291453070938587,-0.02356076240539551,0.004188060760498047,-0.009649395942687988,2,0.6307911741927374,-0.2730094948412087,-0.630682426334914,-0.3602886932521498,0.992382287979126,0.1101692765951157,-0.05513662099838257,26.24028778076172,23.0130615234375,1.3717041015625,2,106391.8404855,4,2,1582559302.01256,1582558685.643339,11,0.6387488,0,0,10.91,0,0,1582558765.788069,106388.712381,0,4.993973,99.30521
1582559302.03143,119,0,1582559300.998879,41.20592372835273,29.07252323632774,178.6898,0.04199315,1.350439602928946,3,6.000906205260658,-9999,106391.8669745,0.944854736328125,0.1209869384765625,-0.076446533203125,106391.8609625,2.207845736277398,1.514980299329781,-0.1103989353055109,0.0139241823926568,-0.03029195591807365,-0.001425218768417835,-0.03214883804321289,0.01020970940589905,-0.008911073207855225,2,0.6306743481508762,-0.2729947790620069,-0.6307554249897136,-0.3603767089765949,0.9923644661903381,0.1101748198270798,-0.05544743314385414,26.35909271240234,23.01164245605469,1.23052978515625,2,106391.8404855,4,2,1582559302.01256,1582558685.643339,11,0.6387488,0,0,10.91,0,0,1582558765.788069,106388.712381,0,4.993973,99.30521
1582559302.057807,120,0,1582559300.998879,41.20592372835273,29.07252323632774,178.6898,0.04199315,1.350439602928946,3,6.000906205260658,-9999,106391.8770145,0.945953369140625,0.1143951416015625,-0.083465576171875,106391.8710025,2.20761077648474,1.515229012378199,-0.1103188462246483,0.0245676264166832,0.02799440361559391,0.007202251348644495,-0.05013114213943481,0.00996890664100647,-0.02430981397628784,2,0.6307090026539048,-0.2731402654037655,-0.6306483630496129,-0.3603929347826491,0.9923868179321289,0.1100952178239822,-0.05520109832286835,26.35909271240234,23.01164245605469,1.23052978515625,2,106391.8404855,4,2,1582559302.01256,1582558685.643339,11,0.6387488,0,0,10.91,0,0,1582558765.788069,106388.712381,0,4.993973,99.30521
1582559302.058912,121,0,1582559300.998879,41.20592372835273,29.07252323632774,178.6898,0.04199315,1.350439602928946,3,6.000906205260658,-9999,106391.8870555,0.950714111328125,0.1089324951171875,-0.0828094482421875,106391.8810435,2.207250517185146,1.516062613673793,-0.1102755359321209,0.03629006072878838,0.08505076169967651,0.005436309147626162,-0.04458153247833252,0.003008157014846802,-0.02901303768157959,2,0.6309162410558037,-0.2734184652229307,-0.6303279292915231,-0.3603796571741062,0.9924371838569641,0.1100521683692932,-0.0543740801513195,26.33739471435547,23.20974731445312,1.1536865234375,2,106391.8404855,4,2,1582559302.01256,1582558685.643339,11,0.6387488,0,0,10.91,0,0,1582558765.788069,106388.712381,0,4.993973,99.30521
1582559302.061539,122,0,1582559300.998879,41.20592372835273,29.07252323632774,178.6898,0.04199315,1.350439602928946,3,6.000906205260658,-9999,106391.8971255,0.93096923828125,0.1083831787109375,-0.0967254638671875,106391.8910835,2.206780663776563,1.517651647091161,-0.1103174950811466,0.04598187655210495,0.1652559340000153,-0.006595429964363575,-0.04501301050186157,-0.002007901668548584,-0.03237605094909668,2,0.6313586348250082,-0.2738391726327633,-0.6297347179929573,-0.3603228931078095,0.9925179481506348,0.1100938692688942,-0.05279676243662834,26.33739471435547,23.20974731445312,1.1536865234375,2,106391.8404855,4,2,1582559302.01256,1582558685.643339,11,0.6387488,0,0,10.91,0,0,1582558765.788069,106388.712381,0,4.993973,99.30521
1582559302.071604,123,0,1582559300.998879,41.20592372835273,29.07252323632774,178.6898,0.04199315,1.350439602928946,3,6.000906205260658,-9999,106391.9071665,0.9373626708984375,0.116424560546875,-0.0909881591796875,106391.9011235,2.206261659201744,1.520197495277638,-0.1102939795258138,0.04878512024879456,0.2654259204864502,0.0001008221879601479,-0.06458675861358643,-0.0006569623947143555,-0.0493544340133667,2,0.6320850996750292,-0.2744694261538821,-0.6288411217475628,-0.3601301650060117,0.992651641368866,0.1100704967975616,-0.05026992037892342,26.29143524169922,23.10675048828125,1.176177978515625,2,106391.8404855,4,2,1582559302.01256,1582558685.643339,11,0.6387488,0,0,10.91,0,0,1582558765.788069,106388.712381,0,4.993973,99.30521
1582559302.081993,124,0,1582559300.998879,41.20592372835273,29.07252323632774,178.6898,0.04199315,1.350439602928946,3,6.000906205260658,-9999,106391.9172065,0.9588165283203125,0.1177825927734375,-0.0649566650390625,106391.9111635,2.205660568439076,1.523291702533743,-0.1101703135185417,0.05853491276502609,0.3154720366001129,0.01060902141034603,-0.05117100477218628,0.007782012224197388,-0.03846549987792969,2,0.632956498916814,-0.2752574111125291,-0.6277756859056404,-0.3598568024087468,0.9928159117698669,0.1099475845694542,-0.04719885438680649,26.29143524169922,23.10675048828125,1.176177978515625,2,106391.8404855,4,2,1582559302.01256,1582558685.643339,11,0.6387488,0,0,10.91,0,0,1582558765.788069,106388.712381,0,4.993973,99.30521
1582559302.091904,125,0,1582559300.998879,41.20592372835273,29.07252323632774,178.6898,0.04199315,1.350439602928946,3,6.000906205260658,-9999,106391.9272465,0.959869384765625,0.1150665283203125,-0.059295654296875,106391.9212045,2.204970663605189,1.526612188642643,-0.1099787580432975,0.07071062177419662,0.3412740528583527,0.01523679681122303,-0.03288018703460693,0.007285863161087036,-0.01876771450042725,2,0.6338747186883428,-0.2761365339405999,-0.6266333183395544,-0.3595583472229411,0.9929884076118469,0.1097571849822998,-0.04390291124582291,26.13356781005859,23.07106018066406,1.25433349609375,2,106391.8404855,4,2,1582559302.01256,1582558685.643339,11,0.6387488,0,0,10.91,0,0,1582558765.788069,106388.712381,0,4.993973,99.30521
1582559302.101942,126,0,1582559300.998879,41.20592372835273,29.07252323632774,178.6898,0.04199315,1.350439602928946,3,6.000906205260658,-9999,106391.9372875,0.956024169921875,0.1121063232421875,-0.0688323974609375,106391.9312445,2.204288629273279,1.530233013644994,-0.1096816544656371,0.0683305487036705,0.3662946224212646,0.02788872271776199,-0.03477436304092407,0.00576549768447876,-0.02036517858505249,2,0.6348704418040908,-0.2771015454267116,-0.6254138441539479,-0.3591820702751159,0.993173360824585,0.1094618737697601,-0.04030851274728775,26.13356781005859,23.07106018066406,1.25433349609375,2,106391.8404855,4,2,1582559302.01256,1582558685.643339,11,0.6387488,0,0,10.91,0,0,1582558765.788069,106388.712381,0,4.993973,99.30521
1582559302.122119,127,0,1582559300.998879,41.20592372835273,29.07252323632774,178.6898,0.04199315,1.350439602928946,3,6.000906205260658,-9999,106391.9473275,0.9654388427734375,0.10528564453125,-0.0639495849609375,106391.9412845,2.203637307609926,1.534446665698508,-0.1093622849811212,0.06540799140930176,0.4346276223659515,0.02881097421050072,-0.03793054819107056,0.000956118106842041,-0.03503400087356567,2,0.6360496932111376,-0.2781699392710164,-0.6240136843733195,-0.3587047679365582,0.9933692216873169,0.1091444194316864,-0.03612454608082771,26.29285430908203,23.21593475341797,1.45660400390625,2,106391.8404855,4,2,1582559302.01256,1582558685.643339,11,0.6387488,0,0,10.91,0,0,1582558765.788069,106388.712381,0,4.993973,99.30521
1582559302.123319,128,0,1582559300.998879,41.20592372835273,29.07252323632774,178.6898,0.04199315,1.350439602928946,3,6.000906205260658,-9999,106391.9573675,0.98980712890625,0.1060791015625,-0.03594970703125,106391.9513255,2.203022763465381,1.538660961813339,-0.1090309857928667,0.06280821561813354,0.4305271506309509,0.03403955698013306,-0.02346193790435791,-0.003429383039474487,-0.02643489837646484,2,0.6372293046625865,-0.2792298169978871,-0.6226198115297612,-0.3582094550521333,0.9935486912727356,0.1088150888681412,-0.03193904459476471,26.29285430908203,23.21593475341797,1.45660400390625,2,106391.8404855,4,2,1582559302.01256,1582558685.643339,11,0.6387488,0,0,10.91,0,0,1582558765.788069,106388.712381,0,4.993973,99.30521
1582559302.132006,129,0,1582559300.998879,41.20592372835273,29.07252323632774,178.6898,0.04199315,1.350439602928946,3,6.000906205260658,-9999,106391.9674075,1.0025634765625,0.100372314453125,-0.0288543701171875,106391.9613655,2.202464976511606,1.542570202411426,-0.1087861560002201,0.05646669492125511,0.4013330340385437,0.02340022847056389,-0.001328110694885254,-0.003491044044494629,-0.006119847297668457,2,0.6383314580397985,-0.2801877565348941,-0.6213161298631349,-0.357762453903226,0.9936925768852234,0.1085717156529427,-0.02805554121732712,26.21213531494141,23.16220092773438,1.526336669921875,2,106391.8404855,4,2,1582559302.01256,1582558685.643339,11,0.6387488,0,0,10.91,0,0,1582558765.788069,106388.712381,0,4.993973,99.30521
1582559302.141881,130,0,1582559300.998879,41.20592372835273,29.07252323632774,178.6898,0.04199315,1.350439602928946,3,6.000906205260658,-9999,106391.9774485,0.9965667724609375,0.0980987548828125,-0.0213165283203125,106391.9714055,2.201897265115693,1.546017740888801,-0.1086765283512179,0.05887337774038315,0.3529556095600128,0.009740481153130531,0.009494364261627197,-0.008722603321075439,-0.002253472805023193,2,0.6393058843022599,-0.2810214289125768,-0.6201326906444015,-0.3574219268622924,0.9937953948974609,0.1084627360105515,-0.02462988533079624,26.21213531494141,23.16220092773438,1.526336669921875,2,106391.8404855,4,2,1582559302.01256,1582558685.643339,11,0.6387488,0,0,10.91,0,0,1582558765.788069,106388.712381,0,4.993973,99.30521
1582559302.151989,131,0,1582559301.998871,41.20592426242503,29.07252464607758,178.6949,0.1520078,0.7924064776322929,3,6.000906205260658,-9999,106391.9874885,0.9869537353515625,0.10009765625,-0.022705078125,106391.9814455,2.201345927085115,1.548913504954971,-0.1087456634635385,0.05430419370532036,0.3029449284076691,-0.01014987006783485,-0.001032829284667969,-0.01112598180770874,-0.001196026802062988,2,0.6401354711378204,-0.2816925038684057,-0.6190957936177082,-0.3572062230973375,0.9938549995422363,0.1085314601659775,-0.02175182290375233,26.21550750732422,22.98954772949219,1.912750244140625,2,106391.8404855,4,2,1582559302.01256,1582558685.643339,11,0.6387488,0,0,10.91,0,0,1582558765.788069,106388.712381,0,4.993973,99.30521
1582559302.176882,132,0,1582559301.998871,41.20592426242503,29.07252464607758,178.6949,0.1520078,0.7924064776322929,3,6.000906205260658,-9999,106391.9975285,0.9832611083984375,0.1051483154296875,-0.028045654296875,106391.9914865,2.200789532751632,1.551386344584519,-0.1088550272543842,0.05316002294421196,0.249702125787735,-0.009829678572714329,-0.006564736366271973,-0.007038593292236328,-0.00258713960647583,2,0.640837752077817,-0.2822765198155901,-0.6181852838789766,-0.3570627323929002,0.9938938021659851,0.1086401790380478,-0.01929388381540775,26.22264862060547,22.96623992919922,1.881256103515625,2,106391.8404855,4,2,1582559302.01256,1582558685.643339,11,0.6387488,0,0,10.91,0,0,1582558765.788069,106388.712381,0,4.993973,99.30521
1582559302.177776,133,0,1582559301.998871,41.20592426242503,29.07252464607758,178.6949,0.1520078,0.7924064776322929,3,6.000906205260658,-9999,106392.0075695,0.959991455078125,0.1021575927734375,-0.050048828125,106392.0015575,2.200144442882483,1.554274157946289,-0.1090661500470483,0.06306858360767365,0.2972906827926636,-0.02196117676794529,-0.01652681827545166,-0.004044204950332642,-0.01717787981033325,2,0.6416689286546963,-0.282929959463169,-0.6171070814977956,-0.3569178667532007,0.9939224123954773,0.1088500469923019,-0.01642324775457382,26.22264862060547,22.96623992919922,1.881256103515625,2,106391.8404855,4,2,1582559302.01256,1582558685.643339,11,0.6387488,0,0,10.91,0,0,1582558765.788069,106388.712381,0,4.993973,99.30521
1582559302.182144,134,0,1582559301.998871,41.20592426242503,29.07252464607758,178.6949,0.1520078,0.7924064776322929,3,6.000906205260658,-9999,106392.0176095,0.977142333984375,0.0986480712890625,-0.0340423583984375,106392.0115975,2.199516857532025,1.55758242599898,-0.1093650714419245,0.06090190261602402,0.3442341685295105,-0.02946677803993225,-0.03377026319503784,-0.007744103670120239,-0.03699308633804321,2,0.6426429068884972,-0.2836244119361538,-0.6158802960462095,-0.3567335423012058,0.9939388632774353,0.1091471910476685,-0.01313457451760769,26.29578399658203,23.06113433837891,2.00433349609375,2,106391.8404855,4,2,1582559302.01256,1582558685.643339,11,0.6387488,0,0,10.91,0,0,1582558765.788069,106388.712381,0,4.993973,99.30521
1582559302.192144,135,0,1582559301.998871,41.20592426242503,29.07252464607758,178.6949,0.1520078,0.7924064776322929,3,6.000906205260658,-9999,106392.0276495,0.9940948486328125,0.093353271484375,-0.0131988525390625,106392.0216375,2.198966631784462,1.560704125001335,-0.1098248764912507,0.05488848313689232,0.3251917660236359,-0.0462617389857769,-0.01304996013641357,-0.01187878847122192,-0.02006316184997559,2,0.6435913959637006,-0.2842085504714857,-0.6146971278435163,-0.3565993861328477,0.9939247369766235,0.1096042320132256,-0.01003122981637716,26.29578399658203,23.06113433837891,2.00433349609375,2,106391.8404855,4,2,1582559302.01256,1582558685.643339,11,0.6387488,0,0,10.91,0,0,1582558765.788069,106388.712381,0,4.993973,99.30521
1582559302.202136,136,0,1582559301.998871,41.20592426242503,29.07252464607758,178.6949,0.1520078,0.7924064776322929,3,6.000906205260658,-9999,106392.0376895,1.0089111328125,0.104949951171875,0.0108795166015625,106392.0316775,2.198597522141863,1.562957602737988,-0.1103453480090442,0.03451273217797279,0.2311571687459946,-0.05449964851140976,0.003069937229156494,-0.01685187220573425,-0.000865936279296875,2,0.6443058593392994,-0.284560142154214,-0.6138136041932873,-0.3565506360950227,0.9938876032829285,0.1101215556263924,-0.007790970150381327,26.18105316162109,23.06949615478516,1.909210205078125,2,106391.8404855,4,2,1582559302.01256,1582558685.643339,11,0.6387488,0,0,10.91,0,0,1582558765.788069,106388.712381,0,4.993973,99.30521
1582559302.212357,137,0,1582559301.998871,41.20592426242503,29.07252464607758,178.6949,0.1520078,0.7924064776322929,3,6.000906205260658,-9999,106392.0477305,0.99407958984375,0.114898681640625,-0.005859375,106392.0417185,2.198352049634601,1.564405873351831,-0.1106590971946665,0.02447581104934216,0.1424454003572464,-0.02861105650663376,0.0145842432975769,-0.001233756542205811,0.01751488447189331,2,0.6447602599194854,-0.2847956210488542,-0.6132474771127931,-0.3565152905674998,0.9938631653785706,0.110433392226696,-0.006351322866976261,26.18105316162109,23.06949615478516,1.909210205078125,2,106391.8404855,4,2,1582559302.01256,1582558685.643339,11,0.6387488,0,0,10.91,0,0,1582558765.788069,106389.648627,0,4.978119,99.3054
1582559302.241737,138,0,1582559301.998871,41.20592426242503,29.07252464607758,178.6949,0.1520078,0.7924064776322929,3,6.000906205260658,-9999,106392.0577705,0.9938201904296875,0.1006317138671875,-0.0091400146484375,106392.0517585,2.198186187229756,1.565617053300199,-0.1109174911655865,0.01635634154081345,0.127213716506958,-0.02619097009301186,-0.004223346710205078,0.001759499311447144,-0.005936622619628906,2,0.6451449268257443,-0.2849812473678203,-0.6127815557078582,-0.3564723874721114,0.9938417077064514,0.1106901988387108,-0.005147424060851336,26.05274200439453,22.86381530761719,1.992889404296875,2,106391.8404855,4,2,1582559302.01256,1582558685.643339,11,0.6387488,0,0,10.91,0,0,1582558765.788069,106389.648627,0,4.978119,99.3054
1582559302.243032,139,0,1582559301.998871,41.20592426242503,29.07252464607758,178.6949,0.1520078,0.7924064776322929,3,6.000906205260658,-9999,106392.0678105,1.010498046875,0.095489501953125,0.0076751708984375,106392.0617985,2.198113735370812,1.566249356864004,-0.1112107498332703,0.004651747643947601,0.06769634038209915,-0.0290506724268198,0.004457831382751465,-0.01232606172561646,-0.001209914684295654,2,0.6453703520280067,-0.2850222381308366,-0.612512502847037,-0.3564937711373219,0.9938121438026428,0.1109816506505013,-0.004518865142017603,26.05274200439453,22.86381530761719,1.992889404296875,2,106391.8404855,4,2,1582559302.01256,1582558685.643339,11,0.6387488,0,0,10.91,0,0,1582558765.788069,106389.648627,0,4.978119,99.3054
1582559302.244116,140,0,1582559301.998871,41.20592426242503,29.07252464607758,178.6949,0.1520078,0.7924064776322929,3,6.000906205260658,-9999,106392.0778505,0.9956207275390625,0.0960540771484375,-0.00262451171875,106392.0718395,2.198134176559136,1.566243937744991,-0.1115697508961414,-0.002698065945878625,0.0001662801951169968,-0.03602074459195137,0.0149804949760437,-0.01578053832054138,0.01171952486038208,2,0.6454230419290936,-0.284898336979399,-0.6124541468807967,-0.3565977152657195,0.9937722086906433,0.1113384291529655,-0.004524068906903267,25.95244598388672,23.04178619384766,1.899017333984375,2,106391.8404855,4,2,1582559302.01256,1582558685.643339,11,0.6387488,0,0,10.91,0,0,1582558765.788069,106389.648627,0,4.978119,99.3054
1582559302.252402,141,0,1582559301.998871,41.20592426242503,29.07252464607758,178.6949,0.1520078,0.7924064776322929,3,6.000906205260658,-9999,106392.0878915,0.9899139404296875,0.100830078125,-0.00726318359375,106392.0818795,2.198249263087061,1.565823133653024,-0.1119185741515159,-0.01221753470599651,-0.0399869978427887,-0.03490594401955605,-0.0008630156517028809,-0.01548647880554199,-0.0005881190299987793,2,0.6453605346057061,-0.2846730603576273,-0.6125484457012265,-0.3567286289772358,0.9937312602996826,0.111685074865818,-0.004942058119922876,25.95244598388672,23.04178619384766,1.899017333984375,2,106391.8404855,4,2,1582559302.01256,1582558685.643339,11,0.6387488,0,0,10.91,0,0,1582558765.788069,106389.648627,0,4.978119,99.3054
1582559302.264975,142,0,1582559301.998871,41.20592426242503,29.07252464607758,178.6949,0.1520078,0.7924064776322929,3,6.000906205260658,-9999,106392.0979315,0.9788360595703125,0.1171722412109375,-0.010955810546875,106392.0919195,2.198412454058113,1.565202893535233,-0.1121386669195629,-0.01604711450636387,-0.05784668400883675,-0.02434547245502472,-0.005870580673217773,-0.008426904678344727,-0.002748727798461914,2,0.6452252723045114,-0.2844384151269688,-0.6127386180943132,-0.3568339708523204,0.9937034845352173,0.1119037866592407,-0.005558271892368793,25.91902923583984,23.07389831542969,2.040618896484375,2,106391.8404855,4,2,1582559302.01256,1582558685.643339,11,0.6387488,0,0,10.91,0,0,1582558765.788069,106389.648627,0,4.978119,99.3054
1582559302.272455,143,0,1582559301.998871,41.20592426242503,29.07252464607758,178.6949,0.1520078,0.7924064776322929,3,6.000906205260658,-9999,106392.1079715,0.96881103515625,0.1257476806640625,-0.0108642578125,106392.1019595,2.198631368502412,1.56435792119699,-0.1121017875861093,-0.01937020756304264,-0.09099824726581573,0.0009500305168330669,-0.01696294546127319,0.007677286863327026,-0.003938078880310059,2,0.6449921550135921,-0.2842290367548044,-0.6130568467724299,-0.3568758564761115,0.9937026500701904,0.1118671447038651,-0.006397949066013098,25.91902923583984,23.07389831542969,2.040618896484375,2,106391.8404855,4,2,1582559302.01256,1582558685.643339,11,0.6387488,0,0,10.91,0,0,1582558765.788069,106389.648627,0,4.978119,99.3054
1582559302.284127,144,0,1582559301.998871,41.20592426242503,29.07252464607758,178.6949,0.1520078,0.7924064776322929,3,6.000906205260658,-9999,106392.1180125,0.9561920166015625,0.13238525390625,-0.03131103515625,106392.1120005,2.198922367787029,1.563677524581207,-0.1117724114868125,-0.02994369342923164,-0.06978606432676315,0.03266729041934013,-0.02859193086624146,0.01532900333404541,-0.00806814432144165,2,0.6447776958126847,-0.2841206828534084,-0.6133865670746439,-0.3567830046369277,0.9937348365783691,0.111539825797081,-0.007074321154505014,25.95125579833984,23.06218719482422,1.974395751953125,2,106391.8404855,4,2,1582559302.01256,1582558685.643339,11,0.6387488,0,0,10.91,0,0,1582558765.788069,106389.648627,0,4.978119,99.3054
1582559302.299594,145,0,1582559301.998871,41.20592426242503,29.07252464607758,178.6949,0.1520078,0.7924064776322929,3,6.000906205260658,-9999,106392.1280525,0.948394775390625,0.134674072265625,-0.0403900146484375,106392.1220405,2.199199492333649,1.563607647076008,-0.1111704810561564,-0.02771010063588619,-0.01331426855176687,0.06096950173377991,-0.03979748487472534,0.02254974842071533,-0.02742284536361694,2,0.6447093597787813,-0.2842142162962166,-0.6135651809031286,-0.3565246255980241,0.9938011765480042,0.1109416335821152,-0.007144241128116846,25.95125579833984,23.06218719482422,1.974395751953125,2,106391.8404855,4,2,1582559302.01256,1582558685.643339,11,0.6387488,0,0,10.91,0,0,1582558765.788069,106389.648627,0,4.978119,99.3054
1582559302.302917,146,0,1582559301.998871,41.20592426242503,29.07252464607758,178.6949,0.1520078,0.7924064776322929,3,6.000906205260658,-9999,106392.1380925,0.971221923828125,0.1157379150390625,-0.0219879150390625,106392.1320805,2.19945688517898,1.563960953338616,-0.1103628538236291,-0.02510778419673443,0.03874851763248444,0.08027726411819458,-0.04440599679946899,0.02168956398963928,-0.03283941745758057,2,0.6447385057512081,-0.2844563081200833,-0.6136403065659188,-0.3561495571579124,0.993893027305603,0.1101389527320862,-0.006793736014515162,25.94216156005859,23.02793121337891,2.13671875,2,106391.8404855,4,2,1582559302.01256,1582558685.643339,11,0.6387488,0,0,10.91,0,0,1582558765.788069,106389.648627,0,4.978119,99.3054
1582559302.312475,147,0,1582559301.998871,41.20592426242503,29.07252464607758,178.6949,0.1520078,0.7924064776322929,3,6.000906205260658,-9999,106392.1481325,0.9820404052734375,0.1151123046875,-0.0152435302734375,106392.1421215,2.199750184778912,1.564200293078128,-0.1093641341718475,-0.03033370524644852,0.01763337664306164,0.09820006787776947,-0.0179363489151001,0.004036545753479004,-0.0116381049156189,2,0.6447103801519014,-0.2847283543373239,-0.6137921314682517,-0.3557212021757388,0.9940041303634644,0.1091462522745132,-0.00655657984316349,25.94216156005859,23.02793121337891,2.13671875,2,106391.8404855,4,2,1582559302.01256,1582558685.643339,11,0.6387488,0,0,10.91,0,0,1582558765.788069,106389.648627,0,4.978119,99.3054
1582559302.322581,148,0,1582559301.998871,41.20592426242503,29.07252464607758,178.6949,0.1520078,0.7924064776322929,3,6.000906205260658,-9999,106392.1582035,0.9740753173828125,0.1172637939453125,-0.0261993408203125,106392.1521615,2.200029721354953,1.564615523598022,-0.1081145513062428,-0.02717158198356628,0.03636825084686279,0.1240532323718071,-0.0144275426864624,0.008483678102493286,-0.01224839687347412,2,0.6446982333691267,-0.2851172565042212,-0.6139288408385891,-0.3551952242669503,0.9941422343254089,0.1079040542244911,-0.006144675891846418,25.77831268310547,23.09638977050781,2.157257080078125,2,106391.8404855,4,2,1582559302.01256,1582558685.643339,11,0.6387488,0,0,10.91,0,0,1582558765.788069,106389.648627,0,4.978119,99.3054
1582559302.332615,149,0,1582559301.998871,41.20592426242503,29.07252464607758,178.6949,0.1520078,0.7924064776322929,3,6.000906205260658,-9999,106392.1682445,0.9774932861328125,0.11334228515625,-0.021942138671875,106392.1622015,2.200250405302308,1.565285029601554,-0.1066534134106722,-0.02124498225748539,0.06483212113380432,0.1444554477930069,-0.02079826593399048,0.009754002094268799,-0.02132105827331543,2,0.6447252630974193,-0.2856385105707374,-0.6140101748384074,-0.3545861019899887,0.9943026304244995,0.1064513325691223,-0.005479952786117792,25.77831268310547,23.09638977050781,2.157257080078125,2,106391.8404855,4,2,1582559302.01256,1582558685.643339,11,0.6387488,0,0,10.91,0,0,1582558765.788069,106389.648627,0,4.978119,99.3054
1582559302.347833,150,0,1582559301.998871,41.20592426242503,29.07252464607758,178.6949,0.1520078,0.7924064776322929,3,6.000906205260658,-9999,106392.1782845,0.979888916015625,0.11053466796875,-0.0201873779296875,106392.1722415,2.200408885094777,1.566182121299866,-0.1050060064075918,-0.0151709970086813,0.08747825771570206,0.1629671454429626,-0.0163993239402771,0.008112341165542603,-0.01674997806549072,2,0.6447863091424909,-0.2862799832221901,-0.614039690716162,-0.3539061549504591,0.9944812655448914,0.1048131436109543,-0.004588773474097252,25.93531036376953,22.9525146484375,2.03155517578125,2,106391.8404855,4,2,1582559302.01256,1582558685.643339,11,0.6387488,0,0,10.91,0,0,1582558765.788069,106389.648627,0,4.978119,99.3054
1582559302.352694,151,0,1582559301.998871,41.20592426242503,29.07252464607758,178.6949,0.1520078,0.7924064776322929,3,6.000906205260658,-9999,106392.1883245,0.976104736328125,0.12457275390625,-0.022613525390625,106392.1822825,2.200553035838432,1.567393738860644,-0.1030348224329139,-0.0140468766912818,0.118015930056572,0.1921979933977127,-0.01523584127426147,0.008013904094696045,-0.01713097095489502,2,0.6448950192320058,-0.2870856080671412,-0.6140217487692605,-0.3530855518154002,0.9946907162666321,0.1028526127338409,-0.003384535666555166,25.93531036376953,22.9525146484375,2.03155517578125,2,106391.8404855,4,2,1582559302.01256,1582558685.643339,11,0.6387488,0,0,10.91,0,0,1582558765.788069,106389.648627,0,4.978119,99.3054
1582559302.362851,152,0,1582559301.998871,41.20592426242503,29.07252464607758,178.6949,0.1520078,0.7924064776322929,3,6.000906205260658,-9999,106392.1983645,0.97052001953125,0.130767822265625,-0.0312652587890625,106392.1923225,2.20065823148987,1.569283126429177,-0.100379198003185,-0.01149734482169151,0.1920246779918671,0.2670665085315704,-0.02109479904174805,0.02812835574150085,-0.02415287494659424,2,0.6451070253845175,-0.2882431863414921,-0.6138981748265411,-0.3519684542147263,0.9949650764465332,0.1002107113599777,-0.001505582709796727,26.15639495849609,22.76206207275391,2.2596435546875,2,106391.8404855,4,2,1582559302.01256,1582558685.643339,11,0.6387488,0,0,10.91,0,0,1582558765.788069,106389.648627,0,4.978119,99.3054
1582559302.372765,153,0,1582559301.998871,41.20592426242503,29.07252464607758,178.6949,0.1520078,0.7924064776322929,3,6.000906205260658,-9999,106392.2084055,0.979827880859375,0.120697021484375,-0.017822265625,106392.2023625,2.200565244422179,1.571707188111795,-0.09705478147860012,0.01059783715754747,0.2486165761947632,0.3379659950733185,-0.02386468648910522,0.03256732225418091,-0.0310370922088623,2,0.645356964235861,-0.2897717652674197,-0.6136835454324144,-0.3506267359190607,0.9952933788299561,0.09690248221158981,0.0009065744816325605,26.15639495849609,22.76206207275391,2.2596435546875,2,106391.8404855,4,2,1582559302.01256,1582558685.643339,11,0.6387488,0,0,10.91,0,0,1582558765.788069,106389.648627,0,4.978119,99.3054
1582559302.38288,154,0,1582559301.998871,41.20592426242503,29.07252464607758,178.6949,0.1520078,0.7924064776322929,3,6.000906205260658,-9999,106392.2184455,0.98486328125,0.11761474609375,-0.009124755859375,106392.2124035,2.200261577556088,1.574236021167817,-0.09332647927562659,0.02831497602164745,0.2628167271614075,0.3718675076961517,-0.01521098613739014,0.02471441030502319,-0.01901447772979736,2,0.6455482558523046,-0.2915129650813816,-0.6134678236873229,-0.3492060480245248,0.995642364025116,0.09319106489419937,0.003424718976020813,26.29911041259766,22.69584655761719,2.3067626953125,2,106391.8404855,4,2,1582559302.01256,1582558685.643339,11,0.6387488,0,0,10.91,0,0,1582558765.788069,106389.648627,0,4.978119,99.3054
1582559302.3929,155,0,1582559301.998871,41.20592426242503,29.07252464607758,178.6949,0.1520078,0.7924064776322929,3,6.000906205260658,-9999,106392.2284855,1.005508422851562,0.161865234375,-0.0086822509765625,106392.2224435,2.199313569460512,1.576428392712985,-0.08862083076762403,0.0857686847448349,0.2234706580638885,0.4615699648857117,-0.008884310722351074,0.03658974170684814,-0.01433432102203369,2,0.6453972608342685,-0.2937130282897776,-0.61341808648298,-0.3477258671542409,0.9960599541664124,0.08850487321615219,0.005609934683889151,26.29911041259766,22.69584655761719,2.3067626953125,2,106391.8404855,4,2,1582559302.01256,1582558685.643339,11,0.6387488,0,0,10.91,0,0,1582558765.788069,106389.648627,0,4.978119,99.3054
1582559302.408294,156,0,1582559301.998871,41.20592426242503,29.07252464607758,178.6949,0.1520078,0.7924064776322929,3,6.000906205260658,-9999,106392.2385265,0.995361328125,0.118682861328125,9.1552734375e-05,106392.2324835,2.197907442481071,1.57864953218637,-0.08202892194700448,0.1442414522171021,0.2437966465950012,0.6645348072052002,0.01078629493713379,0.07868325710296631,-0.01755952835083008,2,0.6449058781105236,-0.2966644019383241,-0.6136072079900704,-0.3457929341786878,0.996606707572937,0.08193696290254593,0.00782671757042408,26.68076324462891,22.23342895507812,2.39398193359375,2,106391.8404855,4,2,1582559302.01256,1582558685.643339,11,0.6387488,0,0,10.91,0,0,1582558765.788069,106389.648627,0,4.978119,99.3054
1582559302.413063,157,0,1582559301.998871,41.20592426242503,29.07252464607758,178.6949,0.1520078,0.7924064776322929,3,6.000906205260658,-9999,106392.2485665,1.007003784179688,0.08978271484375,0.0290985107421875,106392.2425235,2.197225152922164,1.580532330848152,-0.07396197309905678,0.05867595598101616,0.2032228708267212,0.8105639219284058,-0.004520058631896973,0.03419354557991028,-0.00433647632598877,2,0.6441914745621895,-0.299786525122327,-0.6142830409872333,-0.3432225761529599,0.9972187876701355,0.07389456033706665,0.009709233418107033,26.68076324462891,22.23342895507812,2.39398193359375,2,106391.8404855,4,2,1582559302.01256,1582558685.643339,11,0.6387488,0,0,10.91,0,0,1582558765.788069,106389.648627,0,4.978119,99.3054
1582559302.422988,158,0,1582559301.998871,41.20592426242503,29.07252464607758,178.6949,0.1520078,0.7924064776322929,3,6.000906205260658,-9999,106392.2586065,1.003097534179688,0.057373046875,0.025970458984375,106392.2525945,2.197062751708016,1.581369813357669,-0.06538566256894129,0.003324367105960846,0.08105912804603577,0.8616654276847839,0.01265227794647217,0.0199565589427948,0.02106678485870361,2,0.6431476174813653,-0.3027151967210855,-0.6154647416718217,-0.3404818201407342,0.9978073835372925,0.06533908098936081,0.01055069640278816,26.88756561279297,21.96488189697266,2.435333251953125,2,106391.8404855,4,2,1582559302.01256,1582558685.643339,11,0.6387488,0,0,10.91,0,0,1582558765.788069,106389.648627,0,4.978119,99.3054
1582559302.432814,159,0,1582559301.998871,41.20592426242503,29.07252464607758,178.6949,0.1520078,0.7924064776322929,3,6.000906205260658,-9999,106392.2686465,0.984466552734375,0.049407958984375,0.0056304931640625,106392.2626345,2.196909154684547,1.581583166010986,-0.05737093625577649,0.007228561211377382,0.02132975496351719,0.8032932281494141,-0.001600682735443115,-0.005441457033157349,0.009770631790161133,2,0.6419862143009775,-0.30534921395823,-0.6167425266421079,-0.3380003738405696,0.9982966780662537,0.05733947083353996,0.01076888386160135,26.88756561279297,21.96488189697266,2.435333251953125,2,106391.8404855,4,2,1582559302.01256,1582558685.643339,11,0.6387488,0,0,10.91,0,0,1582558765.788069,106389.648627,0,4.978119,99.3054
1582559302.443036,160,0,1582559301.998871,41.20592426242503,29.07252464607758,178.6949,0.1520078,0.7924064776322929,3,6.000906205260658,-9999,106392.2786875,0.981842041015625,0.057891845703125,0.0066375732421875,106392.2726755,2.196532357116606,1.581528513084614,-0.05012852001016332,0.02770762704312801,0.0001688022166490555,0.726570188999176,-0.01503682136535645,0.001092076301574707,-0.006399154663085938,2,0.6408146795590447,-0.3077593156932661,-0.6179285709704189,-0.3358647127479424,0.9986863732337952,0.05010752752423286,0.01071850024163723,27.33156585693359,21.87155914306641,2.38494873046875,2,106391.8404855,4,2,1582559302.01256,1582558685.643339,11,0.6387488,0,0,10.91,0,0,1582558765.788069,106389.648627,0,4.978119,99.3054
