loggingTime,loggingSample,identifierForVendor,locationTimestamp_since1970,locationLatitude,locationLongitude,locationAltitude,locationSpeed,locationCourse,locationVerticalAccuracy,locationHorizontalAccuracy,locationFloor,accelerometerTimestamp_sinceReboot,accelerometerAccelerationX,accelerometerAccelerationY,accelerometerAccelerationZ,motionTimestamp_sinceReboot,motionYaw,motionRoll,motionPitch,motionRotationRateX,motionRotationRateY,motionRotationRateZ,motionUserAccelerationX,motionUserAccelerationY,motionUserAccelerationZ,motionAttitudeReferenceFrame,motionQuaternionX,motionQuaternionY,motionQuaternionZ,motionQuaternionW,motionGravityX,motionGravityY,motionGravityZ,motionMagneticFieldX,motionMagneticFieldY,motionMagneticFieldZ,motionMagneticFieldCalibrationAccuracy,activityTimestamp_sinceReboot,activity,activityActivityConfidence,activityActivityStartDate,pedometerStartDate,pedometerNumberofSteps,pedometerAverageActivePace,pedometerCurrentPace,pedometerCurrentCadence,pedometerDistance,pedometerFloorAscended,pedometerFloorDescended,pedometerEndDate,altimeterTimestamp_sinceReboot,altimeterReset,altimeterRelativeAltitude,altimeterPressure
1580905887.181431,1,0,1580904337.000819,41.20701635159924,29.07533761282497,172.748,-1,-1,5.74967098236084,48.00724964208526,-9999,9602.913058,0.974639892578125,0.089141845703125,-0.16302490234375,9602.908022000001,0.8148639236096202,1.409065238958584,-0.09191961447919123,-0.03994755446910858,0.1040453314781189,0.01260244101285934,-0.02400368452072144,0.0006913840770721436,-0.01138478517532349,2,0.2885127871582698,-0.580161011036718,-0.2742710664199532,-0.7105975962737155,0.9827834367752075,0.09179022908210754,-0.1603471487760544,20.18045806884766,0.8296241760253906,16.75140380859375,2,9602.79530125,1,2,1580905887.036468,1580903939.50652,1577,0.4102195,0,0,2131.439,1,0,1580905796.492468,9600.452522,0,0.4597473,97.19775
1580905887.182808,2,0,1580904337.000819,41.20701635159924,29.07533761282497,172.748,-1,-1,5.74967098236084,48.00724964208526,-9999,9602.923098000001,0.972991943359375,0.08477783203125,-0.1548919677734375,9602.918063000001,0.8153226035209244,1.409977626524977,-0.09185739062531967,-0.04285599291324615,0.08486658334732056,0.01055420376360416,-0.009949564933776855,-0.002740859985351562,-0.004988372325897217,2,0.288749638669776,-0.5804291430739108,-0.2743212409637961,-0.7102629701923794,0.9829349517822266,0.09172827005386353,-0.1594513058662415,20.18045806884766,0.8296241760253906,16.75140380859375,2,9602.79530125,1,2,1580905887.036468,1580903939.50652,1577,0.4102195,0,0,2131.439,1,0,1580905796.492468,9600.452522,0,0.4597473,97.19775
1580905887.183883,3,0,1580904337.000819,41.20701635159924,29.07533761282497,172.748,-1,-1,5.74967098236084,48.00724964208526,-9999,9602.933138,0.973968505859375,0.086090087890625,-0.1624755859375,9602.928103,0.8158052284609778,1.410805129570808,-0.09185566962961697,-0.04831436276435852,0.08110363781452179,0.006509594619274139,-0.01172983646392822,-0.007103145122528076,0.002329528331756592,2,0.2890026370817014,-0.5806535293331665,-0.2743736027465065,-0.709956418309321,0.9830667972564697,0.09172654896974564,-0.1586379110813141,20.23359680175781,0.6220741271972656,16.67852783203125,2,9602.79530125,1,2,1580905887.036468,1580903939.50652,1577,0.4102195,0,0,2131.439,1,0,1580905796.492468,9600.452522,0,0.4597473,97.19775
1580905887.184967,4,0,1580904337.000819,41.20701635159924,29.07533761282497,172.748,-1,-1,5.74967098236084,48.00724964208526,-9999,9602.943179,0.9685211181640625,0.0887451171875,-0.1651458740234375,9602.938143000001,0.8162403265721772,1.411568730233906,-0.09181642770110578,-0.04087615385651588,0.07445958256721497,0.01303061190992594,-0.01087796688079834,-0.005751818418502808,-0.006005644798278809,2,0.2892203257246422,-0.5808680861111801,-0.2744295696076559,-0.7096704437620576,0.9831910729408264,0.09168747812509537,-0.1578877419233322,20.23359680175781,0.6220741271972656,16.67852783203125,2,9602.79530125,1,2,1580905887.036468,1580903939.50652,1577,0.4102195,0,0,2131.439,1,0,1580905796.492468,9600.452522,0,0.4597473,97.19775
1580905887.186282,5,0,1580904337.000819,41.20701635159924,29.07533761282497,172.748,-1,-1,5.74967098236084,48.00724964208526,-9999,9602.953219000001,0.962158203125,0.09185791015625,-0.1647491455078125,9602.948184000001,0.8166870206632203,1.412261758758806,-0.09182455058815606,-0.04655663669109344,0.06691595166921616,0.005296745337545872,-0.0164341926574707,-0.003104865550994873,-0.00935894250869751,2,0.289447968919342,-0.5810479934206172,-0.2744853128974997,-0.7094087528593875,0.9832994937896729,0.09169556200504303,-0.1572062075138092,20.29273223876953,0.7383918762207031,16.80740356445312,2,9602.79530125,1,2,1580905887.036468,1580903939.50652,1577,0.4102195,0,0,2131.439,1,0,1580905796.492468,9600.452522,0,0.4597473,97.19775
1580905887.208519,6,0,1580904337.000819,41.20701635159924,29.07533761282497,172.748,-1,-1,5.74967098236084,48.00724964208526,-9999,9602.96329,0.9665374755859375,0.0912322998046875,-0.1711578369140625,9602.958224,0.816992696091605,1.412899660886966,-0.09176159091844657,-0.02743993699550629,0.06383919715881348,0.01195012032985687,-0.02290308475494385,7.073581218719482e-05,-0.009589612483978271,2,0.289602758554268,-0.5812403342718043,-0.2745205421687779,-0.7091743455147146,0.9834052920341492,0.09163287281990051,-0.1565798372030258,20.29273223876953,0.7383918762207031,16.80740356445312,2,9602.79530125,1,2,1580905887.036468,1580903939.50652,1577,0.4102195,0,0,2131.439,1,0,1580905796.492468,9600.452522,0,0.4597473,97.19775
1580905887.209581,7,0,1580904337.000819,41.20701635159924,29.07533761282497,172.748,-1,-1,5.74967098236084,48.00724964208526,-9999,9602.973330000001,0.961181640625,0.0894622802734375,-0.1563568115234375,9602.968264000001,0.8172523698709012,1.413425226309833,-0.09168457316040818,-0.02467631176114082,0.05290484428405762,0.0112351393327117,-0.01861304044723511,-0.0004780292510986328,-0.01651471853256226,2,0.2897239435366437,-0.5814017447026484,-0.274559949486457,-0.7089773776003913,0.9834945797920227,0.09155617654323578,-0.1560640931129456,20.30531311035156,0.7750129699707031,16.67657470703125,2,9602.79530125,1,2,1580905887.036468,1580903939.50652,1577,0.4102195,0,0,2131.439,1,0,1580905796.492468,9600.452522,0,0.4597473,97.19775
1580905887.210365,8,0,1580904337.000819,41.20701635159924,29.07533761282497,172.748,-1,-1,5.74967098236084,48.00724964208526,-9999,9602.98337,0.971099853515625,0.0889739990234375,-0.16217041015625,9602.978304,0.8174757085713621,1.41386816686965,-0.09159175768525732,-0.02089275978505611,0.04399789869785309,0.01256272476166487,-0.02404642105102539,-0.002155497670173645,-0.002148687839508057,2,0.2898178911278941,-0.5815416598545494,-0.2746032039786381,-0.7088074420984074,0.9835719466209412,0.09146375209093094,-0.1556297689676285,20.30531311035156,0.7750129699707031,16.67657470703125,2,9602.79530125,1,2,1580905887.036468,1580903939.50652,1577,0.4102195,0,0,2131.439,1,0,1580905796.492468,9600.452522,0,0.4597473,97.19775
1580905887.216691,9,0,1580904337.000819,41.20701635159924,29.07533761282497,172.748,-1,-1,5.74967098236084,48.00724964208526,-9999,9602.993411000001,0.9656524658203125,0.0901031494140625,-0.154052734375,9602.988345,0.8176557499777442,1.41427103842736,-0.09148469494742101,-0.0132928192615509,0.04001597687602043,0.01476245652884245,-0.01420056819915771,-0.002536982297897339,-0.008357763290405273,2,0.2898888967194339,-0.581675950232398,-0.2746412312779898,-0.7086534506627579,0.9836442470550537,0.09135713428258896,-0.1552350372076035,20.26456451416016,0.75341796875,16.81954956054688,2,9602.79530125,1,2,1580905887.036468,1580903939.50652,1577,0.4102195,0,0,2131.439,1,0,1580905796.492468,9600.452522,0,0.4597473,97.19775
1580905887.226666,10,0,1580904337.000819,41.20701635159924,29.07533761282497,172.748,-1,-1,5.74967098236084,48.00724964208526,-9999,9603.003451,0.9705810546875,0.09619140625,-0.1608123779296875,9602.998385000001,0.8178822237958665,1.414613781222781,-0.09144648551254179,-0.0246376171708107,0.03277723863720894,0.005207833833992481,-0.01970463991165161,-0.001369744539260864,-0.0005771517753601074,2,0.2899887491487221,-0.5817708393978807,-0.274683424433468,-0.7085183474820119,0.9837008118629456,0.09131908416748047,-0.1548984348773956,20.26456451416016,0.75341796875,16.81954956054688,2,9602.79530125,1,2,1580905887.036468,1580903939.50652,1577,0.4102195,0,0,2131.439,1,0,1580905796.492468,9600.452522,0,0.4597473,97.19775
1580905887.236873,11,0,1580904337.000819,41.20701635159924,29.07533761282497,172.748,-1,-1,5.74967098236084,48.00724964208526,-9999,9603.013491,0.966217041015625,0.09429931640625,-0.162384033203125,9603.008456000001,0.8180064003580138,1.414919710771795,-0.09135611091261997,-0.00815803837031126,0.03040149249136448,0.01243496686220169,-0.01483154296875,0.004808709025382996,-0.00763702392578125,2,0.2900359685386644,-0.5818760712814048,-0.2747105840704072,-0.708401998165614,0.9837562441825867,0.09122908860445023,-0.154598742723465,20.40119171142578,0.8282814025878906,17.04342651367188,2,9602.79530125,1,2,1580905887.036468,1580903939.50652,1577,0.4102195,0,0,2131.439,1,0,1580905796.492468,9600.452522,0,0.4597473,97.19775
1580905887.248709,12,0,1580904337.000819,41.20701635159924,29.07533761282497,172.748,-1,-1,5.74967098236084,48.00724964208526,-9999,9603.023531000001,0.967559814453125,0.08953857421875,-0.1558990478515625,9603.018496000001,0.8181745962933731,1.415154524674542,-0.09131553014893778,-0.01841467060148716,0.02267113514244556,0.005284911952912807,-0.01923561096191406,0.002957090735435486,-0.009439468383789062,2,0.290103253169419,-0.5819415254479562,-0.274748469094676,-0.7083060235339877,0.983796238899231,0.09118867665529251,-0.1543683260679245,20.40119171142578,0.8282814025878906,17.04342651367188,2,9602.79530125,1,2,1580905887.036468,1580903939.50652,1577,0.4102195,0,0,2131.439,1,0,1580905796.492468,9600.452522,0,0.4597473,97.19775
1580905887.26788,13,0,1580904337.000819,41.20701635159924,29.07533761282497,172.748,-1,-1,5.74967098236084,48.00724964208526,-9999,9603.033572,0.9696502685546875,0.0883026123046875,-0.1604461669921875,9603.028536,0.8182309007160191,1.415314104517212,-0.09121967552428484,-0.001549112144857645,0.01747434586286545,0.01128429174423218,-0.01792633533477783,-0.001708090305328369,-0.003110647201538086,2,0.2901087734603911,-0.5820056404786538,-0.2747744693009683,-0.7082409096084967,0.9838293790817261,0.09109321981668472,-0.1542126685380936,20.45126342773438,0.7640838623046875,17.07073974609375,2,9602.79530125,1,2,1580905887.036468,1580903939.50652,1577,0.4102195,0,0,2131.439,1,0,1580905796.492468,9600.452522,0,0.4597473,97.19775
1580905887.269287,14,0,1580904337.000819,41.20701635159924,29.07533761282497,172.748,-1,-1,5.74967098236084,48.00724964208526,-9999,9603.043612000001,0.966522216796875,0.0898284912109375,-0.154632568359375,9603.038577000001,0.818297012796642,1.415384640272345,-0.09115271064105579,-0.007326307240873575,0.007716523483395576,0.006624824367463589,-0.01585280895233154,-0.002877220511436462,-0.007726371288299561,2,0.2901147669451627,-0.5820320524754059,-0.274808061528016,-0.7082037550986888,0.9838463068008423,0.09102653712034225,-0.1541442275047302,20.45126342773438,0.7640838623046875,17.07073974609375,2,9602.79530125,1,2,1580905887.036468,1580903939.50652,1577,0.4102195,0,0,2131.439,1,0,1580905796.492468,9600.452522,0,0.4597473,97.19775
1580905887.277013,15,0,1580904337.000819,41.20701635159924,29.07533761282497,172.748,-1,-1,5.74967098236084,48.00724964208526,-9999,9603.053652000001,0.9646148681640625,0.091766357421875,-0.1652374267578125,9603.048617,0.8183043985851443,1.415391613542429,-0.09106126399386685,0.002122269012033939,0.001825738698244095,0.009237092919647694,-0.018990159034729,-0.001260116696357727,-0.001918315887451172,2,0.2900865749197417,-0.5820484987117768,-0.2748375360654171,-0.7081903355699937,0.9838556051254272,0.09093546867370605,-0.1541386544704437,20.42579650878906,0.6762771606445312,16.97219848632812,2,9602.79530125,1,2,1580905887.036468,1580903939.50652,1577,0.4102195,0,0,2131.439,1,0,1580905796.492468,9600.452522,0,0.4597473,97.19775
1580905887.28696,16,0,1580904337.000819,41.20701635159924,29.07533761282497,172.748,-1,-1,5.74967098236084,48.00724964208526,-9999,9603.063693,0.96051025390625,0.0870513916015625,-0.163543701171875,9603.058657000001,0.8183071436988697,1.415399226763192,-0.09093586979320795,0.001593098975718021,0.001232651993632317,0.01207335945218801,-0.02091002464294434,0.0008028000593185425,-0.01252895593643188,2,0.2900454947350224,-0.5820714305689552,-0.2748756213911064,-0.7081735306709038,0.9838680028915405,0.09081058949232101,-0.1541329175233841,20.31564331054688,0.5800437927246094,17.0294189453125,2,9602.79530125,1,2,1580905887.036468,1580903939.50652,1577,0.4102195,0,0,2131.439,1,0,1580905796.492468,9600.452522,0,0.4597473,97.19775
1580905887.297109,17,0,1580904337.000819,41.20701635159924,29.07533761282497,172.748,-1,-1,5.74967098236084,48.00724964208526,-9999,9603.073763,0.969329833984375,0.085906982421875,-0.1606903076171875,9603.068697000001,0.8183064536335984,1.415380446675993,-0.09074279183208979,0.004044730216264725,-0.0002765040844678879,0.01927001029253006,-0.02502906322479248,-0.003719553351402283,-0.01081389188766479,2,0.2899765931766547,-0.5820966541103469,-0.2749369485843159,-0.7081572707572119,0.9838824868202209,0.0906183123588562,-0.1541541218757629,20.31564331054688,0.5800437927246094,17.0294189453125,2,9602.79530125,1,2,1580905887.036468,1580903939.50652,1577,0.4102195,0,0,2131.439,1,0,1580905796.492468,9600.452522,0,0.4597473,97.19775
1580905887.309692,18,0,1580904337.000819,41.20701635159924,29.07533761282497,172.748,-1,-1,5.74967098236084,48.00724964208526,-9999,9603.083804,0.9622650146484375,0.0879974365234375,-0.154296875,9603.078738,0.8183148570195238,1.415347366648838,-0.09053600951227668,0.003343253396451473,-0.004730373620986938,0.02099999785423279,-0.01622289419174194,-0.004657670855522156,-0.007924973964691162,2,0.2899037073812655,-0.5821177374556009,-0.2750077342650874,-0.7081422659527706,0.9838958978652954,0.09041237831115723,-0.1541895568370819,20.38471984863281,0.6314239501953125,16.95980834960938,2,9602.79530125,1,2,1580905887.036468,1580903939.50652,1577,0.4102195,0,0,2131.439,1,0,1580905796.492468,9600.452522,0,0.4597473,97.19775
1580905887.3296,19,0,1580904337.000819,41.20701635159924,29.07533761282497,172.748,-1,-1,5.74967098236084,48.00724964208526,-9999,9603.093844000001,0.9694671630859375,0.0883941650390625,-0.1572418212890625,9603.088778000001,0.8183357796204139,1.415344252002617,-0.09038785848873945,-0.0007271496579051018,0.0002737715840339661,0.01333009358495474,-0.02330046892166138,-0.002419382333755493,-0.001526534557342529,2,0.2898586523799247,-0.5821379689574613,-0.2750607388792772,-0.7081234724606024,0.9839085936546326,0.09026483446359634,-0.1541946977376938,20.38471984863281,0.6314239501953125,16.95980834960938,2,9602.79530125,1,2,1580905887.036468,1580903939.50652,1577,0.4102195,0,0,2131.439,1,0,1580905796.492468,9600.452522,0,0.4597473,97.19775
1580905887.331223,20,0,1580904337.000819,41.20701635159924,29.07533761282497,172.748,-1,-1,5.74967098236084,48.00724964208526,-9999,9603.103884,0.96759033203125,0.08843994140625,-0.1556854248046875,9603.098818,0.8183315449108043,1.415372916573005,-0.09026272547023367,0.003658277913928032,0.003935882821679115,0.01393409725278616,-0.01611387729644775,-0.001897826790809631,-0.004497885704040527,2,0.2898185167384492,-0.5821693121347533,-0.2750932172285567,-0.7081015232497593,0.9839241504669189,0.0901402086019516,-0.1541682332754135,20.241943359375,0.920623779296875,16.95114135742188,2,9602.79530125,1,2,1580905887.036468,1580903939.50652,1577,0.4102195,0,0,2131.439,1,0,1580905796.492468,9600.452522,0,0.4597473,97.19775
1580905887.33787,21,0,1580904337.000819,41.20701635159924,29.07533761282497,172.748,-1,-1,5.74967098236084,48.00724964208526,-9999,9603.113925000001,0.966278076171875,0.087188720703125,-0.1584320068359375,9603.108859,0.818397529109407,1.415411259868432,-0.09026676074903776,-0.008211752399802208,0.003612363710999489,-0.0004884004592895508,-0.01799625158309937,-0.001856103539466858,-0.0029793381690979,2,0.2898443800981008,-0.5821726614800956,-0.2751097923399224,-0.7080817419447614,0.9839296936988831,0.09014422446489334,-0.1541304588317871,20.241943359375,0.920623779296875,16.95114135742188,2,9602.79530125,1,2,1580905887.036468,1580903939.50652,1577,0.4102195,0,0,2131.439,1,0,1580905796.492468,9600.452522,0,0.4597473,97.19775
1580905887.347232,22,0,1580904337.000819,41.20701635159924,29.07533761282497,172.748,-1,-1,5.74967098236084,48.00724964208526,-9999,9603.123965000001,0.9679412841796875,0.08697509765625,-0.16876220703125,9603.118929,0.8183888206336494,1.415461061918003,-0.0902694356347063,0.003262743353843689,0.006345300003886223,-0.001308920327574015,-0.01931583881378174,-0.003109961748123169,-0.005774855613708496,2,0.2898495751782456,-0.5821911247701833,-0.2750986841664133,-0.7080688587381779,0.9839372634887695,0.09014689177274704,-0.1540814340114594,20.44143676757812,0.8270263671875,17.0631103515625,2,9602.79530125,1,2,1580905887.036468,1580903939.50652,1577,0.4102195,0,0,2131.439,1,0,1580905796.492468,9600.452522,0,0.4597473,97.19775
1580905887.357408,23,0,1580904337.000819,41.20701635159924,29.07533761282497,172.748,-1,-1,5.74967098236084,48.00724964208526,-9999,9603.134005,0.959259033203125,0.080474853515625,-0.155609130859375,9603.12897,0.8184340954278402,1.415538540803983,-0.09029466184408261,-0.003949115518480539,0.01023534871637821,-0.0009546717628836632,-0.01766234636306763,-0.003348767757415771,-0.01618170738220215,2,0.2898820572972418,-0.5822078414738596,-0.2750957940520119,-0.7080429111330127,0.9839469194412231,0.09017201513051987,-0.154004842042923,20.44143676757812,0.8270263671875,17.0631103515625,2,9602.79530125,1,2,1580905887.036468,1580903939.50652,1577,0.4102195,0,0,2131.439,1,0,1580905796.492468,9600.452522,0,0.4597473,97.19775
1580905887.369642,24,0,1580904337.000819,41.20701635159924,29.07533761282497,172.748,-1,-1,5.74967098236084,48.00724964208526,-9999,9603.144045000001,0.9714508056640625,0.086822509765625,-0.1699676513671875,9603.139010000001,0.8184972928385688,1.415528506746052,-0.09031446937600471,-0.01002937834709883,-0.001989889889955521,-0.0005613230168819427,-0.02634119987487793,-0.009868770837783813,-0.003019094467163086,2,0.2899058782505944,-0.582191865044153,-0.2751135804635291,-0.7080393141363834,0.9839435219764709,0.09019174426794052,-0.1540144234895706,20.28550720214844,0.722259521484375,17.07431030273438,2,9602.79530125,1,2,1580905887.036468,1580903939.50652,1577,0.4102195,0,0,2131.439,1,0,1580905796.492468,9600.452522,0,0.4597473,97.19775
1580905887.397818,25,0,1580904337.000819,41.20701635159924,29.07533761282497,172.748,-1,-1,5.74967098236084,48.00724964208526,-9999,9603.154086,0.959869384765625,0.085845947265625,-0.158447265625,9603.14905,0.81851028276787,1.415545948689971,-0.09031151841740237,0.001346318982541561,0.004123058170080185,-0.0001635691151022911,-0.01415234804153442,-0.003518164157867432,-0.01739472150802612,2,0.2899110504040447,-0.5821966417769592,-0.275116549765164,-0.7080321095385033,0.9839465022087097,0.09018880128860474,-0.1539973020553589,20.28550720214844,0.722259521484375,17.07431030273438,2,9602.79530125,1,2,1580905887.036468,1580903939.50652,1577,0.4102195,0,0,2131.439,1,0,1580905796.492468,9600.452522,0,0.4597473,97.19775
1580905887.399377,26,0,1580904337.000819,41.20701635159924,29.07533761282497,172.748,-1,-1,5.74967098236084,48.00724964208526,-9999,9603.164126000001,0.970367431640625,0.0916595458984375,-0.16595458984375,9603.159091000001,0.8185967371039307,1.415569680877093,-0.09031573332348404,-0.0117694828659296,0.002176554873585701,-0.0004434674046933651,-0.02573710680007935,-0.004498943686485291,-0.005897760391235352,2,0.2899409069075997,-0.5821918218441777,-0.275142434540017,-0.7080138415466145,0.9839498400688171,0.0901930034160614,-0.1539739072322845,20.33016204833984,0.7552032470703125,17.2310791015625,2,9602.79530125,1,2,1580905887.036468,1580903939.50652,1577,0.4102195,0,0,2131.439,1,0,1580905796.492468,9600.452522,0,0.4597473,97.19775
1580905887.400375,27,0,1580904337.000819,41.20701635159924,29.07533761282497,172.748,-1,-1,5.74967098236084,48.00724964208526,-9999,9603.174166000001,0.966339111328125,0.09075927734375,-0.1560211181640625,9603.169131000001,0.8186119322840728,1.415639781189701,-0.09027667395307168,0.002144905738532543,0.008311601355671883,0.005682838149368763,-0.01525330543518066,0.001353636384010315,-0.0134737491607666,2,0.2899416193448058,-0.5822208553447711,-0.2751495511353148,-0.7079868610815185,0.9839640259742737,0.09015409648418427,-0.1539054661989212,20.33016204833984,0.7552032470703125,17.2310791015625,2,9602.79530125,1,2,1580905887.036468,1580903939.50652,1577,0.4102195,0,0,2131.439,1,0,1580905796.492468,9600.452522,0,0.4597473,97.19775
1580905887.4076,28,0,1580904337.000819,41.20701635159924,29.07533761282497,172.748,-1,-1,5.74967098236084,48.00724964208526,-9999,9603.184237000001,0.967498779296875,0.0919189453125,-0.151702880859375,9603.179171,0.8187168298832624,1.415671366072938,-0.09029193780221476,-0.0121336318552494,0.003385551273822784,1.829490065574646e-05,-0.01928508281707764,0.0004381388425827026,-0.003571629524230957,2,0.2899817586890294,-0.5822143086300297,-0.2751774459320868,-0.7079648670659372,0.9839674234390259,0.09016930311918259,-0.1538741588592529,20.39231109619141,0.8995552062988281,16.959228515625,2,9602.79530125,1,2,1580905887.036468,1580903939.50652,1577,0.4102195,0,0,2131.439,1,0,1580905796.492468,9600.452522,0,0.4597473,97.19775
1580905887.417612,29,0,1580904337.000819,41.20701635159924,29.07533761282497,172.748,-1,-1,5.74967098236084,48.00724964208526,-9999,9603.194277000001,0.967010498046875,0.088409423828125,-0.1532440185546875,9603.189211000001,0.8187501712990795,1.415613432196072,-0.09029705095970213,-0.002635798417031765,-0.004409562796354294,3.034342080354691e-05,-0.0181160569190979,0.001592710614204407,0.0008037686347961426,2,0.2899852201002197,-0.5821881314813094,-0.2751960948916473,-0.7079777968569335,0.9839581251144409,0.09017439186573029,-0.1539310961961746,20.39231109619141,0.8995552062988281,16.959228515625,2,9602.79530125,1,2,1580905887.036468,1580903939.50652,1577,0.4102195,0,0,2131.439,1,0,1580905796.492468,9600.452522,0,0.4597473,97.19775
1580905887.429608,30,0,1580904337.000819,41.20701635159924,29.07533761282497,172.748,-1,-1,5.74967098236084,48.00724964208526,-9999,9603.204318,0.974700927734375,0.0885467529296875,-0.15521240234375,9603.199252,0.8187584367243028,1.415431212440964,-0.09031851832037843,-0.001773733180016279,-0.01643240451812744,-0.00218886835500598,-0.01857417821884155,-0.001938208937644958,-0.0005579590797424316,2,0.2899698638600247,-0.5821189044342288,-0.275218906675975,-0.7080322507081297,0.9839283227920532,0.09019577503204346,-0.1541101187467575,20.29665374755859,0.72808837890625,17.11398315429688,2,9602.79530125,1,2,1580905887.036468,1580903939.50652,1577,0.4102195,0,0,2131.439,1,0,1580905796.492468,9600.452522,0,0.4597473,97.19775
1580905887.453412,31,0,1580904337.000819,41.20701635159924,29.07533761282497,172.748,-1,-1,5.74967098236084,48.00724964208526,-9999,9603.214358000001,0.969482421875,0.089996337890625,-0.1602783203125,9603.209292000001,0.8186924789784368,1.415071583213009,-0.09032238885164548,0.006069392897188663,-0.0344620868563652,-0.0004903431981801987,-0.01082777976989746,-0.001804754137992859,-0.002171874046325684,2,0.28990251039262,-0.5820005024947097,-0.2752465084993885,-0.7081464050391386,0.9838724136352539,0.09019962698221207,-0.1544639021158218,20.29665374755859,0.72808837890625,17.11398315429688,2,9602.79530125,1,2,1580905887.036468,1580903939.50652,1577,0.4102195,0,0,2131.439,1,0,1580905796.492468,9600.452522,0,0.4597473,97.19775
1580905887.454695,32,0,1580904337.000819,41.20701635159924,29.07533761282497,172.748,-1,-1,5.74967098236084,48.00724964208526,-9999,9603.224398,0.9673614501953125,0.0863494873046875,-0.162200927734375,9603.219332000001,0.8185744027878765,1.414595050558115,-0.09033345618165718,0.01051820255815983,-0.04562366381287575,-0.003672287799417973,-0.01597166061401367,-0.0003662407398223877,-0.006768584251403809,2,0.2898063805615754,-0.5818470424485821,-0.2752703831619268,-0.7083024994614739,0.9837976694107056,0.09021065384149551,-0.1549325585365295,20.20726013183594,0.8598861694335938,17.10211181640625,2,9602.79530125,1,2,1580905887.036468,1580903939.50652,1577,0.4102195,0,0,2131.439,1,0,1580905796.492468,9600.452522,0,0.4597473,97.19775
1580905887.457803,33,0,1580904337.000819,41.20701635159924,29.07533761282497,172.748,-1,-1,5.74967098236084,48.00724964208526,-9999,9603.234438000001,0.971588134765625,0.0859375,-0.1642913818359375,9603.229403000001,0.8183771282843423,1.413995767061295,-0.09028088512565421,0.02054907754063606,-0.05520264059305191,0.002388951368629932,-0.01800417900085449,-0.003960639238357544,-0.008099853992462158,2,0.2896484804672119,-0.5816720101848041,-0.2753033372564345,-0.7084980809848789,0.9837093949317932,0.09015829116106033,-0.1555228680372238,20.20726013183594,0.8598861694335938,17.10211181640625,2,9602.79530125,1,2,1580905887.036468,1580903939.50652,1577,0.4102195,0,0,2131.439,1,0,1580905796.492468,9600.452522,0,0.4597473,97.19775
1580905887.467752,34,0,1580904337.000819,41.20701635159924,29.07533761282497,172.748,-1,-1,5.74967098236084,48.00724964208526,-9999,9603.244479000001,0.953826904296875,0.085205078125,-0.1609039306640625,9603.239443,0.8181995477712547,1.413413196775913,-0.09022103283611847,0.0165087953209877,-0.05576776340603828,0.002937030047178268,-0.01369196176528931,-0.004312902688980103,-0.009615540504455566,2,0.2894961317592811,-0.5815011683158107,-0.2753429915916271,-0.7086851650841671,0.9836239814758301,0.09009868651628494,-0.1560967564582825,20.29011535644531,0.9155044555664062,17.06451416015625,2,9602.79530125,1,2,1580905887.036468,1580903939.50652,1577,0.4102195,0,0,2131.439,1,0,1580905796.492468,9600.452522,0,0.4597473,97.19775
1580905887.477679,35,0,1580904337.000819,41.20701635159924,29.07533761282497,172.748,-1,-1,5.74967098236084,48.00724964208526,-9999,9603.254519,0.9683380126953125,0.088623046875,-0.1685028076171875,9603.249484,0.81803205000511,1.412907975218058,-0.09015020772569446,0.01634331792593002,-0.04843169450759888,0.002518891356885433,-0.03138035535812378,-0.004974678158760071,-0.005729317665100098,2,0.2893536235895481,-0.5813580133033316,-0.2753782966990378,-0.7088470188158911,0.9835512042045593,0.09002814441919327,-0.1565946787595749,20.29011535644531,0.9155044555664062,17.06451416015625,2,9602.79530125,1,2,1580905887.036468,1580903939.50652,1577,0.4102195,0,0,2131.439,1,0,1580905796.492468,9600.452522,0,0.4597473,97.19775
1580905887.489546,36,0,1580904337.000819,41.20701635159924,29.07533761282497,172.748,-1,-1,5.74967098236084,48.00724964208526,-9999,9603.264559000001,0.9559173583984375,0.090179443359375,-0.16326904296875,9603.259524000001,0.8178548316707461,1.412518690688984,-0.08999180248999861,0.02299749106168747,-0.03692950308322906,0.01363625656813383,-0.0168222188949585,-0.001398652791976929,-0.01294237375259399,2,0.2891941729034502,-0.5812717293967051,-0.2754199912369957,-0.7089667298256912,0.9835043549537659,0.089870385825634,-0.1569798141717911,20.26836395263672,0.6536941528320312,17.03021240234375,2,9602.79530125,1,2,1580905887.036468,1580903939.50652,1577,0.4102195,0,0,2131.439,1,0,1580905796.492468,9600.452522,0,0.4597473,97.19775
1580905887.51436,37,0,1580904337.000819,41.20701635159924,29.07533761282497,172.748,-1,-1,5.74967098236084,48.00724964208526,-9999,9603.274600000001,0.954803466796875,0.0937957763671875,-0.1616058349609375,9603.269564,0.8177745654160371,1.412236151838536,-0.08988693576968465,0.006430559791624546,-0.02825006097555161,0.007638161070644855,-0.02920782566070557,0.0002623200416564941,-0.007429003715515137,2,0.2890960217665098,-0.5812004102208745,-0.2754642765896337,-0.7090478807001276,0.9834690690040588,0.08976594358682632,-0.1572591513395309,20.26836395263672,0.6536941528320312,17.03021240234375,2,9602.79530125,1,2,1580905887.036468,1580903939.50652,1577,0.4102195,0,0,2131.439,1,0,1580905796.492468,9600.452522,0,0.4597473,97.19775
1580905887.515583,38,0,1580904337.000819,41.20701635159924,29.07533761282497,172.748,-1,-1,5.74967098236084,48.00724964208526,-9999,9603.28464,0.958709716796875,0.0899810791015625,-0.165283203125,9603.279604000001,0.8176158852863467,1.412029058618684,-0.08976253583500994,0.0207999125123024,-0.0172573309391737,0.01103528961539268,-0.03030014038085938,0.004002764821052551,-0.005560100078582764,2,0.2889787238999272,-0.5811703785286774,-0.2754757857750811,-0.7091158328886737,0.9834474921226501,0.08964204043149948,-0.1574645787477493,20.14507293701172,0.9065818786621094,17.06869506835938,2,9602.79530125,1,2,1580905887.036468,1580903939.50652,1577,0.4102195,0,0,2131.439,1,0,1580905796.492468,9600.452522,0,0.4597473,97.19775
1580905887.518494,39,0,1580904337.000819,41.20701635159924,29.07533761282497,172.748,-1,-1,5.74967098236084,48.00724964208526,-9999,9603.294711,0.9617156982421875,0.0860748291015625,-0.158538818359375,9603.289645000001,0.8174841440796374,1.411793566901651,-0.08967382169089648,0.01120205875486135,-0.02344905398786068,0.00601987075060606,-0.02636456489562988,0.0002765804529190063,-0.00900423526763916,2,0.2888775873914708,-0.5811204956035838,-0.2754900724776186,-0.7091923344559162,0.9834182262420654,0.08955368399620056,-0.1576974242925644,20.14507293701172,0.9065818786621094,17.06869506835938,2,9602.79530125,1,2,1580905887.036468,1580903939.50652,1577,0.4102195,0,0,2131.439,1,0,1580905796.492468,9600.452522,0,0.4597473,97.19775
1580905887.528062,40,0,1580904337.000819,41.20701635159924,29.07533761282497,172.748,-1,-1,5.74967098236084,48.00724964208526,-9999,9603.304751000001,0.9632720947265625,0.0857696533203125,-0.1674346923828125,9603.299685,0.8172474817240736,1.411545489006544,-0.08955757808121269,0.02712083980441093,-0.02197020128369331,0.009120057336986065,-0.02332967519760132,-0.003513708710670471,-0.002013802528381348,2,0.2887347489130588,-0.5810858145836738,-0.275477325476033,-0.7092839410323564,0.9833894371986389,0.08943790942430496,-0.1579430401325226,20.43689727783203,0.6386909484863281,17.26611328125,2,9602.79530125,1,2,1580905887.036468,1580903939.50652,1577,0.4102195,0,0,2131.439,1,0,1580905796.492468,9600.452522,0,0.4597473,97.19775
1580905887.538065,41,0,1580904337.000819,41.20701635159924,29.07533761282497,172.748,-1,-1,5.74967098236084,48.00724964208526,-9999,9603.314791000001,0.962188720703125,0.0881500244140625,-0.1636199951171875,9603.309725000001,0.8170165737665342,1.411322873745115,-0.08947923033812721,0.02285951375961304,-0.01945750787854195,0.0039175720885396,-0.02174508571624756,-0.00374072790145874,-0.01068919897079468,2,0.2886100976249589,-0.5810530717939715,-0.2754513890292665,-0.7093716226254411,0.9833612442016602,0.08935987204313278,-0.1581630855798721,20.43689727783203,0.6386909484863281,17.26611328125,2,9602.79530125,1,2,1580905887.036468,1580903939.50652,1577,0.4102195,0,0,2131.439,1,0,1580905796.492468,9600.452522,0,0.4597473,97.19775
1580905887.54879,42,0,1580904337.000819,41.20701635159924,29.07533761282497,172.748,-1,-1,5.74967098236084,48.00724964208526,-9999,9603.324831,0.9664154052734375,0.0903167724609375,-0.1656494140625,9603.319766000001,0.8167838689708208,1.411122858813628,-0.08942219143020248,0.0244789831340313,-0.01804896257817745,0.0008621271699666977,-0.02280175685882568,-0.001303434371948242,-0.006676733493804932,2,0.288495387178835,-0.5810250680599279,-0.2754150433027901,-0.7094552823958117,0.9833345413208008,0.08930306136608124,-0.1583605706691742,20.52593231201172,0.6370277404785156,17.24838256835938,2,9602.79530125,1,2,1580905887.036468,1580903939.50652,1577,0.4102195,0,0,2131.439,1,0,1580905796.492468,9600.452522,0,0.4597473,97.19775
1580905887.570298,43,0,1580904337.000819,41.20701635159924,29.07533761282497,172.748,-1,-1,5.74967098236084,48.00724964208526,-9999,9603.334872000001,0.9664459228515625,0.0857391357421875,-0.1652679443359375,9603.329806,0.8165524725155786,1.410990309331175,-0.08936837805510221,0.02436534315347672,-0.01088075619190931,0.000458473339676857,-0.01855891942977905,0.0009169578552246094,-0.008575081825256348,2,0.2883914729597821,-0.5810202523475202,-0.2753684271869771,-0.7095194729834057,0.9833181500434875,0.08924946933984756,-0.1584916561841965,20.52593231201172,0.6370277404785156,17.24838256835938,2,9602.79530125,1,2,1580905887.036468,1580903939.50652,1577,0.4102195,0,0,2131.439,1,0,1580905796.492468,9600.452522,0,0.4597473,97.19775
1580905887.571622,44,0,1580904337.000819,41.20701635159924,29.07533761282497,172.748,-1,-1,5.74967098236084,48.00724964208526,-9999,9603.344912,0.9662017822265625,0.0807342529296875,-0.166229248046875,9603.339877,0.8164136611423117,1.410945500906537,-0.08936677552539911,0.01294277887791395,-0.002773294225335121,-0.003223879728466272,-0.01852136850357056,-0.003659069538116455,-0.008149445056915283,2,0.2883444217415694,-0.5810246348510528,-0.2753261304420897,-0.7095514383689023,0.9833112359046936,0.08924786746501923,-0.1585357338190079,20.52083587646484,0.8082122802734375,17.01852416992188,2,9602.79530125,1,2,1580905887.036468,1580903939.50652,1577,0.4102195,0,0,2131.439,1,0,1580905796.492468,9600.452522,0,0.4597473,97.19775
1580905887.578249,45,0,1580904337.000819,41.20701635159924,29.07533761282497,172.748,-1,-1,5.74967098236084,48.00724964208526,-9999,9603.354952,0.9589080810546875,0.074798583984375,-0.1711273193359375,9603.349917000001,0.8163667771629329,1.411064084361832,-0.08944305372682244,0.003175257705152035,0.01476284489035606,-0.009008617140352726,-0.01877754926681519,-0.008740052580833435,-0.009228348731994629,2,0.2883732747659556,-0.5810609445254076,-0.275269216291161,-0.7095321594729017,0.9833233952522278,0.08932384103536606,-0.1584180593490601,20.52083587646484,0.8082122802734375,17.01852416992188,2,9602.79530125,1,2,1580905887.036468,1580903939.50652,1577,0.4102195,0,0,2131.439,1,0,1580905796.492468,9600.452522,0,0.4597473,97.19775
1580905887.588333,46,0,1580904337.000819,41.20701635159924,29.07533761282497,172.748,-1,-1,5.74967098236084,48.00724964208526,-9999,9603.364993000001,0.9580535888671875,0.0781707763671875,-0.1695556640625,9603.359957000001,0.8164001008495221,1.411358917546664,-0.08954266127267897,-0.005240864120423794,0.02902167662978172,-0.007496474776417017,-0.02610915899276733,-0.01477506756782532,-0.01441818475723267,2,0.2884577035414272,-0.5811443742089133,-0.2752082365044912,-0.7094532123690743,0.9833613634109497,0.0894230529665947,-0.1581267416477203,20.30619049072266,0.793914794921875,16.95391845703125,2,9602.79530125,1,2,1580905887.036468,1580903939.50652,1577,0.4102195,0,0,2131.439,1,0,1580905796.492468,9600.452522,0,0.4597473,97.19775
1580905887.5983,47,0,1580904337.000819,41.20701635159924,29.07533761282497,172.748,-1,-1,5.74967098236084,48.00724964208526,-9999,9603.375033,0.9485626220703125,0.0838470458984375,-0.166656494140625,9603.369998,0.8165383829391445,1.411865835934949,-0.08967643645930409,-0.01585113815963268,0.04974702000617981,-0.01215867139399052,-0.02703201770782471,-0.0115363746881485,-0.01334774494171143,2,0.2886135315597562,-0.5812822521325985,-0.2751434671566046,-0.7093020150340495,0.9834296107292175,0.08955629169940948,-0.1576263457536697,20.30619049072266,0.793914794921875,16.95391845703125,2,9602.79530125,1,2,1580905887.036468,1580903939.50652,1577,0.4102195,0,0,2131.439,1,0,1580905796.492468,9600.452522,0,0.4597473,97.19775
1580905887.609551,48,0,1580904337.000819,41.20701635159924,29.07533761282497,172.748,-1,-1,5.74967098236084,48.00724964208526,-9999,9603.385073000001,0.9488067626953125,0.0881805419921875,-0.17242431640625,9603.380038000001,0.8167443541061977,1.412655587671479,-0.08973713713232473,-0.02075481787323952,0.07733923196792603,-0.00268474267795682,-0.03664213418960571,-0.005920663475990295,-0.01122772693634033,2,0.2888028973286269,-0.5815225773560502,-0.2750840236715762,-0.7090508643829542,0.9835482835769653,0.08961674571037292,-0.1568487584590912,20.28269195556641,0.8974456787109375,16.93896484375,2,9602.79530125,1,2,1580905887.036468,1580903939.50652,1577,0.4102195,0,0,2131.439,1,0,1580905796.492468,9600.452522,0,0.4597473,97.19775
1580905887.633655,49,0,1580904337.000819,41.20701635159924,29.07533761282497,172.748,-1,-1,5.74967098236084,48.00724964208526,-9999,9603.395113,0.9593658447265625,0.0885772705078125,-0.1662139892578125,9603.390078,0.8170671268326933,1.413719098514703,-0.08971974455964064,-0.03077992424368858,0.1039223521947861,0.008707953616976738,-0.03656589984893799,-0.001569807529449463,-0.0180429220199585,2,0.2890370519128907,-0.5818557604496547,-0.2750500911454273,-0.7086952722484069,0.9837161898612976,0.08959942311048508,-0.155802920460701,20.28269195556641,0.8974456787109375,16.93896484375,2,9602.79530125,1,2,1580905887.036468,1580903939.50652,1577,0.4102195,0,0,2131.439,1,0,1580905796.492468,9600.452522,0,0.4597473,97.19775
1580905887.635123,50,0,1580904337.000819,41.20701635159924,29.07533761282497,172.748,-1,-1,5.74967098236084,48.00724964208526,-9999,9603.405184000001,0.95440673828125,0.084381103515625,-0.164703369140625,9603.400118000001,0.8175644711106562,1.415045232526004,-0.08977872621162278,-0.05011260882019997,0.1288857609033585,0.001356829889118671,-0.0262075662612915,-0.00123189389705658,-0.01314032077789307,2,0.2893843969902513,-0.58224390978466,-0.2750165315928942,-0.7082475320864411,0.9839166402816772,0.08965817093849182,-0.1544973999261856,20.24874877929688,1.045005798339844,17.13034057617188,2,9602.79530125,1,2,1580905887.036468,1580903939.50652,1577,0.4102195,0,0,2131.439,1,0,1580905796.492468,9600.452522,0,0.4597473,97.19775
1580905887.638419,51,0,1580904337.000819,41.20701635159924,29.07533761282497,172.748,-1,-1,5.74967098236084,48.00724964208526,-9999,9603.415225000001,0.9658203125,0.0844879150390625,-0.1747283935546875,9603.410159000001,0.8181006902647985,1.416638165277201,-0.08982957918244001,-0.05389977246522903,0.1557645946741104,0.003790195100009441,-0.03140753507614136,-0.005478799343109131,-0.01320064067840576,2,0.2897770082756321,-0.5827217970336795,-0.2749602044943824,-0.7077156124407384,0.9841569066047668,0.08970881998538971,-0.1529291868209839,20.24874877929688,1.045005798339844,17.13034057617188,2,9602.79530125,1,2,1580905887.036468,1580903939.50652,1577,0.4102195,0,0,2131.439,1,0,1580905796.492468,9600.452522,0,0.4597473,97.19775
1580905887.648594,52,0,1580904337.000819,41.20701635159924,29.07533761282497,172.748,-1,-1,5.74967098236084,48.00724964208526,-9999,9603.425265,0.96099853515625,0.0821990966796875,-0.166229248046875,9603.420199,0.8186595209121847,1.418471694344115,-0.08986802135766798,-0.0542377308011055,0.178716242313385,0.004818707704544067,-0.02026981115341187,-0.005410358309745789,-0.02503407001495361,2,0.2902050991237857,-0.5832829833033064,-0.2748802846294176,-0.7071086795253929,0.9844322204589844,0.0897471010684967,-0.1511239260435104,20.25621795654297,0.8601570129394531,17.2523193359375,2,9602.79530125,1,2,1580905887.036468,1580903939.50652,1577,0.4102195,0,0,2131.439,1,0,1580905796.492468,9600.452522,0,0.4597473,97.19775
1580905887.658623,53,0,1580904337.000819,41.20701635159924,29.07533761282497,172.748,-1,-1,5.74967098236084,48.00724964208526,-9999,9603.435305000001,0.9565887451171875,0.0872955322265625,-0.1625518798828125,9603.430239000001,0.8193638688511049,1.420507498126183,-0.09001518094293928,-0.07260113209486008,0.196852520108223,-0.006339916493743658,-0.02538478374481201,-0.00784599781036377,-0.01854479312896729,2,0.2907406707496235,-0.5838759316310027,-0.2747885790005907,-0.7064346084797879,0.984724760055542,0.08989366888999939,-0.1491175144910812,20.25621795654297,0.8601570129394531,17.2523193359375,2,9602.79530125,1,2,1580905887.036468,1580903939.50652,1577,0.4102195,0,0,2131.439,1,0,1580905796.492468,9600.452522,0,0.4597473,97.19775
1580905887.668904,54,0,1580904337.000819,41.20701635159924,29.07533761282497,172.748,-1,-1,5.74967098236084,48.00724964208526,-9999,9603.445345,0.963165283203125,0.0893096923828125,-0.1627655029296875,9603.440279,0.8201108012657091,1.422746168213383,-0.09009978189352946,-0.07439024746417999,0.2201732993125916,0.002723885700106621,-0.03011894226074219,-0.002833947539329529,-0.01707708835601807,2,0.2912952448639142,-0.5845436691134306,-0.274700663592664,-0.7056877886914108,0.9850486516952515,0.08997792750597,-0.1469115614891052,20.19050598144531,1.117122650146484,17.35324096679688,2,9602.79530125,1,2,1580905887.036468,1580903939.50652,1577,0.4102195,0,0,2131.439,1,0,1580905796.492468,9600.452522,0,0.4597473,97.19775
1580905887.692797,55,0,1580904337.000819,41.20701635159924,29.07533761282497,172.748,-1,-1,5.74967098236084,48.00724964208526,-9999,9603.455386000001,0.9613189697265625,0.0891265869140625,-0.1506500244140625,9603.450350000001,0.8209359499459992,1.425099238199617,-0.0900981117038091,-0.08357612043619156,0.2294142544269562,0.01221164874732494,-0.02388614416122437,-0.0008181333541870117,-0.01961290836334229,2,0.2918591328674236,-0.585253447036623,-0.2746491119773134,-0.7048861866389923,0.9853918552398682,0.08997626602649689,-0.1445932984352112,20.19050598144531,1.117122650146484,17.35324096679688,2,9602.79530125,1,2,1580905887.036468,1580903939.50652,1577,0.4102195,0,0,2131.439,1,0,1580905796.492468,9600.452522,0,0.4597473,97.19775
1580905887.694351,56,0,1580904337.000819,41.20701635159924,29.07533761282497,172.748,-1,-1,5.74967098236084,48.00724964208526,-9999,9603.465426000001,0.9718780517578125,0.08685302734375,-0.14923095703125,9603.460391000001,0.8218088842269702,1.427494861559887,-0.0900412711735103,-0.08469545096158981,0.2336905002593994,0.01969939284026623,-0.02608174085617065,-0.0009445548057556152,-0.009861886501312256,2,0.2924243886152407,-0.5859790900991315,-0.2746240668474975,-0.7040581957453134,0.9857403039932251,0.08991965651512146,-0.1422329694032669,19.90150451660156,1.040798187255859,17.55728149414062,2,9602.79530125,1,2,1580905887.036468,1580903939.50652,1577,0.4102195,0,0,2131.439,1,0,1580905796.492468,9600.452522,0,0.4597473,97.19775
1580905887.698797,57,0,1580904337.000819,41.20701635159924,29.07533761282497,172.748,-1,-1,5.74967098236084,48.00724964208526,-9999,9603.475466,0.9693450927734375,0.085479736328125,-0.142822265625,9603.470431,0.8227585335957397,1.429921591548894,-0.09001527476736385,-0.09374431520700455,0.2361724823713303,0.01515165716409683,-0.01586794853210449,-0.00319218635559082,-0.01083904504776001,2,0.29302712233263,-0.5866981488049458,-0.2746109720496888,-0.7032135058681802,0.986085057258606,0.08989376574754715,-0.1398407816886902,19.90150451660156,1.040798187255859,17.55728149414062,2,9602.79530125,1,2,1580905887.036468,1580903939.50652,1577,0.4102195,0,0,2131.439,1,0,1580905796.492468,9600.452522,0,0.4597473,97.19775
1580905887.708858,58,0,1580904337.000819,41.20701635159924,29.07533761282497,172.748,-1,-1,5.74967098236084,48.00724964208526,-9999,9603.485507000001,0.96966552734375,0.0885772705078125,-0.146881103515625,9603.480471000001,0.8236900494269056,1.432391339429185,-0.08996773433916358,-0.09034398943185806,0.2402279525995255,0.01889286562800407,-0.01874828338623047,-0.004518046975135803,-0.006869852542877197,2,0.2936235270308083,-0.5874371877986035,-0.2745906757409961,-0.7023550989851033,0.9864315986633301,0.0898464173078537,-0.1374055445194244,19.86530303955078,0.9462356567382812,17.61196899414062,2,9602.79530125,1,2,1580905887.036468,1580903939.50652,1577,0.4102195,0,0,2131.439,1,0,1580905796.492468,9600.452522,0,0.4597473,97.19775
1580905887.719039,59,0,1580904337.000819,41.20701635159924,29.07533761282497,172.748,-1,-1,5.74967098236084,48.00724964208526,-9999,9603.495547,0.963714599609375,0.0913238525390625,-0.1413421630859375,9603.490511,0.8246158587248115,1.434965558860265,-0.08994806505626798,-0.09152507036924362,0.2529633045196533,0.0134718120098114,-0.01878058910369873,-0.001400917768478394,-0.01347255706787109,2,0.2942423852383675,-0.5882077884286495,-0.2745433128030305,-0.7014690519463228,0.9867836833000183,0.08982682228088379,-0.1348660290241241,19.86530303955078,0.9462356567382812,17.61196899414062,2,9602.79530125,1,2,1580905887.036468,1580903939.50652,1577,0.4102195,0,0,2131.439,1,0,1580905796.492468,9600.452522,0,0.4597473,97.19775
1580905887.729638,60,0,1580904337.000819,41.20701635159924,29.07533761282497,172.748,-1,-1,5.74967098236084,48.00724964208526,-9999,9603.505587000001,0.9730987548828125,0.09149169921875,-0.1431884765625,9603.500552000001,0.8255515540615018,1.43759297050521,-0.08990045653444581,-0.09335625916719437,0.2570177018642426,0.01740290410816669,-0.02508729696273804,0.001393154263496399,-0.01053053140640259,2,0.2948622691823051,-0.5889987386855131,-0.2744989858928016,-0.7005618627208913,0.9871388673782349,0.08977940678596497,-0.1322734504938126,19.96985626220703,1.086578369140625,17.8917236328125,2,9602.79530125,1,2,1580905887.036468,1580903939.50652,1577,0.4102195,0,0,2131.439,1,0,1580905796.492468,9600.452522,0,0.4597473,97.19775
1580905887.753696,61,0,1580904337.000819,41.20701635159924,29.07533761282497,172.748,-1,-1,5.74967098236084,48.00724964208526,-9999,9603.515658,0.9615325927734375,0.088470458984375,-0.140472412109375,9603.510592000001,0.8263953871873969,1.440303335077388,-0.0897781609085834,-0.08105416595935822,0.2654314339160919,0.02260303124785423,-0.01606947183609009,0.001683026552200317,-0.01505595445632935,2,0.2954415657343159,-0.5898430618669973,-0.2744320800043075,-0.6996329737826429,0.9875046014785767,0.08965760469436646,-0.1295988857746124,19.96985626220703,1.086578369140625,17.8917236328125,2,9602.79530125,1,2,1580905887.036468,1580903939.50652,1577,0.4102195,0,0,2131.439,1,0,1580905796.492468,9600.452522,0,0.4597473,97.19775
1580905887.754917,62,0,1580904337.000819,41.20701635159924,29.07533761282497,172.748,-1,-1,5.74967098236084,48.00724964208526,-9999,9603.525698000001,0.97222900390625,0.0899505615234375,-0.1376495361328125,9603.520632,0.8271906194231009,1.443045438149261,-0.08959892238009148,-0.07422316074371338,0.2688496112823486,0.02764359675347805,-0.02800393104553223,-0.001159384846687317,-0.01505070924758911,2,0.2959919095942988,-0.5907135300424994,-0.2743599710049654,-0.6986937280553858,0.9878723621368408,0.08947908878326416,-0.126892626285553,19.822265625,1.138530731201172,17.760986328125,2,9602.79530125,1,2,1580905887.036468,1580903939.50652,1577,0.4102195,0,0,2131.439,1,0,1580905796.492468,9600.452522,0,0.4597473,97.19775
1580905887.759067,63,0,1580904337.000819,41.20701635159924,29.07533761282497,172.748,-1,-1,5.74967098236084,48.00724964208526,-9999,9603.535738,0.9694061279296875,0.0856475830078125,-0.1331024169921875,9603.530673000001,0.8280080970414867,1.445744556720859,-0.08934177081913412,-0.07764209806919098,0.2665780484676361,0.0388965904712677,-0.01766979694366455,0.0005772709846496582,-0.01489627361297607,2,0.296517069204451,-0.5915769640957449,-0.2743250230755417,-0.69775358023455,0.9882339835166931,0.08922296762466431,-0.1242286488413811,19.82103729248047,1.029087066650391,17.92431640625,2,9602.79530125,1,2,1580905887.036468,1580903939.50652,1577,0.4102195,0,0,2131.439,1,0,1580905796.492468,9600.452522,0,0.4597473,97.19775
1580905887.769658,64,0,1580904337.000819,41.20701635159924,29.07533761282497,172.748,-1,-1,5.74967098236084,48.00724964208526,-9999,9603.545779,0.9747314453125,0.0869293212890625,-0.133453369140625,9603.540713,0.8288514430119297,1.448292818238436,-0.08912799070038452,-0.08369146287441254,0.2478775978088379,0.03076409548521042,-0.02082562446594238,-0.003512457013130188,-0.01286995410919189,2,0.2970442380977498,-0.5923753704061503,-0.2743070670057183,-0.6968583847768813,0.9885661602020264,0.08901003748178482,-0.1217122822999954,19.82103729248047,1.029087066650391,17.92431640625,2,9602.79530125,1,2,1580905887.036468,1580903939.50652,1577,0.4102195,0,0,2131.439,1,0,1580905796.492468,9600.452522,0,0.4597473,97.19775
1580905887.779181,65,0,1580904337.000819,41.20701635159924,29.07533761282497,172.748,-1,-1,5.74967098236084,48.00724964208526,-9999,9603.555819000001,0.982391357421875,0.0848236083984375,-0.1296234130859375,9603.550753000001,0.8296311679818287,1.450713022733931,-0.08888064179786466,-0.07162380218505859,0.2379577159881592,0.03688046336174011,-0.01581448316574097,-0.001983925700187683,-0.01561516523361206,2,0.2975240512301653,-0.5931428320167375,-0.274295468487959,-0.696004987709662,0.9888797402381897,0.08876366168260574,-0.1193220391869545,19.800048828125,0.8473701477050781,17.97415161132812,2,9602.79530125,1,2,1580905887.036468,1580903939.50652,1577,0.4102195,0,0,2131.439,1,0,1580905796.492468,9600.452522,0,0.4597473,97.19775
1580905887.789796,66,0,1580904337.000819,41.20701635159924,29.07533761282497,172.748,-1,-1,5.74967098236084,48.00724964208526,-9999,9603.565859,0.9784088134765625,0.0874176025390625,-0.1171875,9603.560824,0.8304094029293897,1.45295592474069,-0.08877267381401821,-0.07664039731025696,0.2152209877967834,0.01758373156189919,-0.008429586887359619,-0.003981888294219971,-0.01400607824325562,2,0.2980263105936496,-0.5938247762960993,-0.2742656871472502,-0.6952198997945929,0.9891543984413147,0.08865612000226974,-0.1171049028635025,19.800048828125,0.8473701477050781,17.97415161132812,2,9602.79530125,1,2,1580905887.036468,1580903939.50652,1577,0.4102195,0,0,2131.439,1,0,1580905796.492468,9600.452522,0,0.4597473,97.19775
1580905887.815008,67,0,1580904337.000819,41.20701635159924,29.07533761282497,172.748,-1,-1,5.74967098236084,48.00724964208526,-9999,9603.5759,0.978729248046875,0.087371826171875,-0.119415283203125,9603.570864000001,0.8310741968621158,1.455070416826557,-0.08872957035609243,-0.06258304417133331,0.2090903669595718,0.01407803315669298,-0.01266181468963623,-0.001344934105873108,-0.003665030002593994,2,0.2984992699950167,-0.5944673429488545,-0.2741946998368014,-0.6944954647008547,0.9894036054611206,0.08861318975687027,-0.115013524889946,19.58763885498047,0.9048728942871094,18.22689819335938,2,9602.79530125,1,2,1580905887.036468,1580903939.50652,1577,0.4102195,0,0,2131.439,1,0,1580905796.492468,9600.452522,0,0.4597473,97.19775
1580905887.816229,68,0,1580904337.000819,41.20701635159924,29.07533761282497,172.748,-1,-1,5.74967098236084,48.00724964208526,-9999,9603.585940000001,0.973236083984375,0.0877685546875,-0.112518310546875,9603.580904,0.8317170954269674,1.457099694029532,-0.08877128112711459,-0.0643543154001236,0.1992385387420654,0.002390217036008835,-0.01256972551345825,-0.001432299613952637,-0.007904946804046631,2,0.2989825851187828,-0.5950687871229998,-0.274101761855816,-0.6938088743966951,0.9896312952041626,0.08865473419427872,-0.1130051016807556,19.58763885498047,0.9048728942871094,18.22689819335938,2,9602.79530125,1,2,1580905887.036468,1580903939.50652,1577,0.4102195,0,0,2131.439,1,0,1580905796.492468,9600.452522,0,0.4597473,97.19775
1580905887.819431,69,0,1580904337.000819,41.20701635159924,29.07533761282497,172.748,-1,-1,5.74967098236084,48.00724964208526,-9999,9603.59598,0.9747314453125,0.0883941650390625,-0.112518310546875,9603.590945,0.832350649298227,1.459010861034237,-0.08880865002121253,-0.06378795206546783,0.1872006356716156,0.005013955757021904,-0.01827430725097656,-0.001072913408279419,-0.002903342247009277,2,0.2994456136285192,-0.5956305416321305,-0.2740238854405884,-0.6931575036420433,0.9898420572280884,0.08869195729494095,-0.1111131682991982,19.61367034912109,0.9519386291503906,18.28695678710938,2,9602.79530125,1,2,1580905887.036468,1580903939.50652,1577,0.4102195,0,0,2131.439,1,0,1580905796.492468,9600.452522,0,0.4597473,97.19775
1580905887.82937,70,0,1580904337.000819,41.20701635159924,29.07533761282497,172.748,-1,-1,5.74967098236084,48.00724964208526,-9999,9603.606020000001,0.97161865234375,0.08782958984375,-0.11334228515625,9603.600985000001,0.8329060197002953,1.460770108089014,-0.08879962782242523,-0.05329989269375801,0.1729809492826462,0.00535004585981369,-0.01697421073913574,-0.0004382878541946411,-0.004647910594940186,2,0.299849069680229,-0.5961582691998465,-0.2739555148114921,-0.6925561955553061,0.9900368452072144,0.08868297189474106,-0.1093717068433762,19.61367034912109,0.9519386291503906,18.28695678710938,2,9602.79530125,1,2,1580905887.036468,1580903939.50652,1577,0.4102195,0,0,2131.439,1,0,1580905796.492468,9600.452522,0,0.4597473,97.19775
1580905887.83947,71,0,1580904337.000819,41.20701635159924,29.07533761282497,172.748,-1,-1,5.74967098236084,48.00724964208526,-9999,9603.616091,0.9729156494140625,0.0885162353515625,-0.1129913330078125,9603.611025,0.8333873860060128,1.462374149993659,-0.08868162039122381,-0.04471282660961151,0.1555121690034866,0.01669743284583092,-0.0202716588973999,-0.0008851140737533569,-0.007061302661895752,2,0.300172856058377,-0.5966606502073917,-0.2739182937201597,-0.6919978835170985,0.9902215003967285,0.08856542408466339,-0.1077846512198448,19.60676574707031,0.9005317687988281,18.40960693359375,2,9602.79530125,1,2,1580905887.036468,1580903939.50652,1577,0.4102195,0,0,2131.439,1,0,1580905796.492468,9600.452522,0,0.4597473,97.19775
1580905887.86824,72,0,1580904337.000819,41.20701635159924,29.07533761282497,172.748,-1,-1,5.74967098236084,48.00724964208526,-9999,9603.626132000001,0.9679107666015625,0.08758544921875,-0.1107025146484375,9603.621066,0.833865013092445,1.463914424236871,-0.088546397406879,-0.04905644059181213,0.1544492989778519,0.01937178149819374,-0.01915174722671509,-6.352365016937256e-05,-0.008237123489379883,2,0.3004812106757151,-0.5971438274325124,-0.2738943540308576,-0.6914565142017384,0.9903981685638428,0.0884307324886322,-0.1062605828046799,19.60676574707031,0.9005317687988281,18.40960693359375,2,9602.79530125,1,2,1580905887.036468,1580903939.50652,1577,0.4102195,0,0,2131.439,1,0,1580905796.492468,9600.452522,0,0.4597473,97.19775
1580905887.869974,73,0,1580904337.000819,41.20701635159924,29.07533761282497,172.748,-1,-1,5.74967098236084,48.00724964208526,-9999,9603.636172,0.9766387939453125,0.088134765625,-0.1184844970703125,9603.631106000001,0.8341822389064578,1.465297535134781,-0.08837239085009412,-0.02707163244485855,0.1320300400257111,0.02086638286709785,-0.0243181586265564,-0.0008207559585571289,-0.007318794727325439,2,0.3007073189732502,-0.597602690922337,-0.2738503998679004,-0.6909789928705907,0.990559458732605,0.08825740963220596,-0.104892261326313,19.40219879150391,0.9645538330078125,18.32644653320312,2,9602.79530125,1,2,1580905887.036468,1580903939.50652,1577,0.4102195,0,0,2131.439,1,0,1580905796.492468,9600.452522,0,0.4597473,97.19775
1580905887.871559,74,0,1580904337.000819,41.20701635159924,29.07533761282497,172.748,-1,-1,5.74967098236084,48.00724964208526,-9999,9603.646212000001,0.96734619140625,0.07879638671875,-0.113525390625,9603.641146,0.8344470610585745,1.466733234450364,-0.08819630496023065,-0.02294027060270309,0.1450646072626114,0.02275456488132477,-0.015755295753479,-9.569525718688965e-05,-0.01652359962463379,2,0.3009242885286117,-0.5980875791762519,-0.273780906417036,-0.6904924991022083,0.9907246232032776,0.08808200806379318,-0.1034716367721558,19.40219879150391,0.9645538330078125,18.32644653320312,2,9602.79530125,1,2,1580905887.036468,1580903939.50652,1577,0.4102195,0,0,2131.439,1,0,1580905796.492468,9600.452522,0,0.4597473,97.19775
1580905887.879617,75,0,1580904337.000819,41.20701635159924,29.07533761282497,172.748,-1,-1,5.74967098236084,48.00724964208526,-9999,9603.656252000001,0.9834747314453125,0.0815582275390625,-0.1100006103515625,9603.651186000001,0.8347100886826634,1.468129517232605,-0.08810842321907593,-0.02517633140087128,0.1364765167236328,0.01106739416718483,-0.025199294090271,-0.009346410632133484,-0.01294946670532227,2,0.3011648436386336,-0.5985442711815094,-0.2736889592629458,-0.6900280602887275,0.9908756613731384,0.08799447119235992,-0.102088987827301,19.42074584960938,0.9535903930664062,18.62811279296875,2,9602.79530125,1,2,1580905887.036468,1580903939.50652,1577,0.4102195,0,0,2131.439,1,0,1580905796.492468,9600.452522,0,0.4597473,97.19775
1580905887.88966,76,0,1580904337.000819,41.20701635159924,29.07533761282497,172.748,-1,-1,5.74967098236084,48.00724964208526,-9999,9603.666293,0.976226806640625,0.0861968994140625,-0.1086883544921875,9603.661257,0.8349257821720699,1.469532693054869,-0.08804823245203827,-0.01881563663482666,0.1397940069437027,0.007741105742752552,-0.009218573570251465,-0.00652448832988739,-0.01081699132919312,2,0.301401337451311,-0.5990055983103789,-0.2735707973577536,-0.6895712421769158,0.9910233020782471,0.08793450891971588,-0.1006990522146225,19.42074584960938,0.9535903930664062,18.62811279296875,2,9602.79530125,1,2,1580905887.036468,1580903939.50652,1577,0.4102195,0,0,2131.439,1,0,1580905796.492468,9600.452522,0,0.4597473,97.19775
1580905887.899637,77,0,1580904337.000819,41.20701635159924,29.07533761282497,172.748,-1,-1,5.74967098236084,48.00724964208526,-9999,9603.676333000001,0.9758758544921875,0.0906982421875,-0.107513427734375,9603.671298000001,0.835129330712592,1.470884671865693,-0.08807676252475166,-0.01728522405028343,0.1291048973798752,-0.004138949792832136,-0.01659947633743286,-0.001914292573928833,-0.01084715127944946,2,0.3016566871177882,-0.5994362404220392,-0.2734282026657227,-0.6891418223991458,0.9911560416221619,0.08796293288469315,-0.09935887157917023,19.45903778076172,0.7666130065917969,18.57720947265625,2,9602.79530125,1,2,1580905887.036468,1580903939.50652,1577,0.4102195,0,0,2131.439,1,0,1580905796.492468,9600.452522,0,0.4597473,97.19775
1580905887.928062,78,0,1580904337.000819,41.20701635159924,29.07533761282497,172.748,-1,-1,5.74967098236084,48.00724964208526,-9999,9603.686373,0.9760284423828125,0.09014892578125,-0.1021575927734375,9603.681338,0.835279594531233,1.472134953180415,-0.08813005160108461,-0.01114557310938835,0.1158527433872223,-0.007358711678534746,-0.01706933975219727,0.002533897757530212,-0.01091408729553223,2,0.3018903587821912,-0.5998355270976744,-0.273274626464048,-0.688752820424538,0.9912747740745544,0.08801601082086563,-0.0981191024184227,19.45903778076172,0.7666130065917969,18.57720947265625,2,9602.79530125,1,2,1580905887.036468,1580903939.50652,1577,0.4102195,0,0,2131.439,1,0,1580905796.492468,9600.452522,0,0.4597473,97.19775
1580905887.929384,79,0,1580904337.000819,41.20701635159924,29.07533761282497,172.748,-1,-1,5.74967098236084,48.00724964208526,-9999,9603.696414,0.9709930419921875,0.087493896484375,-0.0995025634765625,9603.691378000001,0.8354272533769158,1.47330826990195,-0.08819412694798028,-0.01496616937220097,0.1179481744766235,-0.007483758963644505,-0.01702558994293213,0.001920700073242188,-0.006723761558532715,2,0.3021162246005732,-0.6002067001548077,-0.2731282186526047,-0.6883884068825571,0.9913836121559143,0.08807983994483948,-0.09695541113615036,19.42458343505859,0.7670249938964844,18.67156982421875,2,9602.79530125,1,2,1580905887.036468,1580903939.50652,1577,0.4102195,0,0,2131.439,1,0,1580905796.492468,9600.452522,0,0.4597473,97.19775
1580905887.930608,80,0,1580904337.000819,41.20701635159924,29.07533761282497,172.748,-1,-1,5.74967098236084,48.00724964208526,-9999,9603.706454000001,0.9736175537109375,0.085601806640625,-0.099395751953125,9603.701418000001,0.8355454785207923,1.474349058494401,-0.08822676145449768,-0.0049905008636415,0.09714436531066895,-0.002498587593436241,-0.02215856313705444,-0.0007669031620025635,-0.005102634429931641,2,0.3023046611076774,-0.6005416424738378,-0.2730014021892656,-0.6880637672844174,0.9914810657501221,0.08811234682798386,-0.09592325240373611,19.42458343505859,0.7670249938964844,18.67156982421875,2,9602.79530125,1,2,1580905887.036468,1580903939.50652,1577,0.4102195,0,0,2131.439,1,0,1580905796.492468,9600.452522,0,0.4597473,97.19775
1580905887.939837,81,0,1580904337.000819,41.20701635159924,29.07533761282497,172.748,-1,-1,5.74967098236084,48.00724964208526,-9999,9603.716494,0.9716644287109375,0.0841522216796875,-0.093597412109375,9603.711459,0.835675103757046,1.475323586931727,-0.0883136733452014,-0.01064167637377977,0.09139597415924072,-0.009928852319717407,-0.0196196436882019,-0.002745747566223145,-0.005964338779449463,2,0.3025054064819891,-0.600843030883261,-0.272871387890864,-0.6877640120257618,0.99156653881073,0.08819892257452011,-0.09495626389980316,19.41764831542969,0.9928436279296875,18.743408203125,2,9602.79530125,1,2,1580905887.036468,1580903939.50652,1577,0.4102195,0,0,2131.439,1,0,1580905796.492468,9600.452522,0,0.4597473,97.19775
1580905887.950279,82,0,1580904337.000819,41.20701635159924,29.07533761282497,172.748,-1,-1,5.74967098236084,48.00724964208526,-9999,9603.726565000001,0.97772216796875,0.086578369140625,-0.0998992919921875,9603.721499000001,0.835832444471955,1.476217574865742,-0.08846517207522843,-0.01796909794211388,0.08719510585069656,-0.0159611776471138,-0.0216442346572876,-0.004346475005149841,-0.001055598258972168,2,0.302724926516526,-0.6011017959685689,-0.2727426741541127,-0.6874921982818615,0.9916375875473022,0.08834982663393021,-0.0940684974193573,19.41764831542969,0.9928436279296875,18.743408203125,2,9602.79530125,1,2,1580905887.036468,1580903939.50652,1577,0.4102195,0,0,2131.439,1,0,1580905796.492468,9600.452522,0,0.4597473,97.19775
1580905887.959876,83,0,1580904337.000819,41.20701635159924,29.07533761282497,172.748,-1,-1,5.74967098236084,48.00724964208526,-9999,9603.736605,0.971466064453125,0.0807342529296875,-0.0994720458984375,9603.731539,0.8359550512558849,1.477167451280092,-0.08862817922618776,-0.007758412044495344,0.09419368207454681,-0.01586427353322506,-0.01566112041473389,-0.002082973718643188,-0.008302152156829834,2,0.3029452943349361,-0.6013830336849555,-0.2725898242050673,-0.6872098610824454,0.9917123317718506,0.08851219713687897,-0.09312519431114197,19.45673370361328,0.9686203002929688,18.80792236328125,2,9602.79530125,1,2,1580905887.036468,1580903939.50652,1577,0.4102195,0,0,2131.439,1,0,1580905796.492468,9600.452522,0,0.4597473,97.19775
1580905887.99454,84,0,1580904337.000819,41.20701635159924,29.07533761282497,172.748,-1,-1,5.74967098236084,48.00724964208526,-9999,9603.746645000001,0.9722747802734375,0.0783233642578125,-0.0980377197265625,9603.74158,0.8361988439806289,1.478192029033549,-0.08888929861586287,-0.0309782475233078,0.0997205376625061,-0.02839577756822109,-0.02198904752731323,-0.008187621831893921,-0.008894801139831543,2,0.3032447793965354,-0.6016553415025891,-0.2724362851376879,-0.6869001687022613,0.9917840957641602,0.08877228945493698,-0.09210690855979919,19.45673370361328,0.9686203002929688,18.80792236328125,2,9602.79530125,1,2,1580905887.036468,1580903939.50652,1577,0.4102195,0,0,2131.439,1,0,1580905796.492468,9600.452522,0,0.4597473,97.19775
1580905887.99573,85,0,1580904337.000819,41.20701635159924,29.07533761282497,172.748,-1,-1,5.74967098236084,48.00724964208526,-9999,9603.756686000001,0.9725189208984375,0.078338623046875,-0.101898193359375,9603.751620000001,0.8363563753600171,1.479336351851,-0.08911385650900361,-0.01682218164205551,0.1188462600111961,-0.01946000009775162,-0.02126520872116089,-0.01082251965999603,-0.008599042892456055,2,0.3035223569266294,-0.6019876439900501,-0.2722462276777431,-0.686561760364484,0.9918690323829651,0.08899595588445663,-0.09097011387348175,19.21509552001953,0.8956031799316406,18.85800170898438,2,9602.79530125,1,2,1580905887.036468,1580903939.50652,1577,0.4102195,0,0,2131.439,1,0,1580905796.492468,9600.452522,0,0.4597473,97.19775
1580905887.996942,86,0,1580904337.000819,41.20701635159924,29.07533761282497,172.748,-1,-1,5.74967098236084,48.00724964208526,-9999,9603.766726,0.961639404296875,0.0832977294921875,-0.1031951904296875,9603.76166,0.8363709550185503,1.480633416276138,-0.08935137388528656,-0.01408365182578564,0.127310574054718,-0.02300972864031792,-0.02111715078353882,-0.0110442191362381,-0.01374995708465576,2,0.3037818274084259,-0.6023917288182185,-0.2719796124304849,-0.6861981686203499,0.991965115070343,0.08923252671957016,-0.08968161046504974,19.21509552001953,0.8956031799316406,18.85800170898438,2,9602.79530125,1,2,1580905887.036468,1580903939.50652,1577,0.4102195,0,0,2131.439,1,0,1580905796.492468,9600.452522,0,0.4597473,97.19775
1580905888.000108,87,0,1580904337.000819,41.20701635159924,29.07533761282497,172.748,-1,-1,5.74967098236084,48.00724964208526,-9999,9603.776766000001,0.9742431640625,0.082916259765625,-0.1014862060546875,9603.771731000001,0.8360401073576853,1.482147383869724,-0.0894866925981769,0.0493188202381134,0.1533656716346741,-0.009938322938978672,-0.03211945295333862,-0.006220132112503052,-0.01655268669128418,2,0.3039326766494215,-0.6029391491568863,-0.2715935157896501,-0.6858032487968914,0.9920875430107117,0.08936730772256851,-0.08817861974239349,19.13315582275391,0.9635200500488281,18.80718994140625,2,9603.759432000001,2,0,1580905888.000598,1580903939.50652,1577,0.4102195,0,0,2131.439,1,0,1580905796.492468,9600.452522,0,0.4597473,97.19775
1580905888.010078,88,0,1580904337.000819,41.20701635159924,29.07533761282497,172.748,-1,-1,5.74967098236084,48.00724964208526,-9999,9603.786807,0.9665374755859375,0.0836181640625,-0.08551025390625,9603.781771,0.8360645725461934,1.483590703186737,-0.08975747862984249,-0.01338424347341061,0.1448328942060471,-0.0305732935667038,-0.01961779594421387,-0.00687175989151001,-0.01627993583679199,2,0.3042254120518819,-0.6033859736126946,-0.2712971738158595,-0.6853977493950617,0.9921897649765015,0.08963700383901596,-0.0867445319890976,19.13315582275391,0.9635200500488281,18.80718994140625,2,9603.759432000001,2,0,1580905888.000598,1580903939.50652,1577,0.4102195,0,0,2131.439,1,0,1580905796.492468,9600.452522,0,0.4597473,97.19775
1580905888.020283,89,0,1580904337.000819,41.20701635159924,29.07533761282497,172.748,-1,-1,5.74967098236084,48.00724964208526,-9999,9603.796847000001,0.9814300537109375,0.0820770263671875,-0.0975341796875,9603.791811000001,0.8361277904890994,1.484953370913177,-0.08994291820922935,-0.006335611455142498,0.1374476253986359,-0.01465969160199165,-0.02742421627044678,-0.006354808807373047,-0.001659691333770752,2,0.3044905048347964,-0.6038129129744628,-0.2710530037002432,-0.6850005158319538,0.9922904372215271,0.08982169628143311,-0.08539099991321564,19.14106750488281,0.9473762512207031,18.89944458007812,2,9603.759432000001,2,0,1580905888.000598,1580903939.50652,1577,0.4102195,0,0,2131.439,1,0,1580905796.492468,9600.452522,0,0.4597473,97.19775
1580905888.050721,90,0,1580904337.000819,41.20701635159924,29.07533761282497,172.748,-1,-1,5.74967098236084,48.00724964208526,-9999,9603.806887000001,0.9712982177734375,0.08349609375,-0.085968017578125,9603.801852000001,0.8363983640625383,1.486357339580555,-0.09019502152959456,-0.02955065295100212,0.1382351219654083,-0.02240629494190216,-0.01262801885604858,-0.008147478103637695,-0.01508104801177979,2,0.3048456561235277,-0.6042112236406588,-0.2708522348617947,-0.6845705225452841,0.9923866391181946,0.09007278084754944,-0.08399584889411926,19.14106750488281,0.9473762512207031,18.89944458007812,2,9603.759432000001,2,0,1580905888.000598,1580903939.50652,1577,0.4102195,0,0,2131.439,1,0,1580905796.492468,9601.394375,0,0.5099792,97.19717
1580905888.05221,91,0,1580904337.000819,41.20701635159924,29.07533761282497,172.748,-1,-1,5.74967098236084,48.00724964208526,-9999,9603.816927,0.9765625,0.088226318359375,-0.0913848876953125,9603.811892,0.8367150466295948,1.48780531491168,-0.09051124025785888,-0.03293538093566895,0.1395915448665619,-0.03226075321435928,-0.02285212278366089,-0.007043853402137756,-0.004956722259521484,2,0.3052416424886891,-0.6046067458785449,-0.2706399176549495,-0.6841287201075704,0.9924788475036621,0.09038770943880081,-0.08255644142627716,19.13102722167969,0.8894844055175781,19.10787963867188,2,9603.759432000001,2,0,1580905888.000598,1580903939.50652,1577,0.4102195,0,0,2131.439,1,0,1580905796.492468,9601.394375,0,0.5099792,97.19717
1580905888.053503,92,0,1580904337.000819,41.20701635159924,29.07533761282497,172.748,-1,-1,5.74967098236084,48.00724964208526,-9999,9603.826968000001,0.97320556640625,0.0944366455078125,-0.085723876953125,9603.821932000001,0.8370642706656211,1.489309214887553,-0.0907773994727482,-0.03768859058618546,0.1509203761816025,-0.02389043569564819,-0.01768702268600464,-0.002579167485237122,-0.01187044382095337,2,0.3056383233266232,-0.6050242189625786,-0.2704455795019013,-0.6836594010233871,0.9925780296325684,0.09065277874469757,-0.08106181770563126,19.13102722167969,0.8894844055175781,19.10787963867188,2,9603.759432000001,2,0,1580905888.000598,1580903939.50652,1577,0.4102195,0,0,2131.439,1,0,1580905796.492468,9601.394375,0,0.5099792,97.19717
1580905888.060311,93,0,1580904337.000819,41.20701635159924,29.07533761282497,172.748,-1,-1,5.74967098236084,48.00724964208526,-9999,9603.837039,0.9727630615234375,0.0977325439453125,-0.08331298828125,9603.831973,0.8374083845878998,1.490661836604813,-0.09104756247036022,-0.03762789815664291,0.1339823007583618,-0.02385230362415314,-0.02112823724746704,0.003361687064170837,-0.007556438446044922,2,0.3060142607057982,-0.6053896893234969,-0.2702709111760762,-0.6832365709565963,0.992662250995636,0.09092181921005249,-0.07971718907356262,19.13805389404297,0.794677734375,19.21847534179688,2,9603.759432000001,2,0,1580905888.000598,1580903939.50652,1577,0.4102195,0,0,2131.439,1,0,1580905796.492468,9601.394375,0,0.5099792,97.19717
1580905888.070436,94,0,1580904337.000819,41.20701635159924,29.07533761282497,172.748,-1,-1,5.74967098236084,48.00724964208526,-9999,9603.847079000001,0.969818115234375,0.0928955078125,-0.0878753662109375,9603.842013000001,0.8376691196210142,1.491928138970589,-0.09123801397810472,-0.02659761719405651,0.127312958240509,-0.01549983397126198,-0.02165365219116211,0.006467625498771667,-0.006406128406524658,2,0.3063269799948544,-0.6057511148020597,-0.270105833251762,-0.6828410978216879,0.9927449226379395,0.09111148118972778,-0.07845873385667801,19.13805389404297,0.794677734375,19.21847534179688,2,9603.759432000001,2,0,1580905888.000598,1580903939.50652,1577,0.4102195,0,0,2131.439,1,0,1580905796.492468,9601.394375,0,0.5099792,97.19717
1580905888.080398,95,0,1580904337.000819,41.20701635159924,29.07533761282497,172.748,-1,-1,5.74967098236084,48.00724964208526,-9999,9603.857119,0.9663848876953125,0.0910491943359375,-0.082763671875,9603.852053000001,0.8378907457784657,1.493130046252404,-0.09140658411003032,-0.0239552017301321,0.1209480911493301,-0.01452063582837582,-0.02467674016952515,0.001462474465370178,-0.01216435432434082,2,0.3066117191525244,-0.6060999010129043,-0.2699439619030664,-0.6824679915154376,0.9928235411643982,0.09127935022115707,-0.07726432383060455,19.04338836669922,0.7955360412597656,19.18917846679688,2,9603.759432000001,2,0,1580905888.000598,1580903939.50652,1577,0.4102195,0,0,2131.439,1,0,1580905796.492468,9601.394375,0,0.5099792,97.19717
1580905888.108483,96,0,1580904337.000819,41.20701635159924,29.07533761282497,172.748,-1,-1,5.74967098236084,48.00724964208526,-9999,9603.867159000001,0.973236083984375,0.0883026123046875,-0.0837860107421875,9603.862093,0.838087394963889,1.49431635173401,-0.09150687249913371,-0.02163931727409363,0.1197776347398758,-0.006363639608025551,-0.02819174528121948,-0.0004838854074478149,-0.008233308792114258,2,0.3068644187561804,-0.6064580346862756,-0.2697973164636345,-0.682093940185369,0.9929050803184509,0.09137921780347824,-0.07608576118946075,19.04338836669922,0.7955360412597656,19.18917846679688,2,9603.759432000001,2,0,1580905888.000598,1580903939.50652,1577,0.4102195,0,0,2131.439,1,0,1580905796.492468,9601.394375,0,0.5099792,97.19717
1580905888.109711,97,0,1580904337.000819,41.20701635159924,29.07533761282497,172.748,-1,-1,5.74967098236084,48.00724964208526,-9999,9603.877225041668,0.972198486328125,0.09051513671875,-0.0771331787109375,9603.872134000001,0.8382901327921007,1.495490409106485,-0.09157914803133105,-0.02160809375345707,0.117246612906456,-0.00699913501739502,-0.02142268419265747,-0.003302529454231262,-0.01042383909225464,2,0.3071079759042747,-0.6068154153105318,-0.2696633225253664,-0.6817193759753792,0.9929871559143066,0.09145119041204453,-0.07491948455572128,18.97621917724609,1.221649169921875,19.20208740234375,2,9603.759432000001,2,0,1580905888.000598,1580903939.50652,1577,0.4102195,0,0,2131.439,1,0,1580905796.492468,9601.394375,0,0.5099792,97.19717
1580905888.110817,98,0,1580904337.000819,41.20701635159924,29.07533761282497,172.748,-1,-1,5.74967098236084,48.00724964208526,-9999,9603.887265041667,0.9793701171875,0.0922088623046875,-0.07916259765625,9603.882230041667,0.8384909123029196,1.496611205219084,-0.09159017093144628,-0.01907382905483246,0.1133589297533035,0.0009943433105945587,-0.02254265546798706,-0.001101002097129822,-0.004885673522949219,2,0.307323595079567,-0.6071647146686675,-0.2695560885107787,-0.6813535761996697,0.993069589138031,0.09146217256784439,-0.07380643486976624,18.97621917724609,1.221649169921875,19.20208740234375,2,9603.759432000001,2,0,1580905888.000598,1580903939.50652,1577,0.4102195,0,0,2131.439,1,0,1580905796.492468,9601.394375,0,0.5099792,97.19717
1580905888.120782,99,0,1580904337.000819,41.20701635159924,29.07533761282497,172.748,-1,-1,5.74967098236084,48.00724964208526,-9999,9603.897305041668,0.9766082763671875,0.08856201171875,-0.075927734375,9603.892270041668,0.8387022825591005,1.497673621723456,-0.09157218972544603,-0.02070701867341995,0.1045860201120377,0.002149535343050957,-0.01545029878616333,0.0006106942892074585,-0.007971704006195068,2,0.3075250829334425,-0.6074969942060653,-0.2694704700990246,-0.6810001664845904,0.9931489825248718,0.09144426137208939,-0.07275144755840302,18.78632354736328,0.8407783508300781,19.4498291015625,2,9603.759432000001,2,0,1580905888.000598,1580903939.50652,1577,0.4102195,0,0,2131.439,1,0,1580905796.492468,9601.394375,0,0.5099792,97.19717
1580905888.130589,100,0,1580904337.000819,41.20701635159924,29.07533761282497,172.748,-1,-1,5.74967098236084,48.00724964208526,-9999,9603.907346041668,0.9858245849609375,0.0862579345703125,-0.076141357421875,9603.902310041667,0.8389572361295196,1.498641106227982,-0.09145494175102745,-0.02552387677133083,0.09664075076580048,0.01416039187461138,-0.01829278469085693,-0.002919197082519531,-0.005698323249816895,2,0.3076944373913192,-0.6078062705096425,-0.2694456863608956,-0.6806575149444316,0.9932296872138977,0.09132750332355499,-0.07179134339094162,18.78632354736328,0.8407783508300781,19.4498291015625,2,9603.759432000001,2,0,1580905888.000598,1580903939.50652,1577,0.4102195,0,0,2131.439,1,0,1580905796.492468,9601.394375,0,0.5099792,97.19717
1580905888.140638,101,0,1580904337.000819,41.20701635159924,29.07533761282497,172.748,-1,-1,5.74967098236084,48.00724964208526,-9999,9603.917386041667,0.976348876953125,0.0868682861328125,-0.0701751708984375,9603.912350041668,0.8391851720893893,1.499466097404184,-0.0912605582962383,-0.01989718526601791,0.08332812786102295,0.02247143536806107,-0.009153187274932861,-0.005029410123825073,-0.006731390953063965,2,0.3078111832639107,-0.6080836177388771,-0.2694580324939543,-0.6803520910955712,0.9933063387870789,0.09113393723964691,-0.07097318023443222,19.16110992431641,0.9018058776855469,19.3162841796875,2,9603.759432000001,2,0,1580905888.000598,1580903939.50652,1577,0.4102195,0,0,2131.439,1,0,1580905796.492468,9601.394375,0,0.5099792,97.19717
1580905888.17572,102,0,1580904337.000819,41.20701635159924,29.07533761282497,172.748,-1,-1,5.74967098236084,48.00724964208526,-9999,9603.927426041668,0.9773101806640625,0.0914459228515625,-0.072479248046875,9603.922391041668,0.8393878871184725,1.500124254849423,-0.09104211435952658,-0.01848331280052662,0.06586871296167374,0.02326053008437157,-0.0186954140663147,-0.004201114177703857,-0.001418828964233398,2,0.3078899784271926,-0.6083118886283158,-0.2694950664015405,-0.680097651484589,0.9933726191520691,0.09091639518737793,-0.07032081484794617,19.16110992431641,0.9018058776855469,19.3162841796875,2,9603.759432000001,2,0,1580905888.000598,1580903939.50652,1577,0.4102195,0,0,2131.439,1,0,1580905796.492468,9601.394375,0,0.5099792,97.19717
1580905888.177111,103,0,1580904337.000819,41.20701635159924,29.07533761282497,172.748,-1,-1,5.74967098236084,48.00724964208526,-9999,9603.937466041667,0.97796630859375,0.09490966796875,-0.07281494140625,9603.932431041667,0.8394938749072662,1.500578890824602,-0.09071198427337904,-0.008025574497878551,0.04646486416459084,0.03538684546947479,-0.01779597997665405,0.0007058382034301758,-0.004173099994659424,2,0.3078753783087522,-0.6085039882163624,-0.2695660211333008,-0.6799043646078152,0.9934344887733459,0.09058763086795807,-0.06987129896879196,19.24891662597656,0.9760894775390625,19.4569091796875,2,9603.759432000001,2,0,1580905888.000598,1580903939.50652,1577,0.4102195,0,0,2131.439,1,0,1580905796.492468,9601.394375,0,0.5099792,97.19717
1580905888.178047,104,0,1580904337.000819,41.20701635159924,29.07533761282497,172.748,-1,-1,5.74967098236084,48.00724964208526,-9999,9603.947537041668,0.9837646484375,0.09307861328125,-0.06964111328125,9603.942471041668,0.8395269995966672,1.500824278263324,-0.09031965201912058,-0.001071261707693338,0.02624108642339706,0.03949477523565292,-0.017192542552948,0.004560932517051697,-0.004750669002532959,2,0.3077901455093388,-0.608646229837874,-0.2696641749123915,-0.6797765876745822,0.9934868812561035,0.09019690006971359,-0.06962998956441879,19.24891662597656,0.9760894775390625,19.4569091796875,2,9603.759432000001,2,0,1580905888.000598,1580903939.50652,1577,0.4102195,0,0,2131.439,1,0,1580905796.492468,9601.394375,0,0.5099792,97.19717
1580905888.180903,105,0,1580904337.000819,41.20701635159924,29.07533761282497,172.748,-1,-1,5.74967098236084,48.00724964208526,-9999,9603.957577041667,0.983062744140625,0.094085693359375,-0.0703125,9603.952512041667,0.839459786774491,1.500853477425337,-0.08987574598953608,0.01096564810723066,0.00601886585354805,0.0457037165760994,-0.0114361047744751,0.003172755241394043,-0.001603245735168457,2,0.3076283574962985,-0.6087387910356106,-0.2697778857722454,-0.679721675942231,0.9935285449028015,0.08975479751825333,-0.06960375607013702,19.03318023681641,0.8904953002929688,19.44985961914062,2,9603.759432000001,2,0,1580905888.000598,1580903939.50652,1577,0.4102195,0,0,2131.439,1,0,1580905796.492468,9601.394375,0,0.5099792,97.19717
1580905888.191022,106,0,1580904337.000819,41.20701635159924,29.07533761282497,172.748,-1,-1,5.74967098236084,48.00724964208526,-9999,9603.967618041666,0.97894287109375,0.094940185546875,-0.067657470703125,9603.962552041667,0.8392982729260777,1.500695356194986,-0.08946975313302133,0.01843102276325226,-0.01314976904541254,0.0395030789077282,-0.01216328144073486,0.004584863781929016,-0.002114713191986084,2,0.3074249160405558,-0.6087760001415536,-0.2698763105542578,-0.6797413867723751,0.9935538768768311,0.08935043215751648,-0.06976340711116791,19.03318023681641,0.8904953002929688,19.44985961914062,2,9603.759432000001,2,0,1580905888.000598,1580903939.50652,1577,0.4102195,0,0,2131.439,1,0,1580905796.492468,9601.394375,0,0.5099792,97.19717
1580905888.201338,107,0,1580904337.000819,41.20701635159924,29.07533761282497,172.748,-1,-1,5.74967098236084,48.00724964208526,-9999,9603.977658041667,0.9873199462890625,0.0930328369140625,-0.0756072998046875,9603.972592041668,0.8390321243576803,1.500416715002884,-0.08904589987560596,0.03051096946001053,-0.02499979361891747,0.04177912324666977,-0.01630127429962158,0.005862221121788025,0.0008206367492675781,2,0.3071674539987859,-0.6087911779655497,-0.269963323974874,-0.6798097330799165,0.9935722351074219,0.08892826735973358,-0.07004291564226151,18.95432281494141,0.8908042907714844,19.64437866210938,2,9603.759432000001,2,0,1580905888.000598,1580903939.50652,1577,0.4102195,0,0,2131.439,1,0,1580905796.492468,9601.394375,0,0.5099792,97.19717
1580905888.235613,108,0,1580904337.000819,41.20701635159924,29.07533761282497,172.748,-1,-1,5.74967098236084,48.00724964208526,-9999,9603.987698041667,0.978363037109375,0.089599609375,-0.0721282958984375,9603.982632041667,0.8387390876185232,1.500096777217458,-0.08870192120711687,0.03234455734491348,-0.02867149189114571,0.03109105676412582,-0.00793224573135376,0.004298135638237,-0.006808757781982422,2,0.3069223797699078,-0.6087833595175136,-0.2700220875890849,-0.6799040791393333,0.9935802221298218,0.08858565241098404,-0.07036294788122177,18.95432281494141,0.8908042907714844,19.64437866210938,2,9603.759432000001,2,0,1580905888.000598,1580903939.50652,1577,0.4102195,0,0,2131.439,1,0,1580905796.492468,9601.394375,0,0.5099792,97.19717
1580905888.237149,109,0,1580904337.000819,41.20701635159924,29.07533761282497,172.748,-1,-1,5.74967098236084,48.00724964208526,-9999,9603.997739041668,0.981689453125,0.0918121337890625,-0.0800933837890625,9603.992703041667,0.8383846607109194,1.499722069242095,-0.08843401381529122,0.03751818463206291,-0.03485952317714691,0.02312824875116348,-0.01688641309738159,0.001132190227508545,-0.002955138683319092,2,0.306676107215259,-0.608753891462757,-0.2700441493193658,-0.6800328345221841,0.9935774207115173,0.08831879496574402,-0.07073692977428436,19.06312561035156,1.192405700683594,19.37112426757812,2,9603.759432000001,2,0,1580905888.000598,1580903939.50652,1577,0.4102195,0,0,2131.439,1,0,1580905796.492468,9601.394375,0,0.5099792,97.19717
1580905888.238355,110,0,1580904337.000819,41.20701635159924,29.07533761282497,172.748,-1,-1,5.74967098236084,48.00724964208526,-9999,9604.007779041667,0.965087890625,0.0853729248046875,-0.076934814453125,9604.002743041667,0.8379631141962709,1.499314942532433,-0.08817436264451402,0.04421363770961761,-0.03608244657516479,0.02146457135677338,-0.01355403661727905,0.003603711724281311,-0.0105135440826416,2,0.306407744837263,-0.6087222377518332,-0.2700456360319069,-0.6801814357797257,0.9935712814331055,0.0880601555109024,-0.07114306092262268,18.99549102783203,1.079128265380859,19.45266723632812,2,9603.759432000001,2,0,1580905888.000598,1580903939.50652,1577,0.4102195,0,0,2131.439,1,0,1580905796.492468,9601.394375,0,0.5099792,97.19717
1580905888.241107,111,0,1580904337.000819,41.20701635159924,29.07533761282497,172.748,-1,-1,5.74967098236084,48.00724964208526,-9999,9604.017819041666,0.978515625,0.0827789306640625,-0.0753021240234375,9604.012784041668,0.8375003063665662,1.498774328333223,-0.08784142605957228,0.04808513075113297,-0.04934225231409073,0.03017538785934448,-0.03014630079269409,-0.002503275871276855,-0.006815075874328613,2,0.3060847235123431,-0.6086632864944063,-0.2700766822439137,-0.6803672217304872,0.9935618042945862,0.08772850036621094,-0.07168228924274445,18.99549102783203,1.079128265380859,19.45266723632812,2,9603.759432000001,2,0,1580905888.000598,1580903939.50652,1577,0.4102195,0,0,2131.439,1,0,1580905796.492468,9601.394375,0,0.5099792,97.19717
1580905888.251096,112,0,1580904337.000819,41.20701635159924,29.07533761282497,172.748,-1,-1,5.74967098236084,48.00724964208526,-9999,9604.027859041667,0.97174072265625,0.07666015625,-0.0655670166015625,9604.022824041667,0.8370129738107349,1.498060434467754,-0.087514685226244,0.05246629938483238,-0.06722591072320938,0.03127527236938477,-0.01669579744338989,-0.004771247506141663,-0.004469811916351318,2,0.3057327612079145,-0.6085479825477684,-0.2701237660069403,-0.6806100238715097,0.9935390949249268,0.08740302175283432,-0.07239366322755814,18.97956085205078,0.906890869140625,19.34707641601562,2,9603.759432000001,2,0,1580905888.000598,1580903939.50652,1577,0.4102195,0,0,2131.439,1,0,1580905796.492468,9601.394375,0,0.5099792,97.19717
1580905888.261582,113,0,1580904337.000819,41.20701635159924,29.07533761282497,172.748,-1,-1,5.74967098236084,48.00724964208526,-9999,9604.037900041667,0.988800048828125,0.077484130859375,-0.0784149169921875,9604.032864041666,0.8365671139685081,1.497275811571798,-0.08735574742042823,0.0433734767138958,-0.0760156661272049,0.01192300301045179,-0.02342760562896729,-0.01073142886161804,0.00604701042175293,2,0.3054389467754334,-0.6083748354523932,-0.270142316707859,-0.6808893672664378,0.9934958815574646,0.08724468946456909,-0.07317421585321426,18.97956085205078,0.906890869140625,19.34707641601562,2,9603.759432000001,2,0,1580905888.000598,1580903939.50652,1577,0.4102195,0,0,2131.439,1,0,1580905796.492468,9601.394375,0,0.5099792,97.19717
1580905888.296218,114,0,1580904337.000819,41.20701635159924,29.07533761282497,172.748,-1,-1,5.74967098236084,48.00724964208526,-9999,9604.047940041668,0.98541259765625,0.0758209228515625,-0.0831146240234375,9604.042905041668,0.836058888141304,1.496624678212429,-0.08734429443886085,0.05456141754984856,-0.06017998233437538,-1.32853165268898e-05,-0.006321489810943604,-0.009896025061607361,-0.0061531662940979,2,0.3051927028254633,-0.6082325469884824,-0.2700722844028541,-0.6811545314265866,0.9934489130973816,0.0872332751750946,-0.07382116466760635,19.11355590820312,1.253353118896484,19.41458129882812,2,9603.759432000001,2,0,1580905888.000598,1580903939.50652,1577,0.4102195,0,0,2131.439,1,0,1580905796.492468,9601.394375,0,0.5099792,97.19717
1580905888.297426,115,0,1580904337.000819,41.20701635159924,29.07533761282497,172.748,-1,-1,5.74967098236084,48.00724964208526,-9999,9604.058011041667,0.972900390625,0.07293701171875,-0.0837249755859375,9604.052945041667,0.835709705771745,1.496219747090508,-0.08757068461767256,0.03012370690703392,-0.03863101825118065,-0.02652357891201973,-0.009659230709075928,-0.01178514957427979,-0.01045131683349609,2,0.3051062270753506,-0.6081111793910522,-0.2699433420281625,-0.6813527459527602,0.9933992624282837,0.08745880424976349,-0.07422196865081787,19.11355590820312,1.253353118896484,19.41458129882812,2,9603.759432000001,2,0,1580905888.000598,1580903939.50652,1577,0.4102195,0,0,2131.439,1,0,1580905796.492468,9601.394375,0,0.5099792,97.19717
1580905888.298422,116,0,1580904337.000819,41.20701635159924,29.07533761282497,172.748,-1,-1,5.74967098236084,48.00724964208526,-9999,9604.068051041668,0.97589111328125,0.0735015869140625,-0.0872802734375,9604.062985041668,0.8354352352712352,1.496048010827972,-0.08782175642858871,0.02864565327763557,-0.01377200707793236,-0.02612756937742233,-0.02213668823242188,-0.01491959393024445,-0.01089239120483398,2,0.3050820879536427,-0.6080538243498456,-0.2697964218942617,-0.6814729850196048,0.9933646321296692,0.08770891278982162,-0.07439093291759491,19.16064453125,1.192043304443359,19.50015258789062,2,9603.759432000001,2,0,1580905888.000598,1580903939.50652,1577,0.4102195,0,0,2131.439,1,0,1580905796.492468,9601.394375,0,0.5099792,97.19717
1580905888.301405,117,0,1580904337.000819,41.20701635159924,29.07533761282497,172.748,-1,-1,5.74967098236084,48.00724964208526,-9999,9604.078091041667,0.9644317626953125,0.080108642578125,-0.0814361572265625,9604.073025041667,0.8353845019754111,1.496025978745059,-0.08809338194177729,-0.001175086013972759,-0.002038085833191872,-0.02839291840791702,-0.01912045478820801,-0.01462605595588684,-0.01442766189575195,2,0.3051529810847853,-0.6080099868661077,-0.2696963590015959,-0.6815198780459577,0.9933390617370605,0.08797948807477951,-0.07441102713346481,19.16064453125,1.192043304443359,19.50015258789062,2,9603.759432000001,2,0,1580905888.000598,1580903939.50652,1577,0.4102195,0,0,2131.439,1,0,1580905796.492468,9601.394375,0,0.5099792,97.19717
1580905888.311305,118,0,1580904337.000819,41.20701635159924,29.07533761282497,172.748,-1,-1,5.74967098236084,48.00724964208526,-9999,9604.088132041667,0.9695892333984375,0.0883026123046875,-0.0859375,9604.083066041667,0.8353312585469727,1.496078845383723,-0.08830881658115972,0.005272160284221172,0.007244361564517021,-0.01979570090770721,-0.03056490421295166,-0.008233949542045593,-0.008637547492980957,2,0.3052146871029305,-0.6080011861519028,-0.2696018388202176,-0.6815375797505284,0.9933242201805115,0.08819407969713211,-0.07435710728168488,19.16288757324219,1.167812347412109,19.42599487304688,2,9604.080899041668,1,2,1580905888.322065,1580903939.50652,1577,0.4102195,0,0,2131.439,1,0,1580905796.492468,9601.394375,0,0.5099792,97.19717
1580905888.321743,119,0,1580904337.000819,41.20701635159924,29.07533761282497,172.748,-1,-1,5.74967098236084,48.00724964208526,-9999,9604.098172041668,0.9706268310546875,0.093475341796875,-0.0787353515625,9604.093106041668,0.8352914224784496,1.49611882249551,-0.0884895877971725,0.001723962835967541,0.005637539550662041,-0.01764827966690063,-0.0253944993019104,-0.0002203434705734253,-0.01317989826202393,2,0.3052673618358837,-0.607991558871873,-0.2695248338534331,-0.6815530382327623,0.9933112859725952,0.08837414532899857,-0.07431620359420776,19.16288757324219,1.167812347412109,19.42599487304688,2,9604.080899041668,1,2,1580905888.322065,1580903939.50652,1577,0.4102195,0,0,2131.439,1,0,1580905796.492468,9601.394375,0,0.5099792,97.19717
1580905888.355219,120,0,1580904337.000819,41.20701635159924,29.07533761282497,172.748,-1,-1,5.74967098236084,48.00724964208526,-9999,9604.108212041667,0.9803009033203125,0.0931243896484375,-0.0804290771484375,9604.103177041667,0.835195209054047,1.49606086916038,-0.08864048567872508,0.009318498894572258,-0.004364762455224991,-0.01698169112205505,-0.02433931827545166,0.004801824688911438,-0.005921304225921631,2,0.3052799145813549,-0.6079619981441179,-0.26945302672736,-0.6816020899900096,0.9932935237884521,0.08852445334196091,-0.07437276840209961,19.17711639404297,1.225994110107422,19.40667724609375,2,9604.080899041668,1,2,1580905888.322065,1580903939.50652,1577,0.4102195,0,0,2131.439,1,0,1580905796.492468,9601.394375,0,0.5099792,97.19717
1580905888.356945,121,0,1580904337.000819,41.20701635159924,29.07533761282497,172.748,-1,-1,5.74967098236084,48.00724964208526,-9999,9604.118252041668,0.9725494384765625,0.08856201171875,-0.0785980224609375,9604.113217041668,0.8350604490291692,1.495970050036751,-0.08877416579555401,0.01370235811918974,-0.00895711500197649,-0.01464436016976833,-0.01464664936065674,0.004317447543144226,-0.007525503635406494,2,0.3052706522907357,-0.6079299182464671,-0.2693785609780008,-0.6816642527395851,0.9932749271392822,0.08865761011838913,-0.07446208596229553,19.17711639404297,1.225994110107422,19.40667724609375,2,9604.080899041668,1,2,1580905888.322065,1580903939.50652,1577,0.4102195,0,0,2131.439,1,0,1580905796.492468,9601.394375,0,0.5099792,97.19717
1580905888.357991,122,0,1580904337.000819,41.20701635159924,29.07533761282497,172.748,-1,-1,5.74967098236084,48.00724964208526,-9999,9604.128293041667,0.9756927490234375,0.0876617431640625,-0.0791778564453125,9604.123257041667,0.8349399766368021,1.495871012439176,-0.08893854009388119,0.009945969097316265,-0.008178406395018101,-0.01907958835363388,-0.02237623929977417,-0.0004089027643203735,-0.005597114562988281,2,0.3052746977229515,-0.6078878795357038,-0.2693004857854472,-0.6817308157175632,0.9932530522346497,0.08882133662700653,-0.07455936819314957,19.14334106445312,1.102020263671875,19.56304931640625,2,9604.080899041668,1,2,1580905888.322065,1580903939.50652,1577,0.4102195,0,0,2131.439,1,0,1580905796.492468,9601.394375,0,0.5099792,97.19717
1580905888.361639,123,0,1580904337.000819,41.20701635159924,29.07533761282497,172.748,-1,-1,5.74967098236084,48.00724964208526,-9999,9604.138333041667,0.97607421875,0.0905609130859375,-0.0822296142578125,9604.133298041666,0.8347613546890715,1.495743143209,-0.08906197842547037,0.01880022510886192,-0.01052374579012394,-0.01285184361040592,-0.01921242475509644,-0.001432359218597412,-0.006050467491149902,2,0.3052437526274037,-0.6078515232520155,-0.2692199648898333,-0.6818089028135266,0.9932326078414917,0.08894428610801697,-0.07468555122613907,19.14334106445312,1.102020263671875,19.56304931640625,2,9604.080899041668,1,2,1580905888.322065,1580903939.50652,1577,0.4102195,0,0,2131.439,1,0,1580905796.492468,9601.394375,0,0.5099792,97.19717
1580905888.371702,124,0,1580904337.000819,41.20701635159924,29.07533761282497,172.748,-1,-1,5.74967098236084,48.00724964208526,-9999,9604.148373041668,0.9721527099609375,0.0935821533203125,-0.0823822021484375,9604.143338041667,0.8345918957754422,1.495616194520003,-0.08920384988310506,0.01485288608819246,-0.01029790937900543,-0.01789640262722969,-0.01880884170532227,0.001325279474258423,-0.008976936340332031,2,0.3052218127939546,-0.6078110733307061,-0.2691365656604011,-0.6818876390170749,0.9932104349136353,0.08908559381961823,-0.074810691177845,19.13909912109375,1.202991485595703,19.43798828125,2,9604.080899041668,1,2,1580905888.322065,1580903939.50652,1577,0.4102195,0,0,2131.439,1,0,1580905796.492468,9601.394375,0,0.5099792,97.19717
1580905888.381662,125,0,1580904337.000819,41.20701635159924,29.07533761282497,172.748,-1,-1,5.74967098236084,48.00724964208526,-9999,9604.158414041667,0.9777069091796875,0.0872650146484375,-0.0815887451171875,9604.153378041667,0.8344047183505957,1.495463728840267,-0.08929831793325592,0.01954681053757668,-0.01260742451995611,-0.01127808634191751,-0.02271044254302979,0.004252254962921143,-0.008978426456451416,2,0.3051754620168139,-0.6077723215690002,-0.2690660510551283,-0.6819707574400333,0.993190586566925,0.08917968720197678,-0.07496148347854614,19.13909912109375,1.202991485595703,19.43798828125,2,9604.080899041668,1,2,1580905888.322065,1580903939.50652,1577,0.4102195,0,0,2131.439,1,0,1580905796.492468,9601.394375,0,0.5099792,97.19717
1580905888.412519,126,0,1580904337.000819,41.20701635159924,29.07533761282497,172.748,-1,-1,5.74967098236084,48.00724964208526,-9999,9604.168484041667,0.97674560546875,0.08050537109375,-0.075042724609375,9604.163419041668,0.8342569083848229,1.495283945380983,-0.08943176162204304,0.01250195037573576,-0.01578963547945023,-0.01583688519895077,-0.01713085174560547,-0.002198010683059692,-0.0080069899559021,2,0.305150203102996,-0.6077119200947263,-0.2690007637551941,-0.6820617079992787,0.9931653141975403,0.0893125981092453,-0.07513915002346039,19.14426422119141,1.159976959228516,19.37545776367188,2,9604.080899041668,1,2,1580905888.322065,1580903939.50652,1577,0.4102195,0,0,2131.439,1,0,1580905796.492468,9601.394375,0,0.5099792,97.19717
1580905888.413765,127,0,1580904337.000819,41.20701635159924,29.07533761282497,172.748,-1,-1,5.74967098236084,48.00724964208526,-9999,9604.178525041667,0.9795989990234375,0.0777740478515625,-0.0784149169921875,9604.173459041667,0.8341100589401532,1.495045680695883,-0.08954207883124649,0.01329566910862923,-0.02099883556365967,-0.01133412029594183,-0.01806443929672241,-0.009067714214324951,-0.001224756240844727,2,0.3051097975410614,-0.6076351622430757,-0.268952048591618,-0.6821674011601646,0.9931375980377197,0.08942247182130814,-0.07537504285573959,19.14426422119141,1.159976959228516,19.37545776367188,2,9604.080899041668,1,2,1580905888.322065,1580903939.50652,1577,0.4102195,0,0,2131.439,1,0,1580905796.492468,9601.394375,0,0.5099792,97.19717
1580905888.414797,128,0,1580904337.000819,41.20701635159924,29.07533761282497,172.748,-1,-1,5.74967098236084,48.00724964208526,-9999,9604.188565041668,0.967041015625,0.0800018310546875,-0.082733154296875,9604.183499041666,0.8339852259895274,1.494834076471101,-0.0896248801485863,0.01117685809731483,-0.01887602917850018,-0.009479228407144547,-0.01518774032592773,-0.01188167929649353,-0.004387140274047852,2,0.3050706700428172,-0.6075685765115443,-0.2689154828012598,-0.6822585326843321,0.993114173412323,0.08950494229793549,-0.07558462023735046,19.15653228759766,1.231739044189453,19.64041137695312,2,9604.080899041668,1,2,1580905888.322065,1580903939.50652,1577,0.4102195,0,0,2131.439,1,0,1580905796.492468,9601.394375,0,0.5099792,97.19717
1580905888.421966,129,0,1580904337.000819,41.20701635159924,29.07533761282497,172.748,-1,-1,5.74967098236084,48.00724964208526,-9999,9604.198605041667,0.969207763671875,0.084075927734375,-0.0915374755859375,9604.193539041667,0.8339382383153459,1.49474956234091,-0.08967116899686199,0.003130628727376461,-0.00771000050008297,-0.004980621859431267,-0.02773511409759521,-0.009700044989585876,-0.008621692657470703,2,0.3050602584027872,-0.6075393978177519,-0.2688976656204789,-0.6822961766295567,0.9931036233901978,0.08955104649066925,-0.07566823810338974,19.15653228759766,1.231739044189453,19.64041137695312,2,9604.080899041668,1,2,1580905888.322065,1580903939.50652,1577,0.4102195,0,0,2131.439,1,0,1580905796.492468,9601.394375,0,0.5099792,97.19717
1580905888.43188,130,0,1580904337.000819,41.20701635159924,29.07533761282497,172.748,-1,-1,5.74967098236084,48.00724964208526,-9999,9604.208646041667,0.9698486328125,0.084625244140625,-0.0888214111328125,9604.203580041667,0.8339956395881275,1.494825845692093,-0.08970033005772983,-0.004243397619575262,0.007500644773244858,-0.001722776796668768,-0.02557152509689331,-0.005655035376548767,-0.0175020694732666,2,0.3050975468451063,-0.6075519294567228,-0.2688963628210423,-0.6822688357960301,0.9931067228317261,0.08958008885383606,-0.0755922794342041,19.27154541015625,1.259040832519531,19.38772583007812,2,9604.080899041668,1,2,1580905888.322065,1580903939.50652,1577,0.4102195,0,0,2131.439,1,0,1580905796.492468,9601.394375,0,0.5099792,97.19717
1580905888.441927,131,0,1580904337.000819,41.20701635159924,29.07533761282497,172.748,-1,-1,5.74967098236084,48.00724964208526,-9999,9604.218686041668,0.971038818359375,0.08349609375,-0.086822509765625,9604.213650041667,0.8342052107937361,1.495060901500671,-0.08977255086911172,-0.02196928113698959,0.02216159366071224,-0.006107443477958441,-0.02494215965270996,-0.005177766084671021,-0.01502037048339844,2,0.3052165284413497,-0.6075884215974281,-0.268909091447839,-0.6821781921020511,0.9931181669235229,0.08965201675891876,-0.07535836100578308,19.27154541015625,1.259040832519531,19.38772583007812,2,9604.080899041668,1,2,1580905888.322065,1580903939.50652,1577,0.4102195,0,0,2131.439,1,0,1580905796.492468,9601.394375,0,0.5099792,97.19717
1580905888.47003,132,0,1580904337.000819,41.20701635159924,29.07533761282497,172.748,-1,-1,5.74967098236084,48.00724964208526,-9999,9604.228726041667,0.9707489013671875,0.0816192626953125,-0.08514404296875,9604.223691041667,0.8344683515611568,1.495435306086831,-0.08987481142093093,-0.0255882516503334,0.03524596989154816,-0.007748483680188656,-0.02377110719680786,-0.006408989429473877,-0.01339477300643921,2,0.3053804500918888,-0.6076593334327408,-0.2689092459042343,-0.6820415201781362,0.9931370615959167,0.08975386619567871,-0.07498583197593689,19.20917510986328,1.002250671386719,19.36935424804688,2,9604.080899041668,1,2,1580905888.322065,1580903939.50652,1577,0.4102195,0,0,2131.439,1,0,1580905796.492468,9601.394375,0,0.5099792,97.19717
1580905888.471374,133,0,1580904337.000819,41.20701635159924,29.07533761282497,172.748,-1,-1,5.74967098236084,48.00724964208526,-9999,9604.238766041668,0.9716644287109375,0.0869293212890625,-0.0814971923828125,9604.233731041668,0.8348333454380211,1.49593368644527,-0.09001980804220028,-0.03847172111272812,0.0470740869641304,-0.01193534769117832,-0.0240854024887085,-0.008430466055870056,-0.01221311092376709,2,0.3056059936197487,-0.6077499742030681,-0.2689115827667178,-0.681858832506171,0.9931613802909851,0.08989827334880829,-0.07448989152908325,19.20917510986328,1.002250671386719,19.36935424804688,2,9604.080899041668,1,2,1580905888.322065,1580903939.50652,1577,0.4102195,0,0,2131.439,1,0,1580905796.492468,9601.394375,0,0.5099792,97.19717
1580905888.472536,134,0,1580904337.000819,41.20701635159924,29.07533761282497,172.748,-1,-1,5.74967098236084,48.00724964208526,-9999,9604.248807041668,0.97412109375,0.091644287109375,-0.08270263671875,9604.243771041667,0.8352215353539676,1.496517503726287,-0.09016023352601479,-0.03846826031804085,0.05595359951257706,-0.01115903630852699,-0.02320080995559692,-0.003260523080825806,-0.009148180484771729,2,0.3058485988485434,-0.6078668260932246,-0.2689101047171502,-0.6816464066683166,0.9931920170783997,0.09003813564777374,-0.07390911132097244,19.0301513671875,1.487979888916016,19.37188720703125,2,9604.080899041668,1,2,1580905888.322065,1580903939.50652,1577,0.4102195,0,0,2131.439,1,0,1580905796.492468,9601.394375,0,0.5099792,97.19717
1580905888.482096,135,0,1580904337.000819,41.20701635159924,29.07533761282497,172.748,-1,-1,5.74967098236084,48.00724964208526,-9999,9604.258847041667,0.9708709716796875,0.0920257568359375,-0.08251953125,9604.253812041667,0.8356324269507364,1.497170318628937,-0.09029107225718243,-0.04176501557230949,0.06190942227840424,-0.01001494936645031,-0.02078050374984741,0.00132395327091217,-0.01100409030914307,2,0.3061042394011933,-0.6080051536057191,-0.2689087206848894,-0.6814087522350245,0.9932282567024231,0.09016843885183334,-0.07325985282659531,19.0301513671875,1.487979888916016,19.37188720703125,2,9604.080899041668,1,2,1580905888.322065,1580903939.50652,1577,0.4102195,0,0,2131.439,1,0,1580905796.492468,9601.394375,0,0.5099792,97.19717
1580905888.492199,136,0,1580904337.000819,41.20701635159924,29.07533761282497,172.748,-1,-1,5.74967098236084,48.00724964208526,-9999,9604.268887041668,0.971527099609375,0.0910797119140625,-0.0833282470703125,9604.263852041668,0.8359987793672807,1.497856362814522,-0.0903680306466611,-0.0368134006857872,0.06578432023525238,-0.005585312843322754,-0.02407383918762207,0.001628607511520386,-0.01150393486022949,2,0.306333076267718,-0.6081702662305791,-0.2689040566158888,-0.6811605079035911,0.99327152967453,0.0902450829744339,-0.07257794588804245,19.20721435546875,1.146759033203125,19.60092163085938,2,9604.080899041668,1,2,1580905888.322065,1580903939.50652,1577,0.4102195,0,0,2131.439,1,0,1580905796.492468,9601.394375,0,0.5099792,97.19717
1580905888.502304,137,0,1580904337.000819,41.20701635159924,29.07533761282497,172.748,-1,-1,5.74967098236084,48.00724964208526,-9999,9604.278958041667,0.9713592529296875,0.08734130859375,-0.0775909423828125,9604.273892041667,0.8363137767993613,1.498538622855688,-0.09037839431589309,-0.03188199549913406,0.06697908788919449,0.001604695804417133,-0.02346622943878174,0.0006722509860992432,-0.01299154758453369,2,0.3065240035317032,-0.6083526427811305,-0.26890349689837,-0.6809119461778602,0.9933199286460876,0.09025540202856064,-0.07190019637346268,19.20721435546875,1.146759033203125,19.60092163085938,2,9604.080899041668,1,2,1580905888.322065,1580903939.50652,1577,0.4102195,0,0,2131.439,1,0,1580905796.492468,9601.394375,0,0.5099792,97.19717
1580905888.532193,138,0,1580904337.000819,41.20701635159924,29.07533761282497,172.748,-1,-1,5.74967098236084,48.00724964208526,-9999,9604.288998041668,0.9774627685546875,0.085113525390625,-0.073455810546875,9604.283932041668,0.8365693101520725,1.499166957866949,-0.09033841196032313,-0.02591784857213497,0.06204265356063843,0.006235932931303978,-0.02368277311325073,-0.003026291728019714,-0.007879376411437988,2,0.3066731494041378,-0.6085338396849413,-0.2689068475184724,-0.6806814030653539,0.9933683276176453,0.09021558612585068,-0.07127629220485687,19.11974334716797,1.138202667236328,19.68063354492188,2,9604.080899041668,1,2,1580905888.322065,1580903939.50652,1577,0.4102195,0,0,2131.439,1,0,1580905796.492468,9601.394375,0,0.5099792,97.19717
1580905888.534013,139,0,1580904337.000819,41.20701635159924,29.07533761282497,172.748,-1,-1,5.74967098236084,48.00724964208526,-9999,9604.299039041667,0.9765777587890625,0.0860595703125,-0.0709686279296875,9604.293973041667,0.8367634980038541,1.499726015600654,-0.0902882866730866,-0.01852736622095108,0.05556146800518036,0.005525855347514153,-0.01762348413467407,-0.005204066634178162,-0.004300355911254883,2,0.3067910028838506,-0.6087024385775586,-0.2689031070993353,-0.6804789180569422,0.9934124350547791,0.09016566723585129,-0.07072124630212784,19.11974334716797,1.138202667236328,19.68063354492188,2,9604.080899041668,1,2,1580905888.322065,1580903939.50652,1577,0.4102195,0,0,2131.439,1,0,1580905796.492468,9601.394375,0,0.5099792,97.19717
1580905888.535359,140,0,1580904337.000819,41.20701635159924,29.07533761282497,172.748,-1,-1,5.74967098236084,48.00724964208526,-9999,9604.309079041668,0.984527587890625,0.0876312255859375,-0.073455810546875,9604.304013041667,0.836927148898602,1.500213393880399,-0.09027235442017603,-0.01610948145389557,0.04844603687524796,0.002173202112317085,-0.01854455471038818,-0.004242151975631714,-0.00229799747467041,2,0.3069010769789945,-0.6088457425688162,-0.2688890808367888,-0.6803067396865881,0.9934484362602234,0.09014979749917984,-0.0702371820807457,19.18832397460938,1.152797698974609,19.46383666992188,2,9604.080899041668,1,2,1580905888.322065,1580903939.50652,1577,0.4102195,0,0,2131.439,1,0,1580905796.492468,9601.394375,0,0.5099792,97.19717
1580905888.542369,141,0,1580904337.000819,41.20701635159924,29.07533761282497,172.748,-1,-1,5.74967098236084,48.00724964208526,-9999,9604.319119041667,0.9803466796875,0.086456298828125,-0.074493408203125,9604.314084041667,0.8370328627766995,1.500622751097838,-0.09029076819728822,-0.01073210593312979,0.04128142446279526,-0.001962908077985048,-0.01062184572219849,-0.002688869833946228,-0.005192875862121582,2,0.3069943520730605,-0.6089657456032019,-0.2688563507067508,-0.6801700912276849,0.9934753179550171,0.09016813337802887,-0.06983038038015366,19.18832397460938,1.152797698974609,19.46383666992188,2,9604.080899041668,1,2,1580905888.322065,1580903939.50652,1577,0.4102195,0,0,2131.439,1,0,1580905796.492468,9601.394375,0,0.5099792,97.19717
1580905888.552446,142,0,1580904337.000819,41.20701635159924,29.07533761282497,172.748,-1,-1,5.74967098236084,48.00724964208526,-9999,9604.329159041667,0.9764404296875,0.084808349609375,-0.0752716064453125,9604.324124041666,0.8371105375757868,1.500941033974629,-0.09033332315905135,-0.009493736550211906,0.03167752921581268,-0.004097964614629745,-0.01482117176055908,-0.00390625,-0.00654757022857666,2,0.3070747590044587,-0.6090551265283186,-0.2688203649598091,-0.6800678806232581,0.9934935569763184,0.09021051973104477,-0.06951388716697693,19.08371734619141,1.315090179443359,19.44479370117188,2,9604.080899041668,1,2,1580905888.322065,1580903939.50652,1577,0.4102195,0,0,2131.439,1,0,1580905796.492468,9601.394375,0,0.5099792,97.19717
1580905888.562429,143,0,1580904337.000819,41.20701635159924,29.07533761282497,172.748,-1,-1,5.74967098236084,48.00724964208526,-9999,9604.339200041668,0.975006103515625,0.0826873779296875,-0.0736541748046875,9604.334164041667,0.8371401403161218,1.501180518024871,-0.09037238788743476,-0.0009702574461698532,0.02499253489077091,-0.002909786067903042,-0.01874035596847534,-0.005593150854110718,-0.007563948631286621,2,0.3071287022702157,-0.6091256802695891,-0.2687812499880443,-0.6799959497267745,0.9935068488121033,0.09024942666292191,-0.06927572935819626,19.08371734619141,1.315090179443359,19.44479370117188,2,9604.080899041668,1,2,1580905888.322065,1580903939.50652,1577,0.4102195,0,0,2131.439,1,0,1580905796.492468,9601.394375,0,0.5099792,97.19717
1580905888.591882,144,0,1580904337.000819,41.20701635159924,29.07533761282497,172.748,-1,-1,5.74967098236084,48.00724964208526,-9999,9604.349240041667,0.9754180908203125,0.0880279541015625,-0.07049560546875,9604.344205041667,0.8372018698018505,1.501310198473314,-0.09039760253703276,-0.008481969125568867,0.01301789842545986,-0.002578755374997854,-0.02018141746520996,-0.007739245891571045,-0.006075859069824219,2,0.3071731837264792,-0.6091561928513953,-0.2687743042930689,-0.6799512806226862,0.9935135841369629,0.09027453511953354,-0.06914673745632172,18.97636413574219,1.179878234863281,19.57815551757812,2,9604.080899041668,1,2,1580905888.322065,1580903939.50652,1577,0.4102195,0,0,2131.439,1,0,1580905796.492468,9601.394375,0,0.5099792,97.19717
1580905888.593339,145,0,1580904337.000819,41.20701635159924,29.07533761282497,172.748,-1,-1,5.74967098236084,48.00724964208526,-9999,9604.359280041666,0.9774627685546875,0.0918426513671875,-0.07568359375,9604.354245041668,0.8372004518096917,1.501357240980983,-0.09037748724168151,0.002458415925502777,0.005870755761861801,0.002382677048444748,-0.01977443695068359,-0.00237862765789032,-0.00296396017074585,2,0.3071724975184241,-0.6091756692578288,-0.2687729912335423,-0.6799346283216753,0.993518590927124,0.09025450050830841,-0.06910011917352676,18.97636413574219,1.179878234863281,19.57815551757812,2,9604.080899041668,1,2,1580905888.322065,1580903939.50652,1577,0.4102195,0,0,2131.439,1,0,1580905796.492468,9601.394375,0,0.5099792,97.19717
1580905888.594479,146,0,1580904337.000819,41.20701635159924,29.07533761282497,172.748,-1,-1,5.74967098236084,48.00724964208526,-9999,9604.369321041668,0.9772796630859375,0.087493896484375,-0.072235107421875,9604.364285041667,0.8372188223019875,1.501389994041317,-0.09040716303002055,-0.001757367514073849,0.004558881744742393,-0.003387327305972576,-0.01772946119308472,0.001406461000442505,-0.008184731006622314,2,0.3071921944869614,-0.6091791656648234,-0.2687647730718803,-0.6799258978681572,0.9935182929039001,0.09028405696153641,-0.06906739622354507,19.08261108398438,1.294639587402344,19.72317504882812,2,9604.080899041668,1,2,1580905888.322065,1580903939.50652,1577,0.4102195,0,0,2131.439,1,0,1580905796.492468,9601.394375,0,0.5099792,97.19717
1580905888.602706,147,0,1580904337.000819,41.20701635159924,29.07533761282497,172.748,-1,-1,5.74967098236084,48.00724964208526,-9999,9604.379391041668,0.9792022705078125,0.0838470458984375,-0.07366943359375,9604.374325041666,0.8372564824312022,1.501446915857621,-0.09051780673262126,-0.004554329439997673,0.005440337583422661,-0.01211260445415974,-0.01790666580200195,-0.003052681684494019,-0.004793882369995117,2,0.3072475705145655,-0.6091747347091111,-0.2687336366953019,-0.6799170635247479,0.9935120940208435,0.09039425104856491,-0.06901014596223831,19.08261108398438,1.294639587402344,19.72317504882812,2,9604.080899041668,1,2,1580905888.322065,1580903939.50652,1577,0.4102195,0,0,2131.439,1,0,1580905796.492468,9601.394375,0,0.5099792,97.19717
1580905888.612701,148,0,1580904337.000819,41.20701635159924,29.07533761282497,172.748,-1,-1,5.74967098236084,48.00724964208526,-9999,9604.389432041668,0.974090576171875,0.08306884765625,-0.0740814208984375,9604.384366041668,0.837314670352585,1.501579584704773,-0.09066398653438232,-0.006011344492435455,0.01357629336416721,-0.01395950745791197,-0.01597994565963745,-0.006845340132713318,-0.006360888481140137,2,0.3073309405899515,-0.609187144200699,-0.2686865512460558,-0.6798869866722765,0.9935082197189331,0.09053982794284821,-0.0688774362206459,18.99748992919922,1.493770599365234,19.53924560546875,2,9604.080899041668,1,2,1580905888.322065,1580903939.50652,1577,0.4102195,0,0,2131.439,1,0,1580905796.492468,9601.394375,0,0.5099792,97.19717
1580905888.622855,149,0,1580904337.000819,41.20701635159924,29.07533761282497,172.748,-1,-1,5.74967098236084,48.00724964208526,-9999,9604.399472041667,0.977142333984375,0.0819549560546875,-0.0762939453125,9604.394406041667,0.8374039258577971,1.501758144745047,-0.09084843030506461,-0.01005859952419996,0.01761254668235779,-0.01866459101438522,-0.02108722925186157,-0.007807552814483643,-0.006951868534088135,2,0.3074425278930226,-0.609204118732839,-0.2686307706534367,-0.6798432537857537,0.9935036897659302,0.09072351455688477,-0.06869886815547943,18.99748992919922,1.493770599365234,19.53924560546875,2,9604.080899041668,1,2,1580905888.322065,1580903939.50652,1577,0.4102195,0,0,2131.439,1,0,1580905796.492468,9601.394375,0,0.5099792,97.19717
1580905888.649068,150,0,1580904337.000819,41.20701635159924,29.07533761282497,172.748,-1,-1,5.74967098236084,48.00724964208526,-9999,9604.409512041668,0.97314453125,0.0841217041015625,-0.078338623046875,9604.404446041668,0.8375191219392903,1.502000856501294,-0.0910709336775834,-0.0129699669778347,0.02376045286655426,-0.021774897351861,-0.0180320143699646,-0.009143427014350891,-0.009407401084899902,2,0.3075830380330863,-0.6092327176466539,-0.2685618243063984,-0.6797813032981205,0.9935001730918884,0.09094509482383728,-0.06845634430646896,19.04906463623047,1.370384216308594,19.73574829101562,2,9604.080899041668,1,2,1580905888.322065,1580903939.50652,1577,0.4102195,0,0,2131.439,1,0,1580905796.492468,9601.394375,0,0.5099792,97.19717
1580905888.650369,151,0,1580904337.000819,41.20701635159924,29.07533761282497,172.748,-1,-1,5.74967098236084,48.00724964208526,-9999,9604.419553041667,0.97381591796875,0.0877532958984375,-0.07403564453125,9604.414487041668,0.837660332041014,1.502280113977467,-0.0913371619781302,-0.01480620168149471,0.02786951512098312,-0.02645912766456604,-0.02202469110488892,-0.007242247462272644,-0.01173168420791626,2,0.3077506760909527,-0.6092625913097653,-0.2684821481425158,-0.6797100862388352,0.993494987487793,0.09121021628379822,-0.068177230656147,19.04906463623047,1.370384216308594,19.73574829101562,2,9604.080899041668,1,2,1580905888.322065,1580903939.50652,1577,0.4102195,0,0,2131.439,1,0,1580905796.492468,9601.394375,0,0.5099792,97.19717
1580905888.652982,152,0,1580904337.000819,41.20701635159924,29.07533761282497,172.748,-1,-1,5.74967098236084,48.00724964208526,-9999,9604.429593041667,0.97412109375,0.0921630859375,-0.0741424560546875,9604.424557041668,0.8378107792592416,1.502536291662412,-0.09159351552577484,-0.01707308366894722,0.0244060754776001,-0.02552089467644691,-0.02134746313095093,-0.00386635959148407,-0.00768512487411499,2,0.3079147127170503,-0.6092847959992499,-0.2684122796845302,-0.6796436243736814,0.9934892058372498,0.09146550297737122,-0.06792113184928894,18.93574523925781,1.357852935791016,19.68942260742188,2,9604.080899041668,1,2,1580905888.322065,1580903939.50652,1577,0.4102195,0,0,2131.439,1,0,1580905796.492468,9601.394375,0,0.5099792,97.19717
1580905888.663245,153,0,1580904337.000819,41.20701635159924,29.07533761282497,172.748,-1,-1,5.74967098236084,48.00724964208526,-9999,9604.439633041668,0.9752655029296875,0.0898590087890625,-0.071929931640625,9604.434598041667,0.8379273385812237,1.502764643632811,-0.09185045707163435,-0.01409165188670158,0.02203296311199665,-0.02585718035697937,-0.02103424072265625,0.0002871602773666382,-0.008020937442779541,2,0.3080649184223079,-0.6093026130947147,-0.2683349404317753,-0.6795900762851766,0.9934811592102051,0.09172136336565018,-0.06769265979528427,18.93574523925781,1.357852935791016,19.68942260742188,2,9604.080899041668,1,2,1580905888.322065,1580903939.50652,1577,0.4102195,0,0,2131.439,1,0,1580905796.492468,9601.394375,0,0.5099792,97.19717
1580905888.672988,154,0,1580904337.000819,41.20701635159924,29.07533761282497,172.748,-1,-1,5.74967098236084,48.00724964208526,-9999,9604.449673041667,0.9758148193359375,0.08917236328125,-0.0727996826171875,9604.444638041667,0.8379818060949529,1.502931619447192,-0.09206872567517477,-0.005865946412086487,0.01612021215260029,-0.02124644815921783,-0.01988101005554199,-0.002234652638435364,-0.005975842475891113,2,0.3081753236197893,-0.6093154079699039,-0.2682582355845983,-0.6795587264881584,0.9934723377227783,0.09193871170282364,-0.06752540916204453,18.9881591796875,1.30328369140625,19.7310791015625,2,9604.080899041668,1,2,1580905888.322065,1580903939.50652,1577,0.4102195,0,0,2131.439,1,0,1580905796.492468,9601.394375,0,0.5099792,97.19717
1580905888.682948,155,0,1580904337.000819,41.20701635159924,29.07533761282497,172.748,-1,-1,5.74967098236084,48.00724964208526,-9999,9604.459714041668,0.9730987548828125,0.089691162109375,-0.0735931396484375,9604.454678041668,0.8380084091317042,1.50308274331823,-0.09227020179321122,-0.004677400924265385,0.01546318084001541,-0.02037566900253296,-0.01932328939437866,-0.003122240304946899,-0.006996989250183105,2,0.3082695243391962,-0.6093298668974211,-0.2681798569316817,-0.6795341240481457,0.9934642314910889,0.09213932603597641,-0.06737402826547623,18.9881591796875,1.30328369140625,19.7310791015625,2,9604.080899041668,1,2,1580905888.322065,1580903939.50652,1577,0.4102195,0,0,2131.439,1,0,1580905796.492468,9601.394375,0,0.5099792,97.19717
1580905888.714529,156,0,1580904337.000819,41.20701635159924,29.07533761282497,172.748,-1,-1,5.74967098236084,48.00724964208526,-9999,9604.469754041667,0.978790283203125,0.089569091796875,-0.07513427734375,9604.464719041667,0.8379737492533784,1.503193402606799,-0.09245856442424712,0.003969617187976837,0.01196059212088585,-0.0193554125726223,-0.0220295786857605,-0.002791315317153931,-0.007902085781097412,2,0.3083354325330515,-0.609342111508879,-0.2680910363820617,-0.6795281391770526,0.9934541583061218,0.09232688695192337,-0.06726290285587311,19.02883911132812,1.281787872314453,19.66513061523438,2,9604.080899041668,1,2,1580905888.322065,1580903939.50652,1577,0.4102195,0,0,2131.439,1,0,1580905796.492468,9601.394375,0,0.5099792,97.19717
1580905888.716015,157,0,1580904337.000819,41.20701635159924,29.07533761282497,172.748,-1,-1,5.74967098236084,48.00724964208526,-9999,9604.479794041667,0.9785003662109375,0.089813232421875,-0.070220947265625,9604.474759041666,0.837964976221023,1.503265883823215,-0.09263198691232123,-0.001437908504158258,0.008104631677269936,-0.01796277239918709,-0.01632696390151978,-0.003086388111114502,-0.009516417980194092,2,0.3083991472764506,-0.609339851930184,-0.268021664922286,-0.6795286828077913,0.9934431314468384,0.09249956905841827,-0.06718982011079788,19.05091094970703,1.014144897460938,19.71029663085938,2,9604.080899041668,1,2,1580905888.322065,1580903939.50652,1577,0.4102195,0,0,2131.439,1,0,1580905796.492468,9601.394375,0,0.5099792,97.19717
1580905888.717151,158,0,1580904337.000819,41.20701635159924,29.07533761282497,172.748,-1,-1,5.74967098236084,48.00724964208526,-9999,9604.489865041667,0.976715087890625,0.090301513671875,-0.0699005126953125,9604.484799041667,0.837954085766631,1.503280239493915,-0.09278554983443335,0.0002223057672381401,0.002302402630448341,-0.01596327126026154,-0.01660358905792236,-0.002995386719703674,-0.004618346691131592,2,0.3084479735755647,-0.6093213847982981,-0.2679668448041351,-0.6795446342813355,0.9934298396110535,0.09265246987342834,-0.06717459857463837,19.05091094970703,1.014144897460938,19.71029663085938,2,9604.080899041668,1,2,1580905888.322065,1580903939.50652,1577,0.4102195,0,0,2131.439,1,0,1580905796.492468,9601.394375,0,0.5099792,97.19717
1580905888.723305,159,0,1580904337.000819,41.20701635159924,29.07533761282497,172.748,-1,-1,5.74967098236084,48.00724964208526,-9999,9604.499905041666,0.978179931640625,0.0910186767578125,-0.0680084228515625,9604.494839041667,0.8379152621175621,1.503223521279354,-0.09290423665060348,0.00345627311617136,-0.00364222563803196,-0.01253696158528328,-0.01837390661239624,-0.0026254802942276,-0.004241943359375,2,0.3084673023445947,-0.6092887811864875,-0.2679246171185329,-0.6795818748997985,0.9934151768684387,0.09277065098285675,-0.06723020970821381,18.92579650878906,1.320960998535156,19.70343017578125,2,9604.080899041668,1,2,1580905888.322065,1580903939.50652,1577,0.4102195,0,0,2131.439,1,0,1580905796.492468,9601.394375,0,0.5099792,97.19717
1580905888.733188,160,0,1580904337.000819,41.20701635159924,29.07533761282497,172.748,-1,-1,5.74967098236084,48.00724964208526,-9999,9604.509946041668,0.97808837890625,0.0916290283203125,-0.06951904296875,9604.504880041668,0.8378575833127652,1.503076769832042,-0.09299013435774478,0.004380123689770699,-0.01348020974546671,-0.008262588642537594,-0.01689136028289795,-0.001994028687477112,-0.002204537391662598,2,0.3084581623225,-0.6092338108660766,-0.2679002956705677,-0.6796448640208691,0.9933973550796509,0.09285617619752884,-0.06737545132637024,18.92579650878906,1.320960998535156,19.70343017578125,2,9604.080899041668,1,2,1580905888.322065,1580903939.50652,1577,0.4102195,0,0,2131.439,1,0,1580905796.492468,9601.394375,0,0.5099792,97.19717
1580905888.743336,161,0,1580904337.000819,41.20701635159924,29.07533761282497,172.748,-1,-1,5.74967098236084,48.00724964208526,-9999,9604.519986041667,0.9781494140625,0.09130859375,-0.0697174072265625,9604.514920041667,0.8377578813731227,1.502842828633918,-0.09308238796016582,0.01139823906123638,-0.02158165536820889,-0.009341126307845116,-0.01695841550827026,-0.001475632190704346,-0.00348275899887085,2,0.3084265930328892,-0.6091546610076332,-0.2678731229379775,-0.6797409210835186,0.9933730959892273,0.09294802695512772,-0.06760726869106293,18.88187408447266,1.463218688964844,19.77301025390625,2,9604.080899041668,1,2,1580905888.322065,1580903939.50652,1577,0.4102195,0,0,2131.439,1,0,1580905796.492468,9601.394375,0,0.5099792,97.19717
