loggingTime,loggingSample,identifierForVendor,locationTimestamp_since1970,locationLatitude,locationLongitude,locationAltitude,locationSpeed,locationCourse,locationVerticalAccuracy,locationHorizontalAccuracy,locationFloor,accelerometerTimestamp_sinceReboot,accelerometerAccelerationX,accelerometerAccelerationY,accelerometerAccelerationZ,motionTimestamp_sinceReboot,motionYaw,motionRoll,motionPitch,motionRotationRateX,motionRotationRateY,motionRotationRateZ,motionUserAccelerationX,motionUserAccelerationY,motionUserAccelerationZ,motionAttitudeReferenceFrame,motionQuaternionX,motionQuaternionY,motionQuaternionZ,motionQuaternionW,motionGravityX,motionGravityY,motionGravityZ,motionMagneticFieldX,motionMagneticFieldY,motionMagneticFieldZ,motionMagneticFieldCalibrationAccuracy,activityTimestamp_sinceReboot,activity,activityActivityConfidence,activityActivityStartDate,pedometerStartDate,pedometerNumberofSteps,pedometerAverageActivePace,pedometerCurrentPace,pedometerCurrentCadence,pedometerDistance,pedometerFloorAscended,pedometerFloorDescended,pedometerEndDate,altimeterTimestamp_sinceReboot,altimeterReset,altimeterRelativeAltitude,altimeterPressure
1580907428.318629,1,0,1580907286.99823,41.20781296037784,29.0754925099451,275.2123,0.1345286,-1,23.46983528137207,200,-9999,11144.07296754167,0.97607421875,0.0865325927734375,-0.157440185546875,11144.06790154167,1.516769558376925,1.41102771208355,-0.08675811168101868,0.00145846139639616,-0.01565906777977943,-0.001423698849976063,-0.02140265703201294,-0.001696974039077759,-0.005283355712890625,2,-0.4695005450872065,0.4475751658187184,0.5026634504575163,0.5714675680487905,0.9835509061813354,0.08664931356906891,-0.1584914177656174,63.22103118896484,-0.8619976043701172,14.58721923828125,2,11143.58941654167,2,0,1580907427.830583,1580903939.50652,2377,0.4626901,0,0,2938.329,10,11,1580907321.19788,11141.162012,0,13.96994,97.04093
1580907428.320189,2,0,1580907286.99823,41.20781296037784,29.0754925099451,275.2123,0.1345286,-1,23.46983528137207,200,-9999,11144.08300854167,0.9620513916015625,0.084625244140625,-0.166839599609375,11144.07794254167,1.516796222578542,1.410850106314191,-0.08676574719343902,-0.003722606226801872,-0.01750893890857697,-0.0005263714119791985,-0.01176071166992188,-0.0003771185874938965,-0.001034140586853027,2,-0.4694639032765288,0.4475160841023285,0.5027108810963824,0.5715022262122081,0.9835221171379089,0.08665692061185837,-0.1586659997701645,63.26200103759766,-0.8855991363525391,14.5029296875,2,11143.58941654167,2,0,1580907427.830583,1580903939.50652,2377,0.4626901,0,0,2938.329,10,11,1580907321.19788,11141.162012,0,13.96994,97.04093
1580907428.322235,3,0,1580907286.99823,41.20781296037784,29.0754925099451,275.2123,0.1345286,-1,23.46983528137207,200,-9999,11144.09304854167,0.968780517578125,0.0868377685546875,-0.1636962890625,11144.08801354167,1.51680535224978,1.410709156660043,-0.08677298534513894,-0.0009047156199812889,-0.01243188977241516,-0.0006177178584039211,-0.0193825364112854,-0.001727133989334106,-0.007609248161315918,2,-0.4694324632521579,0.4474716822834405,0.5027447748811303,0.5715329414629788,0.9834990501403809,0.08666413277387619,-0.1588045060634613,63.26200103759766,-0.8855991363525391,14.5029296875,2,11143.58941654167,2,0,1580907427.830583,1580903939.50652,2377,0.4626901,0,0,2938.329,10,11,1580907321.19788,11141.162012,0,13.96994,97.04093
1580907428.323985,4,0,1580907286.99823,41.20781296037784,29.0754925099451,275.2123,0.1345286,-1,23.46983528137207,200,-9999,11144.10308854167,0.97735595703125,0.0876922607421875,-0.1596527099609375,11144.09805354167,1.516804660881717,1.41040453904347,-0.08681582376113148,-0.0003705574199557304,-0.03008988872170448,-0.005667424760758877,-0.02248883247375488,-0.001037508249282837,-0.009400010108947754,2,-0.4693671427795215,0.4473731476280292,0.5028055166295233,0.5716102963156688,0.9834469556808472,0.08670680969953537,-0.1591034978628159,63.15099334716797,-0.7901554107666016,14.63082885742188,2,11143.58941654167,2,0,1580907427.830583,1580903939.50652,2377,0.4626901,0,0,2938.329,10,11,1580907321.19788,11141.162012,0,13.96994,97.04093
1580907428.325743,5,0,1580907286.99823,41.20781296037784,29.0754925099451,275.2123,0.1345286,-1,23.46983528137207,200,-9999,11144.11312954167,0.975921630859375,0.086181640625,-0.1595611572265625,11144.10809354167,1.516800952177638,1.409903223058094,-0.08686793736571222,3.584101796150208e-05,-0.04813866317272186,-0.005100703798234463,-0.008808791637420654,0.0009855926036834717,-0.002604484558105469,2,-0.4692541387324299,0.447216569500283,0.5029092673456257,0.5717343731753816,0.9833626747131348,0.08675872534513474,-0.159595787525177,63.15099334716797,-0.7901554107666016,14.63082885742188,2,11143.58941654167,2,0,1580907427.830583,1580903939.50652,2377,0.4626901,0,0,2938.329,10,11,1580907321.19788,11141.162012,0,13.96994,97.04093
1580907428.332249,6,0,1580907286.99823,41.20781296037784,29.0754925099451,275.2123,0.1345286,-1,23.46983528137207,200,-9999,11144.12316954167,0.9812469482421875,0.0887603759765625,-0.1604461669921875,11144.11813354167,1.516790248525687,1.409156590409643,-0.08693844036318452,-0.0005806004628539085,-0.07434801757335663,-0.007118363864719868,-0.01075828075408936,-0.0005954504013061523,-0.001426935195922852,2,-0.4690827741597758,0.4469864306617366,0.5030639829768581,0.571918797597499,0.9832372069358826,0.08682896196842194,-0.1603289693593979,62.93579864501953,-0.7881641387939453,14.63409423828125,2,11143.58941654167,2,0,1580907427.830583,1580903939.50652,2377,0.4626901,0,0,2938.329,10,11,1580907321.19788,11141.162012,0,13.96994,97.04093
1580907428.350884,7,0,1580907286.99823,41.20781296037784,29.0754925099451,275.2123,0.1345286,-1,23.46983528137207,200,-9999,11144.13324054167,0.9737548828125,0.0886077880859375,-0.16168212890625,11144.12817454167,1.516744071242314,1.408217368750177,-0.08702220365815982,0.002639694139361382,-0.09334088861942291,-0.009654225781559944,-0.005243897438049316,0.0007704496383666992,-0.001143097877502441,2,-0.4688584929532783,0.4467058474364538,0.5032503959866331,0.5721579196869959,0.9830790162086487,0.08691240847110748,-0.1612512022256851,62.93579864501953,-0.7881641387939453,14.63409423828125,2,11143.58941654167,2,0,1580907427.830583,1580903939.50652,2377,0.4626901,0,0,2938.329,10,11,1580907321.19788,11141.162012,0,13.96994,97.04093
1580907428.352043,8,0,1580907286.99823,41.20781296037784,29.0754925099451,275.2123,0.1345286,-1,23.46983528137207,200,-9999,11144.14328054167,0.9686279296875,0.088653564453125,-0.1639251708984375,11144.13821454167,1.516673264329877,1.407149488210895,-0.0870942198395325,0.005522276274859905,-0.1068506836891174,-0.007986369542777538,-0.008848607540130615,0.001705586910247803,-0.0013885498046875,2,-0.4685931698722215,0.4463972466796992,0.5034626536648491,0.5724292130437503,0.9828999638557434,0.08698415756225586,-0.1622998714447021,63.08089447021484,-0.7943019866943359,14.31527709960938,2,11143.58941654167,2,0,1580907427.830583,1580903939.50652,2377,0.4626901,0,0,2938.329,10,11,1580907321.19788,11141.162012,0,13.96994,97.04093
1580907428.361013,9,0,1580907286.99823,41.20781296037784,29.0754925099451,275.2123,0.1345286,-1,23.46983528137207,200,-9999,11144.15332054167,0.9635009765625,0.088134765625,-0.1685028076171875,11144.14825454167,1.516586799751801,1.406035177698591,-0.08716308485092855,0.007867989130318165,-0.1107514202594757,-0.008711814880371094,-0.01610672473907471,0.00119432806968689,-0.001969635486602783,2,-0.4683116965035128,0.4460797361994772,0.5036819581999983,0.5727140620300976,0.9827125668525696,0.08705275505781174,-0.1633940488100052,63.08089447021484,-0.7943019866943359,14.31527709960938,2,11143.58941654167,2,0,1580907427.830583,1580903939.50652,2377,0.4626901,0,0,2938.329,10,11,1580907321.19788,11141.162012,0,13.96994,97.04093
1580907428.371398,10,0,1580907286.99823,41.20781296037784,29.0754925099451,275.2123,0.1345286,-1,23.46983528137207,200,-9999,11144.16336054167,0.9550628662109375,0.0863037109375,-0.17376708984375,11144.15829554167,1.51649671177532,1.404984229105939,-0.08723331253526251,0.007791424170136452,-0.1045409888029099,-0.009145272895693779,-0.01984941959381104,0.00100216269493103,-0.004826128482818604,2,-0.4680456392026852,0.4457806808921167,0.5038849062241469,0.5729858234239146,0.9825342893600464,0.08712271600961685,-0.1644257307052612,63.16815948486328,-0.7226390838623047,14.09774780273438,2,11143.58941654167,2,0,1580907427.830583,1580903939.50652,2377,0.4626901,0,0,2938.329,10,11,1580907321.19788,11141.162012,0,13.96994,97.04093
1580907428.381072,11,0,1580907286.99823,41.20781296037784,29.0754925099451,275.2123,0.1345286,-1,23.46983528137207,200,-9999,11144.17340154167,0.9503173828125,0.0853729248046875,-0.176300048828125,11144.16836554167,1.516392339894255,1.40411875301877,-0.08727675316199615,0.009799180552363396,-0.08404103666543961,-0.004184070508927107,-0.02711844444274902,-0.0006586909294128418,-0.009299397468566895,2,-0.4678158776702289,0.4455452823388772,0.5040468365081782,0.573214163856142,0.9823879599571228,0.08716599643230438,-0.1652754098176956,63.16815948486328,-0.7226390838623047,14.09774780273438,2,11143.58941654167,2,0,1580907427.830583,1580903939.50652,2377,0.4626901,0,0,2938.329,10,11,1580907321.19788,11141.162012,0,13.96994,97.04093
1580907428.392401,12,0,1580907286.99823,41.20781296037784,29.0754925099451,275.2123,0.1345286,-1,23.46983528137207,200,-9999,11144.18344154167,0.95330810546875,0.087127685546875,-0.173583984375,11144.17840654167,1.516288435476162,1.403441350322729,-0.08732285998684051,0.009894554503262043,-0.06727080047130585,-0.005264212377369404,-0.03447890281677246,-0.001986563205718994,-0.01250851154327393,2,-0.4676342954740507,0.445362853744054,0.5041641638034706,0.5734009589025282,0.9822719097137451,0.08721192181110382,-0.1659401953220367,63.12113189697266,-0.8133335113525391,14.04776000976562,2,11143.58941654167,2,0,1580907427.830583,1580903939.50652,2377,0.4626901,0,0,2938.329,10,11,1580907321.19788,11141.162012,0,13.96994,97.04093
1580907428.415526,13,0,1580907286.99823,41.20781296037784,29.0754925099451,275.2123,0.1345286,-1,23.46983528137207,200,-9999,11144.19348154167,0.954986572265625,0.0843353271484375,-0.1792144775390625,11144.18844654167,1.516219078669654,1.402922927868749,-0.08736549058492669,0.005216977559030056,-0.05266575515270233,-0.00552387023344636,-0.0321459174156189,-0.001372963190078735,-0.01044237613677979,2,-0.4674995719434878,0.4452187851216868,0.5042549918965349,0.5735427532180122,0.9821820259094238,0.08725439012050629,-0.1664487719535828,63.12113189697266,-0.8133335113525391,14.04776000976562,2,11143.58941654167,2,0,1580907427.830583,1580903939.50652,2377,0.4626901,0,0,2938.329,10,11,1580907321.19788,11141.162012,0,13.96994,97.04093
1580907428.41696,14,0,1580907286.99823,41.20781296037784,29.0754925099451,275.2123,0.1345286,-1,23.46983528137207,200,-9999,11144.20352254167,0.955902099609375,0.0838470458984375,-0.177276611328125,11144.19848654167,1.516177606599359,1.402546923523673,-0.08738549988280167,0.003411741927266121,-0.03804609924554825,-0.002815324813127518,-0.03102850914001465,-0.001469254493713379,-0.01242220401763916,2,-0.4674009127642328,0.4451151654576994,0.5043260430402017,0.5736410135078124,0.9821175336837769,0.08727432787418365,-0.1668177545070648,63.17157745361328,-0.9898319244384766,14.19723510742188,2,11143.58941654167,2,0,1580907427.830583,1580903939.50652,2377,0.4626901,0,0,2938.329,10,11,1580907321.19788,11141.162012,0,13.96994,97.04093
1580907428.421593,15,0,1580907286.99823,41.20781296037784,29.0754925099451,275.2123,0.1345286,-1,23.46983528137207,200,-9999,11144.21359254167,0.957183837890625,0.0843658447265625,-0.1752777099609375,11144.20852654167,1.516153018928244,1.402308993251013,-0.08738585884627152,0.002442616969347,-0.02233904227614403,0.001121892593801022,-0.02880656719207764,-0.003849983215332031,-0.01400351524353027,2,-0.4673354803947257,0.4450526088944873,0.5043745496419881,0.5737003981993108,0.982077956199646,0.08727468550205231,-0.1670514494180679,63.17157745361328,-0.9898319244384766,14.19723510742188,2,11143.58941654167,2,0,1580907427.830583,1580903939.50652,2377,0.4626901,0,0,2938.329,10,11,1580907321.19788,11141.162012,0,13.96994,97.04093
1580907428.431308,16,0,1580907286.99823,41.20781296037784,29.0754925099451,275.2123,0.1345286,-1,23.46983528137207,200,-9999,11144.22363354167,0.958343505859375,0.08465576171875,-0.1753997802734375,11144.21856754167,1.516135491827855,1.402152803633846,-0.08741230846905829,0.0007149241864681244,-0.01569220796227455,-0.004066807217895985,-0.02812182903289795,-0.003006666898727417,-0.01063048839569092,2,-0.4672992886994279,0.4450046702537006,0.5043995050033021,0.5737450457014566,0.9820495247840881,0.08730103075504303,-0.1672044396400452,63.07393646240234,-0.9943752288818359,14.07070922851562,2,11143.58941654167,2,0,1580907427.830583,1580903939.50652,2377,0.4626901,0,0,2938.329,10,11,1580907321.19788,11141.162012,0,13.96994,97.04093
1580907428.441178,17,0,1580907286.99823,41.20781296037784,29.0754925099451,275.2123,0.1345286,-1,23.46983528137207,200,-9999,11144.23367354167,0.956878662109375,0.0848846435546875,-0.1768035888671875,11144.22860754167,1.516147935832975,1.402099614606632,-0.08741507553763282,-0.001549828797578812,-0.00596927385777235,-0.0001679398119449615,-0.02657157182693481,-0.003055155277252197,-0.01041024923324585,2,-0.4672893711003104,0.4449857587166453,0.5044148331667778,0.5737543552854225,0.9820404052734375,0.08730378746986389,-0.1672566384077072,63.07393646240234,-0.9943752288818359,14.07070922851562,2,11143.58941654167,2,0,1580907427.830583,1580903939.50652,2377,0.4626901,0,0,2938.329,10,11,1580907321.19788,11141.162012,0,13.96994,97.04093
1580907428.452463,18,0,1580907286.99823,41.20781296037784,29.0754925099451,275.2123,0.1345286,-1,23.46983528137207,200,-9999,11144.24371354167,0.9586944580078125,0.08642578125,-0.17584228515625,11144.23864754167,1.516178008848054,1.402150916507155,-0.08740082405700426,-0.002258192747831345,0.005672238767147064,0.00156309362500906,-0.02734434604644775,-0.003056198358535767,-0.01136088371276855,2,-0.4673052120946117,0.4449973177128738,0.5044149523022463,0.5737323058156818,0.9820501208305359,0.08728959411382675,-0.1672064512968063,63.00627899169922,-0.9453029632568359,14.05361938476562,2,11144.23239154167,1,2,1580907428.473558,1580903939.50652,2377,0.4626901,0,0,2938.329,10,11,1580907321.19788,11141.162012,0,13.96994,97.04093
1580907428.474545,19,0,1580907286.99823,41.20781296037784,29.0754925099451,275.2123,0.1345286,-1,23.46983528137207,200,-9999,11144.25375454167,0.9583282470703125,0.0863494873046875,-0.175384521484375,11144.24871854167,1.516215945815536,1.402285063701587,-0.08736294504959533,-0.002963664010167122,0.01351897791028023,0.004615343175828457,-0.02712595462799072,-0.001461952924728394,-0.01150768995285034,2,-0.4673373711214496,0.4450372493869458,0.5044037731391768,0.5736849076681712,0.9820757508277893,0.08725185692310333,-0.1670752614736557,63.00627899169922,-0.9453029632568359,14.05361938476562,2,11144.23239154167,1,2,1580907428.473558,1580903939.50652,2377,0.4626901,0,0,2938.329,10,11,1580907321.19788,11141.162012,0,13.96994,97.04093
1580907428.476,20,0,1580907286.99823,41.20781296037784,29.0754925099451,275.2123,0.1345286,-1,23.46983528137207,200,-9999,11144.26379454167,0.9573974609375,0.087432861328125,-0.175048828125,11144.25875854167,1.516265472007986,1.402485043460378,-0.08729953589252605,-0.004902331624180079,0.01945888064801693,0.007195965386927128,-0.02560842037200928,-0.001215517520904541,-0.0105288028717041,2,-0.4673818531802814,0.4451003341103802,0.5043868237460896,0.5736146729178014,0.9821146726608276,0.08718869090080261,-0.1668797880411148,63.12230682373047,-1.056528091430664,14.00033569335938,2,11144.23239154167,1,2,1580907428.473558,1580903939.50652,2377,0.4626901,0,0,2938.329,10,11,1580907321.19788,11141.162012,0,13.96994,97.04093
1580907428.481473,21,0,1580907286.99823,41.20781296037784,29.0754925099451,275.2123,0.1345286,-1,23.46983528137207,200,-9999,11144.27383454167,0.9641571044921875,0.0873565673828125,-0.1725311279296875,11144.26879954167,1.516297408359808,1.402737737585845,-0.08722227245229487,-0.002975001931190491,0.02712106145918369,0.008376011624932289,-0.02748847007751465,-0.0001770257949829102,-0.01092910766601562,2,-0.4674320050579225,0.4451864177102005,0.5043559098204102,0.573534242796874,0.9821634888648987,0.08711171895265579,-0.166632741689682,63.12230682373047,-1.056528091430664,14.00033569335938,2,11144.23239154167,1,2,1580907428.473558,1580903939.50652,2377,0.4626901,0,0,2938.329,10,11,1580907321.19788,11141.162012,0,13.96994,97.04093
1580907428.491694,22,0,1580907286.99823,41.20781296037784,29.0754925099451,275.2123,0.1345286,-1,23.46983528137207,200,-9999,11144.28387454167,0.9756317138671875,0.0897216796875,-0.166656494140625,11144.27883954167,1.516284420098784,1.402872502022035,-0.08715941654960033,0.003156776539981365,0.01444598473608494,0.005200726911425591,-0.02388489246368408,-8.371472358703613e-05,-0.009016215801239014,2,-0.4674462800233358,0.4452452386396685,0.5043361266123035,0.5734943720274854,0.9821913838386536,0.08704910427331924,-0.1665012985467911,63.11597442626953,-1.139471054077148,14.08135986328125,2,11144.23239154167,1,2,1580907428.473558,1580903939.50652,2377,0.4626901,0,0,2938.329,10,11,1580907321.19788,11141.162012,0,13.96994,97.04093
1580907428.5015,23,0,1580907286.99823,41.20781296037784,29.0754925099451,275.2123,0.1345286,-1,23.46983528137207,200,-9999,11144.29397004167,0.9751129150390625,0.08807373046875,-0.16571044921875,11144.28887954167,1.516269090169693,1.402789974309181,-0.08709792996877085,0.003368497826159,-0.008933638222515583,0.006121382117271423,-0.01186776161193848,0.002159684896469116,-0.00444793701171875,2,-0.4674056192944723,0.445241911777689,0.5043661078015199,0.5735037066449729,0.9821828603744507,0.08698785305023193,-0.1665832549333572,63.11597442626953,-1.139471054077148,14.08135986328125,2,11144.23239154167,1,2,1580907428.473558,1580903939.50652,2377,0.4626901,0,0,2938.329,10,11,1580907321.19788,11141.162012,0,13.96994,97.04093
1580907428.512848,24,0,1580907286.99823,41.20781296037784,29.0754925099451,275.2123,0.1345286,-1,23.46983528137207,200,-9999,11144.30401004167,0.971527099609375,0.088165283203125,-0.169830322265625,11144.29894504167,1.516239458629319,1.402541815547534,-0.08707214454762319,0.004458566196262836,-0.02516370266675949,0.0007620155811309814,-0.008364677429199219,0.001376748085021973,-0.0002053976058959961,2,-0.4673295468306802,0.4451846977380131,0.5044219265616824,0.5735610041600544,0.9821437001228333,0.08696216344833374,-0.1668273657560349,62.99318695068359,-0.9418010711669922,14.12384033203125,2,11144.23239154167,1,2,1580907428.473558,1580903939.50652,2377,0.4626901,0,0,2938.329,10,11,1580907321.19788,11141.162012,0,13.96994,97.04093
1580907428.534595,25,0,1580907286.99823,41.20781296037784,29.0754925099451,275.2123,0.1345286,-1,23.46983528137207,200,-9999,11144.31405104167,0.9654388427734375,0.086761474609375,-0.1717987060546875,11144.30898504167,1.516196895228878,1.402189983857009,-0.08706774387716337,0.003633252345025539,-0.03514070436358452,-0.0007218979299068451,-0.01227343082427979,0.001228541135787964,-0.004070281982421875,2,-0.4672301373143118,0.4450949484253113,0.5044930153121958,0.5736491730116111,0.9820854067802429,0.08695777505636215,-0.1671729683876038,62.99318695068359,-0.9418010711669922,14.12384033203125,2,11144.23239154167,1,2,1580907428.473558,1580903939.50652,2377,0.4626901,0,0,2938.329,10,11,1580907321.19788,11141.162012,0,13.96994,97.04093
1580907428.535902,26,0,1580907286.99823,41.20781296037784,29.0754925099451,275.2123,0.1345286,-1,23.46983528137207,200,-9999,11144.32409104167,0.96551513671875,0.0864410400390625,-0.1716461181640625,11144.31902504167,1.516134734549416,1.401809594536873,-0.08707775586959186,0.004920896142721176,-0.0356091633439064,-0.001247443724423647,-0.01751875877380371,-0.0001547932624816895,-0.005969405174255371,2,-0.467123052495522,0.4449976036745481,0.5045615597533185,0.5737515197358924,0.9820207953453064,0.08696775138378143,-0.1675463765859604,63.15129852294922,-0.9685955047607422,14.09024047851562,2,11144.23239154167,1,2,1580907428.473558,1580903939.50652,2377,0.4626901,0,0,2938.329,10,11,1580907321.19788,11141.162012,0,13.96994,97.04093
1580907428.541946,27,0,1580907286.99823,41.20781296037784,29.0754925099451,275.2123,0.1345286,-1,23.46983528137207,200,-9999,11144.33413104167,0.9630584716796875,0.085174560546875,-0.1722259521484375,11144.32909604167,1.516085380122977,1.401386016963348,-0.08709818661911313,0.003814885392785072,-0.04221273958683014,-0.002621102146804333,-0.02000916004180908,-0.0005871951580047607,-0.006376564502716064,2,-0.4670106941505036,0.4448820152859569,0.5046412876566831,0.5738624175921379,0.9819478988647461,0.08698810636997223,-0.1679620146751404,63.15129852294922,-0.9685955047607422,14.09024047851562,2,11144.23239154167,1,2,1580907428.473558,1580903939.50652,2377,0.4626901,0,0,2938.329,10,11,1580907321.19788,11141.162012,0,13.96994,97.04093
1580907428.551663,28,0,1580907286.99823,41.20781296037784,29.0754925099451,275.2123,0.1345286,-1,23.46983528137207,200,-9999,11144.34417204167,0.9548797607421875,0.084808349609375,-0.176727294921875,11144.33913604167,1.516036598961606,1.401050953958971,-0.08712745543921996,0.005484519526362419,-0.0315462239086628,-0.003713512793183327,-0.01962965726852417,-0.001730293035507202,-0.00539100170135498,2,-0.4669231395493345,0.4447892678923051,0.5046983339466335,0.5739553507160388,0.981889009475708,0.08701726049184799,-0.1682905852794647,63.14852142333984,-0.8936634063720703,14.06393432617188,2,11144.23239154167,1,2,1580907428.473558,1580903939.50652,2377,0.4626901,0,0,2938.329,10,11,1580907321.19788,11141.162012,0,13.96994,97.04093
1580907428.561759,29,0,1580907286.99823,41.20781296037784,29.0754925099451,275.2123,0.1345286,-1,23.46983528137207,200,-9999,11144.35421204167,0.955596923828125,0.0826263427734375,-0.17974853515625,11144.34917604167,1.516005231285245,1.400844930939599,-0.08715695266210036,0.00254332460463047,-0.01991220563650131,-0.003084474243223667,-0.02816760540008545,-0.002019137144088745,-0.008972525596618652,2,-0.4668720284997485,0.4447294483935027,0.5047302258992437,0.5740153684423571,0.9818519353866577,0.08704664558172226,-0.1684924513101578,63.14852142333984,-0.8936634063720703,14.06393432617188,2,11144.23239154167,1,2,1580907428.473558,1580903939.50652,2377,0.4626901,0,0,2938.329,10,11,1580907321.19788,11141.162012,0,13.96994,97.04093
1580907428.572354,30,0,1580907286.99823,41.20781296037784,29.0754925099451,275.2123,0.1345286,-1,23.46983528137207,200,-9999,11144.36425204167,0.9610595703125,0.084747314453125,-0.1757965087890625,11144.35921704167,1.515973310686658,1.40072451012676,-0.08717177463500489,0.003562233410775661,-0.01072678621858358,-0.001217914745211601,-0.02958041429519653,-0.004215985536575317,-0.0130656361579895,2,-0.4668385022931383,0.4446982983208498,0.5047455434395131,0.5740533188469569,0.981830358505249,0.08706141263246536,-0.168610468506813,63.01947784423828,-0.7880840301513672,13.91607666015625,2,11144.23239154167,1,2,1580907428.473558,1580903939.50652,2377,0.4626901,0,0,2938.329,10,11,1580907321.19788,11141.162012,0,13.96994,97.04093
1580907428.593293,31,0,1580907286.99823,41.20781296037784,29.0754925099451,275.2123,0.1345286,-1,23.46983528137207,200,-9999,11144.37432304167,0.9649658203125,0.0872344970703125,-0.1729278564453125,11144.36925704167,1.515959132150065,1.400577027763256,-0.08718978123726062,0.0005754986777901649,-0.01384854409843683,-0.001530037261545658,-0.02557134628295898,-0.003333628177642822,-0.01078450679779053,2,-0.4668029462626179,0.4446543654112254,0.5047714840753885,0.5740934639278038,0.9818039536476135,0.08707935363054276,-0.1687550097703934,63.01947784423828,-0.7880840301513672,13.91607666015625,2,11144.23239154167,1,2,1580907428.473558,1580903939.50652,2377,0.4626901,0,0,2938.329,10,11,1580907321.19788,11141.162012,0,13.96994,97.04093
1580907428.594573,32,0,1580907286.99823,41.20781296037784,29.0754925099451,275.2123,0.1345286,-1,23.46983528137207,200,-9999,11144.38436304167,0.9653167724609375,0.08929443359375,-0.1710662841796875,11144.37929704167,1.515935577534743,1.4003391427995,-0.08719342793073295,0.003134088590741158,-0.02413855865597725,-0.001315579749643803,-0.01999181509017944,-0.0007127821445465088,-0.006857693195343018,2,-0.4667386273882403,0.4445905931364763,0.5048193613083426,0.5741531050323214,0.9817635416984558,0.08708298206329346,-0.168988510966301,63.00217437744141,-0.6923084259033203,13.9161376953125,2,11144.23239154167,1,2,1580907428.473558,1580903939.50652,2377,0.4626901,0,0,2938.329,10,11,1580907321.19788,11141.162012,0,13.96994,97.04093
1580907428.601939,33,0,1580907286.99823,41.20781296037784,29.0754925099451,275.2123,0.1345286,-1,23.46983528137207,200,-9999,11144.39440404167,0.9609832763671875,0.08740234375,-0.17401123046875,11144.38933804167,1.515917312025267,1.40005612981556,-0.08715770200440109,0.002606782130897045,-0.02868084609508514,0.003638166002929211,-0.01889395713806152,0.00141337513923645,-0.004121899604797363,2,-0.4666535912843041,0.4445233280456065,0.5048888917415241,0.5742130634090402,0.9817186594009399,0.08704739809036255,-0.1692668795585632,63.00217437744141,-0.6923084259033203,13.9161376953125,2,11144.23239154167,1,2,1580907428.473558,1580903939.50652,2377,0.4626901,0,0,2938.329,10,11,1580907321.19788,11141.162012,0,13.96994,97.04093
1580907428.612125,34,0,1580907286.99823,41.20781296037784,29.0754925099451,275.2123,0.1345286,-1,23.46983528137207,200,-9999,11144.40444404167,0.9569244384765625,0.0842437744140625,-0.1777496337890625,11144.39937804167,1.515891661393427,1.399811180474531,-0.08710726686469886,0.003914691507816315,-0.02471374906599522,0.004273632541298866,-0.02154231071472168,0.001158595085144043,-0.005711078643798828,2,-0.4665725296148388,0.444472752897398,0.5049510498930668,0.57426346830568,0.9816815257072449,0.08699715137481689,-0.1695080995559692,62.95606231689453,-0.7847423553466797,14.00936889648438,2,11144.23239154167,1,2,1580907428.473558,1580903939.50652,2377,0.4626901,0,0,2938.329,10,11,1580907321.19788,11141.162012,0,13.96994,97.04093
1580907428.622181,35,0,1580907286.99823,41.20781296037784,29.0754925099451,275.2123,0.1345286,-1,23.46983528137207,200,-9999,11144.41448404167,0.9542999267578125,0.0842437744140625,-0.1790008544921875,11144.40944904167,1.515870888080518,1.399672093130176,-0.08706777662146979,0.003848379477858543,-0.01422062795609236,0.003435003571212292,-0.02652698755264282,-0.002464145421981812,-0.009708762168884277,2,-0.4665222103768035,0.4444484417001356,0.5049872163895519,0.5742913863451665,0.981661319732666,0.08695781230926514,-0.169645220041275,62.95606231689453,-0.7847423553466797,14.00936889648438,2,11144.23239154167,1,2,1580907428.473558,1580903939.50652,2377,0.4626901,0,0,2938.329,10,11,1580907321.19788,11141.162012,0,13.96994,97.04093
1580907428.649514,36,0,1580907286.99823,41.20781296037784,29.0754925099451,275.2123,0.1345286,-1,23.46983528137207,200,-9999,11144.42452404167,0.959075927734375,0.084930419921875,-0.1783447265625,11144.41948904167,1.515874425391794,1.399660299089247,-0.08702576752621867,-0.0002914750948548317,-9.050033986568451e-05,0.005596788600087166,-0.02970242500305176,-0.003062993288040161,-0.01131415367126465,2,-0.466508824193685,0.4444556481402424,0.5050012310457651,0.5742841637642032,0.9816627502441406,0.08691596239805222,-0.1696573942899704,63.04955291748047,-0.8313426971435547,14.00445556640625,2,11144.23239154167,1,2,1580907428.473558,1580903939.50652,2377,0.4626901,0,0,2938.329,10,11,1580907321.19788,11141.162012,0,13.96994,97.04093
1580907428.650865,37,0,1580907286.99823,41.20781296037784,29.0754925099451,275.2123,0.1345286,-1,23.46983528137207,200,-9999,11144.43456504167,0.9706268310546875,0.0859832763671875,-0.1737518310546875,11144.42952904167,1.515859946294187,1.399621734862498,-0.08698108415403799,0.002252376638352871,-0.003451675176620483,0.004463613964617252,-0.02803641557693481,-0.002194374799728394,-0.01148891448974609,2,-0.4664838556163719,0.4444601757781222,0.5050170558615652,0.574287168886452,0.9816601872444153,0.0868714451789856,-0.1696959286928177,63.04955291748047,-0.8313426971435547,14.00445556640625,2,11144.23239154167,1,2,1580907428.473558,1580903939.50652,2377,0.4626901,0,0,2938.329,10,11,1580907321.19788,11141.162012,0,13.96994,97.04093
1580907428.652209,38,0,1580907286.99823,41.20781296037784,29.0754925099451,275.2123,0.1345286,-1,23.46983528137207,200,-9999,11144.44460504167,0.970977783203125,0.086181640625,-0.172698974609375,11144.43957004167,1.515832806823024,1.399476450740521,-0.08694355551160908,0.004139133729040623,-0.01426973659545183,0.003010306507349014,-0.01654022932052612,-0.001256614923477173,-0.007805228233337402,2,-0.4664310924102708,0.4444350200531592,0.5050523374903262,0.5743184363981497,0.9816386699676514,0.08683405816555023,-0.1698390990495682,63.06305694580078,-0.8322124481201172,13.964599609375,2,11144.23239154167,1,2,1580907428.473558,1580903939.50652,2377,0.4626901,0,0,2938.329,10,11,1580907321.19788,11141.162012,0,13.96994,97.04093
1580907428.6623,39,0,1580907286.99823,41.20781296037784,29.0754925099451,275.2123,0.1345286,-1,23.46983528137207,200,-9999,11144.45467604167,0.9683990478515625,0.087127685546875,-0.173095703125,11144.44961004167,1.51582131538901,1.399236721862894,-0.08691681920809378,0.0008509289473295212,-0.02350211702287197,0.001577259972691536,-0.01256483793258667,-0.0007874667644500732,-0.004471421241760254,2,-0.4663608519217932,0.4443761384240947,0.5051114787903899,0.5743689668245729,0.9816001653671265,0.08680742233991623,-0.1700748056173325,62.93058013916016,-0.9166316986083984,13.95278930664062,2,11144.23239154167,1,2,1580907428.473558,1580903939.50652,2377,0.4626901,0,0,2938.329,10,11,1580907321.19788,11141.162012,0,13.96994,97.04093
1580907428.672868,40,0,1580907286.99823,41.20781296037784,29.0754925099451,275.2123,0.1345286,-1,23.46983528137207,200,-9999,11144.46471604167,0.9584808349609375,0.086669921875,-0.1769256591796875,11144.45965004167,1.515810133259702,1.398976740828182,-0.08686871839568688,0.002345087006688118,-0.02695575542747974,0.004390467889606953,-0.01511859893798828,-0.000342637300491333,-0.005008220672607422,2,-0.4662797991781166,0.4443172165019709,0.5051806819426248,0.574419538444145,0.9815600514411926,0.08675950765609741,-0.1703307181596756,62.93058013916016,-0.9166316986083984,13.95278930664062,2,11144.23239154167,1,2,1580907428.473558,1580903939.50652,2377,0.4626901,0,0,2938.329,10,11,1580907321.19788,11141.162012,0,13.96994,97.04093
1580907428.682385,41,0,1580907286.99823,41.20781296037784,29.0754925099451,275.2123,0.1345286,-1,23.46983528137207,200,-9999,11144.47475604167,0.95208740234375,0.08416748046875,-0.180511474609375,11144.46969004167,1.515804182588146,1.398862389007566,-0.08680777886339132,0.001349330879747868,-0.01061539817601442,0.005487424321472645,-0.02152824401855469,0.0007252991199493408,-0.006786882877349854,2,-0.4662332705498699,0.4443023825955724,0.505220551974685,0.5744336784615873,0.9815457463264465,0.08669879287481308,-0.1704438626766205,63.03710174560547,-0.8081150054931641,13.8089599609375,2,11144.23239154167,1,2,1580907428.473558,1580903939.50652,2377,0.4626901,0,0,2938.329,10,11,1580907321.19788,11141.162012,0,13.96994,97.04093
1580907428.711883,42,0,1580907286.99823,41.20781296037784,29.0754925099451,275.2123,0.1345286,-1,23.46983528137207,200,-9999,11144.48479704167,0.9593353271484375,0.087066650390625,-0.176910400390625,11144.47973104167,1.515785110479174,1.398837178881306,-0.08675655361855229,0.003102789632976055,-0.001808138564229012,0.004008401185274124,-0.03227043151855469,-0.002748280763626099,-0.01210165023803711,2,-0.466208901788508,0.4443135921323647,0.5052335275758584,0.5744334865407767,0.9815459251403809,0.08664776384830475,-0.1704693883657455,63.03710174560547,-0.8081150054931641,13.8089599609375,2,11144.23239154167,1,2,1580907428.473558,1580903939.50652,2377,0.4626901,0,0,2938.329,10,11,1580907321.19788,11141.162012,0,13.96994,97.04093
1580907428.713385,43,0,1580907286.99823,41.20781296037784,29.0754925099451,275.2123,0.1345286,-1,23.46983528137207,200,-9999,11144.49483704167,0.9605560302734375,0.087738037109375,-0.1752471923828125,11144.48980104167,1.51575574974637,1.398802440357431,-0.08670120781105023,0.004025574773550034,-0.004230016842484474,0.004711475223302841,-0.0272490382194519,-0.0007246434688568115,-0.01017457246780396,2,-0.4661787709774898,0.4443255601680886,0.5052467479497442,0.5744370475291559,0.9815447330474854,0.08659262210130692,-0.1705043017864227,63.08608245849609,-0.8720645904541016,13.84677124023438,2,11144.23239154167,1,2,1580907428.473558,1580903939.50652,2377,0.4626901,0,0,2938.329,10,11,1580907321.19788,11141.162012,0,13.96994,97.04093
1580907428.714412,44,0,1580907286.99823,41.20781296037784,29.0754925099451,275.2123,0.1345286,-1,23.46983528137207,200,-9999,11144.50487704167,0.956451416015625,0.08544921875,-0.1782379150390625,11144.49984204167,1.51572289173796,1.39881821845463,-0.08664416705508894,0.003529476933181286,0.0001061540096998215,0.004502288997173309,-0.02325880527496338,0.0009956061840057373,-0.006817102432250977,2,-0.4661601885543082,0.4443533000551381,0.5052475879721118,0.5744298608718276,0.9815522432327271,0.08653579652309418,-0.1704896539449692,63.08608245849609,-0.8720645904541016,13.84677124023438,2,11144.23239154167,1,2,1580907428.473558,1580903939.50652,2377,0.4626901,0,0,2938.329,10,11,1580907321.19788,11141.162012,0,13.96994,97.04093
1580907428.722463,45,0,1580907286.99823,41.20781296037784,29.0754925099451,275.2123,0.1345286,-1,23.46983528137207,200,-9999,11144.51491704167,0.9532623291015625,0.0829620361328125,-0.182861328125,11144.50988204167,1.515690822134937,1.399026609577487,-0.08660293969495859,0.004292205907404423,0.02179360575973988,0.002965112216770649,-0.02607500553131104,-0.0004280507564544678,-0.008761048316955566,2,-0.4661946321448137,0.4444318913571026,0.5051999214863121,0.5743831030250425,0.9815913438796997,0.08649472892284393,-0.1702857166528702,62.91464996337891,-0.8526630401611328,14.01535034179688,2,11144.23239154167,1,2,1580907428.473558,1580903939.50652,2377,0.4626901,0,0,2938.329,10,11,1580907321.19788,11142.107746,0,13.98843,97.04071
1580907428.732698,46,0,1580907286.99823,41.20781296037784,29.0754925099451,275.2123,0.1345286,-1,23.46983528137207,200,-9999,11144.52495804167,0.95782470703125,0.0848236083984375,-0.1785888671875,11144.51992204167,1.515685729816407,1.399391104928406,-0.08656036585577548,0.0008381083607673645,0.03762124478816986,0.003683999180793762,-0.03108465671539307,-0.003193140029907227,-0.01458191871643066,2,-0.46627416553284,0.4445493572530616,0.5051239107366307,0.5742944500656091,0.9816569089889526,0.08645231276750565,-0.1699285358190536,62.91464996337891,-0.8526630401611328,14.01535034179688,2,11144.23239154167,1,2,1580907428.473558,1580903939.50652,2377,0.4626901,0,0,2938.329,10,11,1580907321.19788,11142.107746,0,13.98843,97.04071
1580907428.742456,47,0,1580907286.99823,41.20781296037784,29.0754925099451,275.2123,0.1345286,-1,23.46983528137207,200,-9999,11144.53502904167,0.958282470703125,0.08709716796875,-0.1756134033203125,11144.52996304167,1.515688491184179,1.399807921644863,-0.08649018428877128,0.001402166672050953,0.04143143445253372,0.006136770360171795,-0.02829289436340332,-0.002802550792694092,-0.0134347677230835,2,-0.4663612514596029,0.444687522395002,0.5050447046317197,0.5741863709237937,0.9817335605621338,0.08638238906860352,-0.169520378112793,63.12497711181641,-0.7252750396728516,14.0308837890625,2,11144.23239154167,1,2,1580907428.473558,1580903939.50652,2377,0.4626901,0,0,2938.329,10,11,1580907321.19788,11142.107746,0,13.98843,97.04071
1580907428.779209,48,0,1580907286.99823,41.20781296037784,29.0754925099451,275.2123,0.1345286,-1,23.46983528137207,200,-9999,11144.54506904167,0.9511260986328125,0.0863037109375,-0.1785430908203125,11144.54000304167,1.515704136554176,1.400335719648147,-0.08636693634020493,0.0004066042602062225,0.05216068774461746,0.01244055014103651,-0.02528023719787598,0.0003722310066223145,-0.008825540542602539,2,-0.466464965691939,0.4448690028211082,0.5049563285461937,0.5740392959841775,0.9818334579467773,0.08625960350036621,-0.1690040081739426,63.12497711181641,-0.7252750396728516,14.0308837890625,2,11144.23239154167,1,2,1580907428.473558,1580903939.50652,2377,0.4626901,0,0,2938.329,10,11,1580907321.19788,11142.107746,0,13.98843,97.04071
1580907428.780602,49,0,1580907286.99823,41.20781296037784,29.0754925099451,275.2123,0.1345286,-1,23.46983528137207,200,-9999,11144.55510904167,0.955535888671875,0.0872039794921875,-0.1767578125,11144.55004304167,1.515709411070756,1.400976141008274,-0.08618748966218001,0.003943015821278095,0.06438193470239639,0.0175013542175293,-0.03182780742645264,0.0001701116561889648,-0.01181864738464355,2,-0.4665797533086959,0.4451004759768324,0.5048524439745616,0.5738578962425058,0.9819567203521729,0.08608082681894302,-0.1683778017759323,63.16074371337891,-1.046972274780273,14.08236694335938,2,11144.23239154167,1,2,1580907428.473558,1580903939.50652,2377,0.4626901,0,0,2938.329,10,11,1580907321.19788,11142.107746,0,13.98843,97.04071
1580907428.78162,50,0,1580907286.99823,41.20781296037784,29.0754925099451,275.2123,0.1345286,-1,23.46983528137207,200,-9999,11144.56514904167,0.9491729736328125,0.08380126953125,-0.179443359375,11144.56008304167,1.51575330430339,1.401721968576303,-0.08594399654537579,-0.001566340215504169,0.07246294617652893,0.02521491423249245,-0.0312875509262085,0.001145780086517334,-0.01225960254669189,2,-0.466712550774534,0.4453705638584807,0.5047507368743746,0.5736298209001897,0.9821026921272278,0.08583823591470718,-0.1676489114761353,63.16074371337891,-1.046972274780273,14.08236694335938,2,11144.23239154167,1,2,1580907428.473558,1580903939.50652,2377,0.4626901,0,0,2938.329,10,11,1580907321.19788,11142.107746,0,13.98843,97.04071
1580907428.783308,51,0,1580907286.99823,41.20781296037784,29.0754925099451,275.2123,0.1345286,-1,23.46983528137207,200,-9999,11144.57519004167,0.9510955810546875,0.08489990234375,-0.178314208984375,11144.57015404167,1.515783333579304,1.40268430432819,-0.08564841950928671,0.002616686746478081,0.09863968938589096,0.02929141744971275,-0.03214538097381592,-0.001122444868087769,-0.01320338249206543,2,-0.4668829754427573,0.4457199979123636,0.5046072158486374,0.573345812507886,0.9822884202003479,0.08554374426603317,-0.1667079478502274,63.20868682861328,-1.077081680297852,14.09133911132812,2,11144.23239154167,1,2,1580907428.473558,1580903939.50652,2377,0.4626901,0,0,2938.329,10,11,1580907321.19788,11142.107746,0,13.98843,97.04071
1580907428.792856,52,0,1580907286.99823,41.20781296037784,29.0754925099451,275.2123,0.1345286,-1,23.46983528137207,200,-9999,11144.58523004167,0.9600067138671875,0.0859375,-0.172760009765625,11144.58019504167,1.515835968191083,1.403676282306834,-0.08530365523632953,0.0009119333699345589,0.09696952253580093,0.03442659974098206,-0.03746652603149414,-0.001342594623565674,-0.01702880859375,2,-0.4670526919232275,0.446085878968953,0.5044752833723366,0.5730390248091137,0.9824823141098022,0.085200235247612,-0.1657383441925049,63.20868682861328,-1.077081680297852,14.09133911132812,2,11144.23239154167,1,2,1580907428.473558,1580903939.50652,2377,0.4626901,0,0,2938.329,10,11,1580907321.19788,11142.107746,0,13.98843,97.04071
1580907428.80279,53,0,1580907286.99823,41.20781296037784,29.0754925099451,275.2123,0.1345286,-1,23.46983528137207,200,-9999,11144.59527004167,0.9513397216796875,0.087493896484375,-0.1772918701171875,11144.59023504167,1.515884286584634,1.404863286710646,-0.0849174028474281,0.0004187161102890968,0.1198732405900955,0.03681705892086029,-0.02512210607528687,0.0009354650974273682,-0.01067006587982178,2,-0.467259494042766,0.4465197040231548,0.5043066804336117,0.572680844107359,0.9827107191085815,0.0848153829574585,-0.1645774394273758,63.22805023193359,-1.091009140014648,14.15081787109375,2,11144.23239154167,1,2,1580907428.473558,1580903939.50652,2377,0.4626901,0,0,2938.329,10,11,1580907321.19788,11142.107746,0,13.98843,97.04071
1580907428.830061,54,0,1580907286.99823,41.20781296037784,29.0754925099451,275.2123,0.1345286,-1,23.46983528137207,200,-9999,11144.60531104167,0.9690704345703125,0.089691162109375,-0.1673583984375,11144.60027504167,1.51585086145627,1.406036012110232,-0.08449748652213655,0.01474789809435606,0.1142260283231735,0.03529466688632965,-0.03284204006195068,0.001309305429458618,-0.01554286479949951,2,-0.467435333420438,0.4469774560448678,0.5041262387810975,0.5723391687359818,0.9829382300376892,0.08439697325229645,-0.1634307205677032,63.22805023193359,-1.091009140014648,14.15081787109375,2,11144.23239154167,1,2,1580907428.473558,1580903939.50652,2377,0.4626901,0,0,2938.329,10,11,1580907321.19788,11142.107746,0,13.98843,97.04071
1580907428.831604,55,0,1580907286.99823,41.20781296037784,29.0754925099451,275.2123,0.1345286,-1,23.46983528137207,200,-9999,11144.61538104167,0.9564056396484375,0.081756591796875,-0.1769256591796875,11144.61031504167,1.51586666261129,1.40733549955994,-0.08403243055672185,0.004586873576045036,0.1283631473779678,0.04483011364936829,-0.02259457111358643,0.006687283515930176,-0.01017963886260986,2,-0.4676420390009639,0.4474719041391111,0.5039412326108834,0.5719467116493505,0.9831883907318115,0.08393356949090958,-0.1621596366167068,63.10555267333984,-1.19536018371582,14.3931884765625,2,11144.23239154167,1,2,1580907428.473558,1580903939.50652,2377,0.4626901,0,0,2938.329,10,11,1580907321.19788,11142.107746,0,13.98843,97.04071
1580907428.833145,56,0,1580907286.99823,41.20781296037784,29.0754925099451,275.2123,0.1345286,-1,23.46983528137207,200,-9999,11144.62542204167,0.97381591796875,0.08062744140625,-0.1689910888671875,11144.62035604167,1.515830503516423,1.408803388328496,-0.08363610994096683,0.009634664282202721,0.1488341242074966,0.03732707351446152,-0.02365851402282715,0.0004456639289855957,-0.01450556516647339,2,-0.4678978177116787,0.4480076259460538,0.5036849964036576,0.5715436757444776,0.9834580421447754,0.08353863656520844,-0.1607216000556946,63.10555267333984,-1.19536018371582,14.3931884765625,2,11144.23239154167,1,2,1580907428.473558,1580903939.50652,2377,0.4626901,0,0,2938.329,10,11,1580907321.19788,11142.107746,0,13.98843,97.04071
1580907428.843032,57,0,1580907286.99823,41.20781296037784,29.0754925099451,275.2123,0.1345286,-1,23.46983528137207,200,-9999,11144.63546204167,0.9792327880859375,0.0828399658203125,-0.162445068359375,11144.63039604167,1.515775903746607,1.410158452134285,-0.08331717511855437,0.008302552625536919,0.1355979442596436,0.03065212815999985,-0.02228480577468872,-0.003660649061203003,-0.01731789112091064,2,-0.4681415888483568,0.4484940686726318,0.5034307336941657,0.5711863919860364,0.9837011694908142,0.08322081714868546,-0.1593930423259735,63.21129608154297,-1.462251663208008,14.6943359375,2,11144.23239154167,1,2,1580907428.473558,1580903939.50652,2377,0.4626901,0,0,2938.329,10,11,1580907321.19788,11142.107746,0,13.98843,97.04071
1580907428.853029,58,0,1580907286.99823,41.20781296037784,29.0754925099451,275.2123,0.1345286,-1,23.46983528137207,200,-9999,11144.64550204167,0.974609375,0.081939697265625,-0.1602325439453125,11144.64043604167,1.515683667210121,1.411408977084846,-0.0830341811440284,0.01359974779188633,0.1272335946559906,0.02733215689659119,-0.004501700401306152,-0.0001429617404937744,-0.006233692169189453,2,-0.4683600137968283,0.4489494805274971,0.5031812891729769,0.5708693520274927,0.9839230179786682,0.08293879777193069,-0.1581665277481079,63.21129608154297,-1.462251663208008,14.6943359375,2,11144.23239154167,1,2,1580907428.473558,1580903939.50652,2377,0.4626901,0,0,2938.329,10,11,1580907321.19788,11142.107746,0,13.98843,97.04071
1580907428.863157,59,0,1580907286.99823,41.20781296037784,29.0754925099451,275.2123,0.1345286,-1,23.46983528137207,200,-9999,11144.65554204167,0.974456787109375,0.08197021484375,-0.1593475341796875,11144.65050704167,1.515609968934465,1.412493847726249,-0.08279728856664058,0.01061540842056274,0.1091376841068268,0.0218561664223671,-0.01255053281784058,-0.001081168651580811,-0.006797254085540771,2,-0.4685531354328407,0.4493405335865109,0.5029644770596057,0.5705941677139342,0.984113335609436,0.08270271867513657,-0.1571020931005478,63.00147247314453,-1.637178421020508,14.75588989257812,2,11144.23239154167,1,2,1580907428.473558,1580903939.50652,2377,0.4626901,0,0,2938.329,10,11,1580907321.19788,11142.107746,0,13.98843,97.04071
1580907428.894106,60,0,1580907286.99823,41.20781296037784,29.0754925099451,275.2123,0.1345286,-1,23.46983528137207,200,-9999,11144.66558304167,0.969970703125,0.0810394287109375,-0.1619110107421875,11144.66054704167,1.515542774012467,1.413502160036384,-0.08257523272394948,0.009348640218377113,0.1008410304784775,0.02182294428348541,-0.01182657480239868,-0.0004014372825622559,-0.004935920238494873,2,-0.4687323202465284,0.4497040360821696,0.5027637426592171,0.5703374484325485,0.9842893481254578,0.08248142153024673,-0.1561125814914703,63.00147247314453,-1.637178421020508,14.75588989257812,2,11144.23239154167,1,2,1580907428.473558,1580903939.50652,2377,0.4626901,0,0,2938.329,10,11,1580907321.19788,11142.107746,0,13.98843,97.04071
1580907428.895411,61,0,1580907286.99823,41.20781296037784,29.0754925099451,275.2123,0.1345286,-1,23.46983528137207,200,-9999,11144.67562304167,0.9652252197265625,0.083160400390625,-0.1625213623046875,11144.67058804167,1.515466369077654,1.414537985915565,-0.08235317208238534,0.01014599017798901,0.1050765141844749,0.02210923284292221,-0.01556134223937988,-0.001583307981491089,-0.008472919464111328,2,-0.4689162146240673,0.4500774148241227,0.5025539074771633,0.5700767288391141,0.9844686985015869,0.08226011693477631,-0.1550958156585693,63.14531707763672,-1.453908920288086,14.92575073242188,2,11144.23239154167,1,2,1580907428.473558,1580903939.50652,2377,0.4626901,0,0,2938.329,10,11,1580907321.19788,11142.107746,0,13.98843,97.04071
1580907428.896432,62,0,1580907286.99823,41.20781296037784,29.0754925099451,275.2123,0.1345286,-1,23.46983528137207,200,-9999,11144.68566304167,0.9659423828125,0.0829010009765625,-0.1613922119140625,11144.68062804167,1.515361399765965,1.415594379981216,-0.08213249098403033,0.01361475326120853,0.1051751971244812,0.02063379436731339,-0.02181589603424072,0.0005140900611877441,-0.01100838184356689,2,-0.4690991327281279,0.4504628000149546,0.5023306887796068,0.569818532168343,0.9846498966217041,0.08204018324613571,-0.1540585458278656,63.14531707763672,-1.453908920288086,14.92575073242188,2,11144.23239154167,1,2,1580907428.473558,1580903939.50652,2377,0.4626901,0,0,2938.329,10,11,1580907321.19788,11142.107746,0,13.98843,97.04071
1580907428.903146,63,0,1580907286.99823,41.20781296037784,29.0754925099451,275.2123,0.1345286,-1,23.46983528137207,200,-9999,11144.69573404167,0.9694976806640625,0.0816192626953125,-0.1607666015625,11144.69066804167,1.515213956220666,1.416729976214138,-0.08192759307834324,0.01953575946390629,0.1180587708950043,0.01756956242024899,-0.0204811692237854,0.001069813966751099,-0.01052457094192505,2,-0.4692964439954506,0.4508762808626049,0.5020728412615033,0.5695562474453397,0.9848408102989197,0.08183597028255463,-0.1529428511857986,63.15712738037109,-1.47966194152832,15.05804443359375,2,11144.23239154167,1,2,1580907428.473558,1580903939.50652,2377,0.4626901,0,0,2938.329,10,11,1580907321.19788,11142.107746,0,13.98843,97.04071
1580907428.913295,64,0,1580907286.99823,41.20781296037784,29.0754925099451,275.2123,0.1345286,-1,23.46983528137207,200,-9999,11144.70577404167,0.971771240234375,0.0835113525390625,-0.156463623046875,11144.70070804167,1.515066851060743,1.417791186117203,-0.08174672620364967,0.01626921817660332,0.1057451590895653,0.01559324283152819,-0.02111560106277466,-0.0003973543643951416,-0.012836754322052,2,-0.4694814241392706,0.4512618363862264,0.5018265430544503,0.5693154383523893,0.9850171208381653,0.08165571093559265,-0.1518998891115189,63.15712738037109,-1.47966194152832,15.05804443359375,2,11144.23239154167,1,2,1580907428.473558,1580903939.50652,2377,0.4626901,0,0,2938.329,10,11,1580907321.19788,11142.107746,0,13.98843,97.04071
1580907428.923376,65,0,1580907286.99823,41.20781296037784,29.0754925099451,275.2123,0.1345286,-1,23.46983528137207,200,-9999,11144.71581504167,0.96380615234375,0.0856781005859375,-0.1590728759765625,11144.71074904167,1.514876705252301,1.418869285064672,-0.08154501712536157,0.02181578427553177,0.1096397563815117,0.01599990949034691,-0.01447480916976929,0.001360654830932617,-0.007978856563568115,2,-0.4696552460609623,0.4516677774561774,0.5015691098491512,0.5690768796236326,0.9851965308189392,0.08145467191934586,-0.1508403420448303,63.15317535400391,-1.619718551635742,15.27597045898438,2,11144.23239154167,1,2,1580907428.473558,1580903939.50652,2377,0.4626901,0,0,2938.329,10,11,1580907321.19788,11142.107746,0,13.98843,97.04071
1580907428.957796,66,0,1580907286.99823,41.20781296037784,29.0754925099451,275.2123,0.1345286,-1,23.46983528137207,200,-9999,11144.72585504167,0.9623260498046875,0.0869903564453125,-0.159088134765625,11144.72078904167,1.514646632688205,1.420008682367662,-0.08125549871290265,0.02661518380045891,0.1165461093187332,0.02413517609238625,-0.02237534523010254,0.003252148628234863,-0.01111477613449097,2,-0.4698117946131953,0.4521241453147218,0.5013076501822042,0.5688157532449745,0.9853911399841309,0.081166110932827,-0.1497212648391724,63.15317535400391,-1.619718551635742,15.27597045898438,2,11144.23239154167,1,2,1580907428.473558,1580903939.50652,2377,0.4626901,0,0,2938.329,10,11,1580907321.19788,11142.107746,0,13.98843,97.04071
1580907428.959138,67,0,1580907286.99823,41.20781296037784,29.0754925099451,275.2123,0.1345286,-1,23.46983528137207,200,-9999,11144.73589504167,0.964569091796875,0.082244873046875,-0.158935546875,11144.73086004167,1.514375553346326,1.421205242520538,-0.08092253552854614,0.03159849345684052,0.1216681599617004,0.03007003292441368,-0.02631926536560059,0.006331503391265869,-0.01314759254455566,2,-0.4699617053710858,0.45261788272425,0.5010317759096172,0.5685422044959518,0.985596239566803,0.08083424717187881,-0.1485460996627808,63.11714935302734,-1.662431716918945,15.25555419921875,2,11144.23239154167,1,2,1580907428.473558,1580903939.50652,2377,0.4626901,0,0,2938.329,10,11,1580907321.19788,11142.107746,0,13.98843,97.04071
1580907428.960195,68,0,1580907286.99823,41.20781296037784,29.0754925099451,275.2123,0.1345286,-1,23.46983528137207,200,-9999,11144.74593604167,0.968597412109375,0.0769805908203125,-0.1562652587890625,11144.74090004167,1.514107876337733,1.422438885218442,-0.08064900215085902,0.03027459606528282,0.1254591345787048,0.02306550741195679,-0.0246928334236145,0.003217518329620361,-0.01378357410430908,2,-0.4701372499287847,0.4531051505903355,0.5007334594990261,0.5682717363596844,0.9858006238937378,0.08056160062551498,-0.1473333835601807,63.11714935302734,-1.662431716918945,15.25555419921875,2,11144.23239154167,1,2,1580907428.473558,1580903939.50652,2377,0.4626901,0,0,2938.329,10,11,1580907321.19788,11142.107746,0,13.98843,97.04071
1580907428.963564,69,0,1580907286.99823,41.20781296037784,29.0754925099451,275.2123,0.1345286,-1,23.46983528137207,200,-9999,11144.75597604167,0.9702911376953125,0.07513427734375,-0.1524658203125,11144.75094004167,1.51386585894923,1.423670597336036,-0.08043663939280477,0.02696828171610832,0.1261185258626938,0.01804518327116966,-0.02093881368637085,-0.002307534217834473,-0.01382386684417725,2,-0.4703342548194285,0.4535691029734714,0.5004276372984422,0.5680077018198592,0.9859980344772339,0.08034992963075638,-0.1461215168237686,63.13434600830078,-1.695940017700195,15.4407958984375,2,11144.23239154167,1,2,1580907428.473558,1580903939.50652,2377,0.4626901,0,0,2938.329,10,11,1580907321.19788,11142.107746,0,13.98843,97.04071
1580907428.973821,70,0,1580907286.99823,41.20781296037784,29.0754925099451,275.2123,0.1345286,-1,23.46983528137207,200,-9999,11144.76601604167,0.9705963134765625,0.076019287109375,-0.1500396728515625,11144.76098104167,1.513638587666571,1.42484686545247,-0.08031417567443948,0.02402829751372337,0.1187789067625999,0.009024148806929588,-0.01873970031738281,-0.005191147327423096,-0.01094174385070801,2,-0.4705443005540009,0.4539895660033963,0.5001168089595169,0.5677717128231218,0.9861791133880615,0.08022785931825638,-0.1449630707502365,63.13434600830078,-1.695940017700195,15.4407958984375,2,11144.23239154167,1,2,1580907428.473558,1580903939.50652,2377,0.4626901,0,0,2938.329,10,11,1580907321.19788,11142.107746,0,13.98843,97.04071
1580907428.983625,71,0,1580907286.99823,41.20781296037784,29.0754925099451,275.2123,0.1345286,-1,23.46983528137207,200,-9999,11144.77608704167,0.973907470703125,0.07574462890625,-0.1479949951171875,11144.77102104167,1.513442443828889,1.425950083198385,-0.08023158269197471,0.01997789368033409,0.1116264536976814,0.005625422112643719,-0.01872283220291138,-0.004849165678024292,-0.008872866630554199,2,-0.4707535598397931,0.4543710977473863,0.4998220269478062,0.5675526916394793,0.9863450527191162,0.08014553040266037,-0.1438759863376617,63.18209075927734,-1.382551193237305,15.47027587890625,2,11144.23239154167,1,2,1580907428.473558,1580903939.50652,2377,0.4626901,0,0,2938.329,10,11,1580907321.19788,11142.107746,0,13.98843,97.04071
1580907429.015881,72,0,1580907286.99823,41.20781296037784,29.0754925099451,275.2123,0.1345286,-1,23.46983528137207,200,-9999,11144.78612704167,0.97760009765625,0.075103759765625,-0.14501953125,11144.78106104167,1.513313169694385,1.426933626452428,-0.08016589400848489,0.01267880480736494,0.1008759438991547,0.004770612344145775,-0.01629066467285156,-0.004218935966491699,-0.00804448127746582,2,-0.4709525015019164,0.4546982222021068,0.4995700591989481,0.5673473335013485,0.9864912033081055,0.0800800547003746,-0.1429065316915512,63.18209075927734,-1.382551193237305,15.47027587890625,2,11144.23239154167,1,2,1580907428.473558,1580903939.50652,2377,0.4626901,0,0,2938.329,10,11,1580907321.19788,11142.107746,0,13.98843,97.04071
1580907429.017719,73,0,1580907286.99823,41.20781296037784,29.0754925099451,275.2123,0.1345286,-1,23.46983528137207,200,-9999,11144.79616704167,0.9777679443359375,0.076324462890625,-0.1414794921875,11144.79110204167,1.513248184777821,1.427730452700561,-0.08011614594715062,0.006276299245655537,0.0807989090681076,0.00450136698782444,-0.01271599531173706,-0.005359381437301636,-0.006238341331481934,2,-0.4711235084723417,0.4549529010955767,0.4993763047349365,0.5671717240306877,0.9866086840629578,0.08003047108650208,-0.1421210020780563,63.01482391357422,-1.502252578735352,15.67193603515625,2,11144.23239154167,1,2,1580907428.473558,1580903939.50652,2377,0.4626901,0,0,2938.329,10,11,1580907321.19788,11142.107746,0,13.98843,97.04071
1580907429.018965,74,0,1580907286.99823,41.20781296037784,29.0754925099451,275.2123,0.1345286,-1,23.46983528137207,200,-9999,11144.80620804167,0.977630615234375,0.077362060546875,-0.142303466796875,11144.80114204167,1.513212618060888,1.428343133297163,-0.08009694262838263,0.003068579360842705,0.06125035881996155,0.00129217840731144,-0.01133978366851807,-0.00443992018699646,-0.00313645601272583,2,-0.4712632868923987,0.4551401568524732,0.4992266305750809,0.5670370628538569,0.9866970181465149,0.08001132309436798,-0.141516700387001,63.01482391357422,-1.502252578735352,15.67193603515625,2,11144.23239154167,1,2,1580907428.473558,1580903939.50652,2377,0.4626901,0,0,2938.329,10,11,1580907321.19788,11142.107746,0,13.98843,97.04071
1580907429.02383,75,0,1580907286.99823,41.20781296037784,29.0754925099451,275.2123,0.1345286,-1,23.46983528137207,200,-9999,11144.81624804167,0.975799560546875,0.076629638671875,-0.1450347900390625,11144.81121304167,1.513169961181437,1.428870340793678,-0.08011164154694655,0.003342884592711926,0.0529349073767662,-0.001891364343464375,-0.0115659236907959,-0.003005027770996094,-0.002773284912109375,2,-0.4713890477821805,0.4552957290038231,0.4990866535107906,0.5669308864542556,0.9867703914642334,0.08002597838640213,-0.1409963369369507,63.21140289306641,-1.579622268676758,15.8367919921875,2,11144.23239154167,1,2,1580907428.473558,1580903939.50652,2377,0.4626901,0,0,2938.329,10,11,1580907321.19788,11142.107746,0,13.98843,97.04071
1580907429.034344,76,0,1580907286.99823,41.20781296037784,29.0754925099451,275.2123,0.1345286,-1,23.46983528137207,200,-9999,11144.82628804167,0.973876953125,0.0791778564453125,-0.143035888671875,11144.82125304167,1.513132326277035,1.429305207223881,-0.08014173113163467,0.001861065626144409,0.04345747455954552,-0.00358927296474576,-0.01325762271881104,-0.003538638353347778,-0.006392955780029297,2,-0.471496968301971,0.4554197807376646,0.4989660050296423,0.5668477043842313,0.9868292212486267,0.08005597442388535,-0.1405668705701828,63.21140289306641,-1.579622268676758,15.8367919921875,2,11144.23239154167,1,2,1580907428.473558,1580903939.50652,2377,0.4626901,0,0,2938.329,10,11,1580907321.19788,11142.107746,0,13.98843,97.04071
1580907429.043901,77,0,1580907286.99823,41.20781296037784,29.0754925099451,275.2123,0.1345286,-1,23.46983528137207,200,-9999,11144.83632904167,0.96966552734375,0.0843048095703125,-0.1436920166015625,11144.83129304167,1.513065017745222,1.429631331628286,-0.08011684805174603,0.007668089121580124,0.03274331241846085,0.002105364575982094,-0.01457202434539795,-0.002109944820404053,-0.00583040714263916,2,-0.4715563869395641,0.4555347615243098,0.4988762280527334,0.5667849166270718,0.9868770241737366,0.08003117144107819,-0.1402453035116196,63.08946990966797,-1.498502731323242,15.9283447265625,2,11144.23239154167,1,2,1580907428.473558,1580903939.50652,2377,0.4626901,0,0,2938.329,10,11,1580907321.19788,11142.107746,0,13.98843,97.04071
1580907429.07063,78,0,1580907286.99823,41.20781296037784,29.0754925099451,275.2123,0.1345286,-1,23.46983528137207,200,-9999,11144.84636904167,0.9663238525390625,0.081512451171875,-0.1488189697265625,11144.84133304167,1.512996642456342,1.42993831404474,-0.08003877572877169,0.00783193577080965,0.03001074865460396,0.007329877465963364,-0.01880228519439697,0.002835601568222046,-0.005248308181762695,2,-0.471596645694747,0.4556588494401154,0.4988038869253598,0.5667153921966235,0.986926257610321,0.07995334267616272,-0.1399432271718979,63.08946990966797,-1.498502731323242,15.9283447265625,2,11144.23239154167,1,2,1580907428.473558,1580903939.50652,2377,0.4626901,0,0,2938.329,10,11,1580907321.19788,11142.107746,0,13.98843,97.04071
1580907429.071892,79,0,1580907286.99823,41.20781296037784,29.0754925099451,275.2123,0.1345286,-1,23.46983528137207,200,-9999,11144.85644004167,0.9664154052734375,0.076507568359375,-0.149261474609375,11144.85137404167,1.512970563965436,1.430307429195925,-0.07996690386957216,0.003592449240386486,0.03683935850858688,0.006548238918185234,-0.02250659465789795,0.002800583839416504,-0.009870052337646484,2,-0.4716636822914306,0.4557888776932912,0.4987273229908077,0.5666224233030795,0.9869835376739502,0.0798817053437233,-0.1395797431468964,63.10628509521484,-1.442571640014648,15.8133544921875,2,11144.23239154167,1,2,1580907428.473558,1580903939.50652,2377,0.4626901,0,0,2938.329,10,11,1580907321.19788,11142.107746,0,13.98843,97.04071
1580907429.074075,80,0,1580907286.99823,41.20781296037784,29.0754925099451,275.2123,0.1345286,-1,23.46983528137207,200,-9999,11144.86648004167,0.96875,0.075775146484375,-0.14764404296875,11144.86141404167,1.51298907779368,1.430746618346069,-0.07993020410799596,-0.002080847043544054,0.0439487099647522,0.003581095486879349,-0.02379167079925537,-0.002304941415786743,-0.01292896270751953,2,-0.4717677145506646,0.4559187443941716,0.4986380720464281,0.5665097377938605,0.9870474934577942,0.0798451229929924,-0.1391466408967972,63.21726226806641,-1.699682235717773,15.84933471679688,2,11144.23239154167,1,2,1580907428.473558,1580903939.50652,2377,0.4626901,0,0,2938.329,10,11,1580907321.19788,11142.107746,0,13.98843,97.04071
1580907429.084044,81,0,1580907286.99823,41.20781296037784,29.0754925099451,275.2123,0.1345286,-1,23.46983528137207,200,-9999,11144.87652004167,0.96588134765625,0.079925537109375,-0.1485137939453125,11144.87145404167,1.513032394151486,1.431291355602401,-0.07986929534089582,-0.0049301628023386,0.05384048819541931,0.006220021285116673,-0.0213545560836792,-0.004593908786773682,-0.01157534122467041,2,-0.4718972427177732,0.456079143490687,0.4985369686953819,0.5663616838946637,0.987127959728241,0.07978440821170807,-0.1386096179485321,63.21726226806641,-1.699682235717773,15.84933471679688,2,11144.23239154167,1,2,1580907428.473558,1580903939.50652,2377,0.4626901,0,0,2938.329,10,11,1580907321.19788,11142.107746,0,13.98843,97.04071
1580907429.094013,82,0,1580907286.99823,41.20781296037784,29.0754925099451,275.2123,0.1345286,-1,23.46983528137207,200,-9999,11144.88656104167,0.965606689453125,0.0859375,-0.1473388671875,11144.88149504167,1.513070150732215,1.431925932880795,-0.07971633184926409,-0.00191892683506012,0.06162810325622559,0.01552191097289324,-0.02298057079315186,-0.001877456903457642,-0.01258301734924316,2,-0.4720234001434344,0.4562909859844982,0.4984360095039081,0.5661749461488891,0.9872279763221741,0.07963193207979202,-0.13798488676548,63.12732696533203,-1.666585922241211,15.98745727539062,2,11144.23239154167,1,2,1580907428.473558,1580903939.50652,2377,0.4626901,0,0,2938.329,10,11,1580907321.19788,11142.107746,0,13.98843,97.04071
1580907429.103994,83,0,1580907286.99823,41.20781296037784,29.0754925099451,275.2123,0.1345286,-1,23.46983528137207,200,-9999,11144.89660104167,0.9652099609375,0.0865478515625,-0.147125244140625,11144.89156504167,1.513067254281194,1.432653651320144,-0.07948032894975586,0.003353333100676537,0.07317743450403214,0.0236637257039547,-0.02461034059524536,0.005392700433731079,-0.01295018196105957,2,-0.4721415562375779,0.456560897317508,0.4983221032605361,0.5659589167562339,0.9873465895652771,0.07939667254686356,-0.137268990278244,63.12732696533203,-1.666585922241211,15.98745727539062,2,11144.23239154167,1,2,1580907428.473558,1580903939.50652,2377,0.4626901,0,0,2938.329,10,11,1580907321.19788,11142.107746,0,13.98843,97.04071
1580907429.132523,84,0,1580907286.99823,41.20781296037784,29.0754925099451,275.2123,0.1345286,-1,23.46983528137207,200,-9999,11144.90664104167,0.964263916015625,0.091400146484375,-0.1469879150390625,11144.90160604167,1.51297449809118,1.433464819775534,-0.07916749435564042,0.0133535023778677,0.08240155875682831,0.03036849945783615,-0.02471596002578735,0.006819278001785278,-0.01298695802688599,2,-0.4722395073522321,0.4568961807506929,0.4981822367849038,0.5657298231259005,0.9874822497367859,0.07908482104539871,-0.1364714503288269,62.86444854736328,-1.797727584838867,16.26101684570312,2,11144.23239154167,1,2,1580907428.473558,1580903939.50652,2377,0.4626901,0,0,2938.329,10,11,1580907321.19788,11142.107746,0,13.98843,97.04071
1580907429.133841,85,0,1580907286.99823,41.20781296037784,29.0754925099451,275.2123,0.1345286,-1,23.46983528137207,200,-9999,11144.91668104167,0.961883544921875,0.098419189453125,-0.148468017578125,11144.91164604167,1.512688551954114,1.434359046560282,-0.07877890053803568,0.03404120355844498,0.09069570899009705,0.03446950018405914,-0.02531075477600098,0.01007643342018127,-0.01341056823730469,2,-0.4722939059437857,0.4573206807340922,0.4979869346998187,0.565513213159532,0.9876341819763184,0.07869744300842285,-0.135592520236969,62.86444854736328,-1.797727584838867,16.26101684570312,2,11144.23239154167,1,2,1580907428.473558,1580903939.50652,2377,0.4626901,0,0,2938.329,10,11,1580907321.19788,11142.107746,0,13.98843,97.04071
1580907429.135248,86,0,1580907286.99823,41.20781296037784,29.0754925099451,275.2123,0.1345286,-1,23.46983528137207,200,-9999,11144.92672204167,0.960205078125,0.1004180908203125,-0.1485595703125,11144.92168604167,1.512182283829889,1.435346373132578,-0.0783458402265467,0.05430253222584724,0.1010857671499252,0.03753453493118286,-0.02854514122009277,0.01967981457710266,-0.01612305641174316,2,-0.4723090661602983,0.4578353153029066,0.4977185442152339,0.5653204729802194,0.9878013134002686,0.0782657191157341,-0.1346219331026077,63.21446990966797,-1.674459457397461,16.24545288085938,2,11144.23239154167,1,2,1580907428.473558,1580903939.50652,2377,0.4626901,0,0,2938.329,10,11,1580907321.19788,11142.107746,0,13.98843,97.04071
1580907429.144272,87,0,1580907286.99823,41.20781296037784,29.0754925099451,275.2123,0.1345286,-1,23.46983528137207,200,-9999,11144.93679204167,0.954071044921875,0.10211181640625,-0.1513671875,11144.93172704167,1.511396176923062,1.436509957853957,-0.07792067608491036,0.08220367133617401,0.1226195469498634,0.03119434788823128,-0.02907013893127441,0.02073046565055847,-0.01692032814025879,2,-0.4723058084279079,0.4584634983593774,0.4973275369866072,0.5651580865888612,0.9879900813102722,0.07784184813499451,-0.1334768831729889,63.21446990966797,-1.674459457397461,16.24545288085938,2,11144.23239154167,1,2,1580907428.473558,1580903939.50652,2377,0.4626901,0,0,2938.329,10,11,1580907321.19788,11142.107746,0,13.98843,97.04071
1580907429.15433,88,0,1580907286.99823,41.20781296037784,29.0754925099451,275.2123,0.1345286,-1,23.46983528137207,200,-9999,11144.94683304167,0.9520263671875,0.11370849609375,-0.148162841796875,11144.94176704167,1.51030279000295,1.437860026378049,-0.07738126024990799,0.1130563914775848,0.1463866829872131,0.03940540552139282,-0.03490674495697021,0.02471816539764404,-0.02113628387451172,2,-0.4722475281729089,0.4592472526312608,0.4968343844714079,0.5650042393120899,0.988210916519165,0.07730405777692795,-0.1321484595537186,63.11794281005859,-1.687551498413086,16.32421875,2,11144.23239154167,1,2,1580907428.473558,1580903939.50652,2377,0.4626901,0,0,2938.329,10,11,1580907321.19788,11142.107746,0,13.98843,97.04071
1580907429.164523,89,0,1580907286.99823,41.20781296037784,29.0754925099451,275.2123,0.1345286,-1,23.46983528137207,200,-9999,11144.95687304167,0.956146240234375,0.119354248046875,-0.1475982666015625,11144.95180704167,1.508821841030478,1.439266704459853,-0.07667441335526543,0.1550568342208862,0.152458980679512,0.05328543111681938,-0.03970861434936523,0.03168103098869324,-0.02111935615539551,2,-0.472068980680807,0.460182778897487,0.49626046749849,0.564896626908505,0.98844975233078,0.07659930735826492,-0.1307653784751892,63.11794281005859,-1.687551498413086,16.32421875,2,11144.23239154167,1,2,1580907428.473558,1580903939.50652,2377,0.4626901,0,0,2938.329,10,11,1580907321.19788,11142.107746,0,13.98843,97.04071
1580907429.191625,90,0,1580907286.99823,41.20781296037784,29.0754925099451,275.2123,0.1345286,-1,23.46983528137207,200,-9999,11144.96691304167,0.9627838134765625,0.10186767578125,-0.1404266357421875,11144.96184704167,1.507005575788461,1.440697704611579,-0.07595113860060271,0.1903775930404663,0.1571768820285797,0.04709137231111526,-0.03627264499664307,0.04442808032035828,-0.02088272571563721,2,-0.471813631640435,0.4612081297252123,0.49559059793439,0.564861767267943,0.9886904954910278,0.07587813585996628,-0.1293579190969467,63.26073455810547,-1.720632553100586,16.71615600585938,2,11144.23239154167,1,2,1580907428.473558,1580903939.50652,2377,0.4626901,0,0,2938.329,10,11,1580907321.19788,11142.107746,0,13.98843,97.04071
1580907429.192913,91,0,1580907286.99823,41.20781296037784,29.0754925099451,275.2123,0.1345286,-1,23.46983528137207,200,-9999,11144.97695404167,0.9724578857421875,0.070587158203125,-0.1250152587890625,11144.97191804167,1.50520304451447,1.442056064435942,-0.07518079147762395,0.1899496167898178,0.1499826163053513,0.05101101472973824,-0.03197377920150757,0.03361693024635315,-0.01854443550109863,2,-0.4715294122094364,0.4622216696907867,0.4949539971319425,0.5648289390264126,0.9889230728149414,0.07510998845100403,-0.1280222833156586,63.26073455810547,-1.720632553100586,16.71615600585938,2,11144.23239154167,1,2,1580907428.473558,1580903939.50652,2377,0.4626901,0,0,2938.329,10,11,1580907321.19788,11142.107746,0,13.98843,97.04071
1580907429.194597,92,0,1580907286.99823,41.20781296037784,29.0754925099451,275.2123,0.1345286,-1,23.46983528137207,200,-9999,11144.98699404167,0.9796295166015625,0.0666961669921875,-0.1209869384765625,11144.98195804167,1.503692998402236,1.443191110995538,-0.07425984575981656,0.1586974114179611,0.1269134283065796,0.07330003380775452,-0.02185690402984619,0.005820751190185547,-0.004570364952087402,2,-0.4712163282787082,0.4631424628795554,0.4944907310407326,0.5647415968358314,0.9891358613967896,0.074191614985466,-0.126908466219902,63.28876495361328,-1.744436264038086,16.93746948242188,2,11144.23239154167,1,2,1580907428.473558,1580903939.50652,2377,0.4626901,0,0,2938.329,10,11,1580907321.19788,11142.107746,0,13.98843,97.04071
1580907429.204656,93,0,1580907286.99823,41.20781296037784,29.0754925099451,275.2123,0.1345286,-1,23.46983528137207,200,-9999,11144.99703404167,0.9810943603515625,0.0728302001953125,-0.12249755859375,11144.99199904167,1.502290381869409,1.443977897060732,-0.07329009603734929,0.149798184633255,0.08790797740221024,0.08065488189458847,-0.01456618309020996,-0.01034510135650635,0.002516865730285645,2,-0.4708279686499904,0.4639519386129788,0.4941525215210393,0.5646972753534899,0.9893064498901367,0.0732244998216629,-0.1261392384767532,63.28876495361328,-1.744436264038086,16.93746948242188,2,11144.23239154167,1,2,1580907428.473558,1580903939.50652,2377,0.4626901,0,0,2938.329,10,11,1580907321.19788,11142.107746,0,13.98843,97.04071
1580907429.214609,94,0,1580907286.99823,41.20781296037784,29.0754925099451,275.2123,0.1345286,-1,23.46983528137207,200,-9999,11145.00707404167,0.979583740234375,0.06768798828125,-0.1225738525390625,11145.00203904167,1.500920734701125,1.444490115057636,-0.07243974361080811,0.1439094543457031,0.06385257095098495,0.06819919496774673,-0.01043522357940674,0.001049190759658813,0.001970767974853516,2,-0.4704104082037747,0.4646438513859492,0.4938585108361028,0.5647335148242308,0.9894322752952576,0.07237640768289566,-0.1256402730941772,63.37239837646484,-2.025152206420898,17.18087768554688,2,11144.23239154167,1,2,1580907428.473558,1580903939.50652,2377,0.4626901,0,0,2938.329,10,11,1580907321.19788,11142.107746,0,13.98843,97.04071
1580907429.225106,95,0,1580907286.99823,41.20781296037784,29.0754925099451,275.2123,0.1345286,-1,23.46983528137207,200,-9999,11145.01714504167,0.995147705078125,0.0633544921875,-0.10888671875,11145.01207904167,1.499509429403969,1.444542649879532,-0.07176993983348282,0.1489886343479156,0.02111229300498962,0.05024789273738861,-0.01357197761535645,-0.003667294979095459,-0.0007456541061401367,2,-0.4699170598673189,0.4651674698897008,0.4936156125495802,0.5649254290085398,0.9894866347312927,0.07170834392309189,-0.125594362616539,63.37239837646484,-2.025152206420898,17.18087768554688,2,11144.23239154167,1,2,1580907428.473558,1580903939.50652,2377,0.4626901,0,0,2938.329,10,11,1580907321.19788,11142.107746,0,13.98843,97.04071
1580907429.258369,96,0,1580907286.99823,41.20781296037784,29.0754925099451,275.2123,0.1345286,-1,23.46983528137207,200,-9999,11145.02718604167,1.00042724609375,0.060333251953125,-0.0988616943359375,11145.02212004167,1.498103540362706,1.443838679298438,-0.07119871594716153,0.1461153030395508,-0.0601603165268898,0.04070160165429115,-0.002720236778259277,-0.006544440984725952,0.009617090225219727,2,-0.4692640189394046,0.4654495078748696,0.4935269951277714,0.5653132881375037,0.989438533782959,0.07113857567310333,-0.1262960731983185,63.28649139404297,-1.742650985717773,17.0205078125,2,11144.23239154167,1,2,1580907428.473558,1580903939.50652,2377,0.4626901,0,0,2938.329,10,11,1580907321.19788,11142.107746,0,13.98843,97.04071
1580907429.259994,97,0,1580907286.99823,41.20781296037784,29.0754925099451,275.2123,0.1345286,-1,23.46983528137207,200,-9999,11145.03722604167,0.9835205078125,0.06353759765625,-0.1089324951171875,11145.03216004167,1.496681178875508,1.442532220401419,-0.07066337405370393,0.148022398352623,-0.1194492056965828,0.03777771815657616,0.009386420249938965,-0.01000684499740601,0.02607005834579468,2,-0.4684677004515234,0.4655548011378584,0.4935653489030778,0.5658533304999855,0.9893103241920471,0.07060457766056061,-0.1275934875011444,63.28649139404297,-1.742650985717773,17.0205078125,2,11144.23239154167,1,2,1580907428.473558,1580903939.50652,2377,0.4626901,0,0,2938.329,10,11,1580907321.19788,11142.107746,0,13.98843,97.04071
1580907429.260967,98,0,1580907286.99823,41.20781296037784,29.0754925099451,275.2123,0.1345286,-1,23.46983528137207,200,-9999,11145.04726604167,0.94647216796875,0.0480194091796875,-0.1338043212890625,11145.04220004167,1.495255738411337,1.441076088293995,-0.07022148334378371,0.1470251381397247,-0.1414258480072021,0.02369254641234875,-0.00155031681060791,-0.007001310586929321,0.02184212207794189,2,-0.4676583916979981,0.4655928020727731,0.4936134527995739,0.5664492899263704,0.9891543984413147,0.0701637864112854,-0.1290379464626312,63.42459869384766,-1.663278579711914,16.96914672851562,2,11144.23239154167,1,2,1580907428.473558,1580903939.50652,2377,0.4626901,0,0,2938.329,10,11,1580907321.19788,11142.107746,0,13.98843,97.04071
1580907429.264826,99,0,1580907286.99823,41.20781296037784,29.0754925099451,275.2123,0.1345286,-1,23.46983528137207,200,-9999,11145.05730604167,0.9135589599609375,0.0513763427734375,-0.154052734375,11145.05227104167,1.493901130333421,1.44022324782206,-0.06955480155645757,0.1394399255514145,-0.07396851480007172,0.04936595261096954,-0.03221702575683594,-0.01581016182899475,0.002918601036071777,2,-0.4669540560642615,0.4658434722100562,0.493596052822863,0.5668392035850012,0.9890900254249573,0.06949873268604279,-0.1298875361680984,63.42459869384766,-1.663278579711914,16.96914672851562,2,11144.23239154167,1,2,1580907428.473558,1580903939.50652,2377,0.4626901,0,0,2938.329,10,11,1580907321.19788,11142.107746,0,13.98843,97.04071
1580907429.27514,100,0,1580907286.99823,41.20781296037784,29.0754925099451,275.2123,0.1345286,-1,23.46983528137207,200,-9999,11145.06734704167,0.9464263916015625,0.050018310546875,-0.138427734375,11145.06231104167,1.492449050483825,1.439795415329606,-0.06885240571472602,0.1544004529714584,-0.02506343834102154,0.05582359060645103,-0.07282841205596924,-0.02188244462013245,-0.02346038818359375,2,-0.4663218727803276,0.4662460658408413,0.4934602932312604,0.5671467384609509,0.9890825152397156,0.06879802048206329,-0.1303170323371887,63.42371368408203,-1.633955001831055,17.00051879882812,2,11144.23239154167,1,2,1580907428.473558,1580903939.50652,2377,0.4626901,0,0,2938.329,10,11,1580907321.19788,11142.107746,0,13.98843,97.04071
1580907429.284917,101,0,1580907286.99823,41.20781296037784,29.0754925099451,275.2123,0.1345286,-1,23.46983528137207,200,-9999,11145.07738704167,1.0115966796875,0.00640869140625,-0.109588623046875,11145.07235204167,1.491032858429916,1.438930530499445,-0.06877080386894648,0.1419211477041245,-0.07329035550355911,-0.01112934295088053,-0.06313788890838623,-0.01258441805839539,-0.01738321781158447,2,-0.4657564228370258,0.4663521935849651,0.4932805155642617,0.5676803196060398,0.9889750480651855,0.06871660798788071,-0.1311731785535812,63.42371368408203,-1.633955001831055,17.00051879882812,2,11144.23239154167,1,2,1580907428.473558,1580903939.50652,2377,0.4626901,0,0,2938.329,10,11,1580907321.19788,11142.107746,0,13.98843,97.04071
1580907429.311479,102,0,1580907286.99823,41.20781296037784,29.0754925099451,275.2123,0.1345286,-1,23.46983528137207,200,-9999,11145.08742704167,1.043060302734375,0.0149078369140625,-0.098876953125,11145.08239204167,1.489977749733545,1.437066661338935,-0.06925544288609281,0.09920648485422134,-0.1774411201477051,-0.06400348246097565,0.003411173820495605,-0.05146035552024841,0.01363527774810791,2,-0.4651809767261663,0.4659407191941719,0.493293125563404,0.568478536509388,0.9886957406997681,0.06920009106397629,-0.1330118030309677,63.53816986083984,-1.488840103149414,16.76437377929688,2,11144.23239154167,1,2,1580907428.473558,1580903939.50652,2377,0.4626901,0,0,2938.329,10,11,1580907321.19788,11142.107746,0,13.98843,97.04071
1580907429.312928,103,0,1580907286.99823,41.20781296037784,29.0754925099451,275.2123,0.1345286,-1,23.46983528137207,200,-9999,11145.09749804167,1.025772094726562,0.064697265625,-0.109344482421875,11145.09243204167,1.489490145333435,1.434106301397543,-0.06975676534803774,0.04190564155578613,-0.2982809841632843,-0.06105483323335648,0.0467371940612793,-0.06451988220214844,0.03334921598434448,2,-0.464471882377892,0.4650797676298643,0.4937168402835878,0.569394674980875,0.9882630705833435,0.0697002038359642,-0.1359333544969559,63.53816986083984,-1.488840103149414,16.76437377929688,2,11144.23239154167,1,2,1580907428.473558,1580903939.50652,2377,0.4626901,0,0,2938.329,10,11,1580907321.19788,11142.107746,0,13.98843,97.04071
1580907429.315128,104,0,1580907286.99823,41.20781296037784,29.0754925099451,275.2123,0.1345286,-1,23.46983528137207,200,-9999,11145.10753804167,0.964599609375,0.085968017578125,-0.154937744140625,11145.10247204167,1.489216036957323,1.430972772492422,-0.0698569507955121,0.02377265691757202,-0.3156282901763916,-0.009402426891028881,0.04767972230911255,-0.02070528268814087,0.03430134057998657,2,-0.4636611869249839,0.4642241670872036,0.494340745314773,0.5702116158937413,0.9878252744674683,0.06980014592409134,-0.1390284597873688,63.54119110107422,-1.46220588684082,16.39291381835938,2,11144.23239154167,1,2,1580907428.473558,1580903939.50652,2377,0.4626901,0,0,2938.329,10,11,1580907321.19788,11142.107746,0,13.98843,97.04071
1580907429.325184,105,0,1580907286.99823,41.20781296037784,29.0754925099451,275.2123,0.1345286,-1,23.46983528137207,200,-9999,11145.11757904167,0.9359130859375,0.0740509033203125,-0.166656494140625,11145.11251304167,1.488596698369702,1.428366264671924,-0.07002100897322384,0.05936074629426003,-0.2578437924385071,-0.02429828606545925,-0.007575690746307373,0.01486670970916748,-0.001799702644348145,2,-0.4629172146709865,0.4635807087656391,0.4947268971749791,0.5710043603538164,0.9874483942985535,0.06996380537748337,-0.1416011601686478,63.54119110107422,-1.46220588684082,16.39291381835938,2,11144.23239154167,1,2,1580907428.473558,1580903939.50652,2377,0.4626901,0,0,2938.329,10,11,1580907321.19788,11142.107746,0,13.98843,97.04071
1580907429.335198,106,0,1580907286.99823,41.20781296037784,29.0754925099451,275.2123,0.1345286,-1,23.46983528137207,200,-9999,11145.12761904167,0.9507904052734375,0.0602264404296875,-0.15667724609375,11145.12255304167,1.487668833283704,1.426254894883194,-0.0705190090664094,0.08672701567411423,-0.1955126523971558,-0.06573394685983658,-0.05042129755020142,0.008371889591217041,-0.02583765983581543,2,-0.4623145016172576,0.463060443137678,0.4948258215445163,0.5718283792294105,0.9871125221252441,0.07046057283878326,-0.1436806619167328,63.58174896240234,-1.514139175415039,15.97543334960938,2,11144.23239154167,1,2,1580907428.473558,1580903939.50652,2377,0.4626901,0,0,2938.329,10,11,1580907321.19788,11142.107746,0,13.98843,97.04071
1580907429.345168,107,0,1580907286.99823,41.20781296037784,29.0754925099451,275.2123,0.1345286,-1,23.46983528137207,200,-9999,11145.13765904167,0.9924468994140625,0.059173583984375,-0.1296234130859375,11145.13262404167,1.486691083591042,1.423859593412526,-0.0711772067747035,0.08652941137552261,-0.2294676899909973,-0.07638659328222275,-0.04761618375778198,-0.008430242538452148,-0.01880466938018799,2,-0.4616735820366994,0.4624268283234582,0.4949351400115217,0.5727636549048133,0.9867194890975952,0.07111712545156479,-0.1460378617048264,63.58174896240234,-1.514139175415039,15.97543334960938,2,11144.23239154167,1,2,1580907428.473558,1580903939.50652,2377,0.4626901,0,0,2938.329,10,11,1580907321.19788,11142.107746,0,13.98843,97.04071
1580907429.378858,108,0,1580907286.99823,41.20781296037784,29.0754925099451,275.2123,0.1345286,-1,23.46983528137207,200,-9999,11145.14769904167,0.998931884765625,0.056640625,-0.1357879638671875,11145.14266404167,1.485827381826924,1.420814675847634,-0.07212546228006665,0.07009977847337723,-0.302204042673111,-0.109215036034584,-0.007501840591430664,-0.01278141140937805,0.01045751571655273,2,-0.4609772639601373,0.4615021256382613,0.495153429114586,0.5738804342970575,0.9862030148506165,0.07206294685602188,-0.1490315049886703,63.56304168701172,-1.337320327758789,15.68722534179688,2,11144.23239154167,1,2,1580907428.473558,1580903939.50652,2377,0.4626901,0,0,2938.329,10,11,1580907321.19788,11142.107746,0,13.98843,97.04071
1580907429.380378,109,0,1580907286.99823,41.20781296037784,29.0754925099451,275.2123,0.1345286,-1,23.46983528137207,200,-9999,11145.15774004167,0.9803009033203125,0.06658935546875,-0.1602783203125,11145.15270404167,1.48519521727668,1.417630200375917,-0.07310453339121753,0.04364553093910217,-0.3172546327114105,-0.1085319295525551,0.0128401517868042,-0.01562210917472839,0.01992738246917725,2,-0.4603084359524066,0.460473582141987,0.4954614212851144,0.5749766735679456,0.985653281211853,0.07303943485021591,-0.1521604508161545,63.56304168701172,-1.337320327758789,15.68722534179688,2,11144.23239154167,1,2,1580907428.473558,1580903939.50652,2377,0.4626901,0,0,2938.329,10,11,1580907321.19788,11142.107746,0,13.98843,97.04071
1580907429.381569,110,0,1580907286.99823,41.20781296037784,29.0754925099451,275.2123,0.1345286,-1,23.46983528137207,200,-9999,11145.16778004167,0.9592437744140625,0.08404541015625,-0.178985595703125,11145.16274504167,1.484619548008735,1.414849382852599,-0.07384201745494164,0.0461585707962513,-0.2742004692554474,-0.07903984934091568,-0.0004873275756835938,-0.0138266384601593,-0.0008012056350708008,2,-0.45968721044055,0.4596101449572103,0.4957518208219746,0.5759134151262855,0.9851728677749634,0.07377492636442184,-0.1548923701047897,63.59365081787109,-1.046945571899414,15.45626831054688,2,11144.23239154167,1,2,1580907428.473558,1580903939.50652,2377,0.4626901,0,0,2938.329,10,11,1580907321.19788,11142.107746,0,13.98843,97.04071
1580907429.385458,111,0,1580907286.99823,41.20781296037784,29.0754925099451,275.2123,0.1345286,-1,23.46983528137207,200,-9999,11145.17785104167,0.9571380615234375,0.072357177734375,-0.1823883056640625,11145.17278504167,1.484117156828853,1.412667287093646,-0.07454959418038294,0.03914913162589073,-0.2151893377304077,-0.08101671189069748,-0.02318072319030762,0.007591038942337036,-0.01995557546615601,2,-0.4592232457307565,0.4589087886438062,0.4959323613404189,0.5766868329823152,0.9847806692123413,0.0744805634021759,-0.1570334732532501,63.59365081787109,-1.046945571899414,15.45626831054688,2,11144.23239154167,1,2,1580907428.473558,1580903939.50652,2377,0.4626901,0,0,2938.329,10,11,1580907321.19788,11142.107746,0,13.98843,97.04071
1580907429.395508,112,0,1580907286.99823,41.20781296037784,29.0754925099451,275.2123,0.1345286,-1,23.46983528137207,200,-9999,11145.18789104167,0.9557647705078125,0.0782470703125,-0.185211181640625,11145.18282504167,1.483815859930732,1.4111300668683,-0.07506009795836337,0.01988484337925911,-0.1542694121599197,-0.05306373536586761,-0.03165805339813232,0.0007939040660858154,-0.02633243799209595,2,-0.4589117750652735,0.4583987905861479,0.4960714322329161,0.5772206708292926,0.9845005869865417,0.07498963922262192,-0.1585410684347153,63.69005584716797,-0.8531169891357422,15.17938232421875,2,11144.23239154167,1,2,1580907428.473558,1580903939.50652,2377,0.4626901,0,0,2938.329,10,11,1580907321.19788,11142.107746,0,13.98843,97.04071
1580907429.405538,113,0,1580907286.99823,41.20781296037784,29.0754925099451,275.2123,0.1345286,-1,23.46983528137207,200,-9999,11145.19793104167,0.932403564453125,0.0787200927734375,-0.1959686279296875,11145.19286504167,1.483499920963267,1.410476924860877,-0.07557424726708326,0.02212243154644966,-0.06301220506429672,-0.0566486194729805,-0.02763992547988892,-0.001246005296707153,-0.02613633871078491,2,-0.4588173611880021,0.4581459348916318,0.4960022927648169,0.5775557345110212,0.984358549118042,0.07550232857465744,-0.1591778695583344,63.69005584716797,-0.8531169891357422,15.17938232421875,2,11144.23239154167,1,2,1580907428.473558,1580903939.50652,2377,0.4626901,0,0,2938.329,10,11,1580907321.19788,11142.107746,0,13.98843,97.04071
1580907429.434227,114,0,1580907286.99823,41.20781296037784,29.0754925099451,275.2123,0.1345286,-1,23.46983528137207,200,-9999,11145.20797204167,0.9433441162109375,0.0740966796875,-0.1900177001953125,11145.20290604167,1.48309923394212,1.410780577186154,-0.07614941809376966,0.02762823551893234,0.03818608075380325,-0.06258176267147064,-0.04856503009796143,0.004709601402282715,-0.03657495975494385,2,-0.4589574203630836,0.4581725470809015,0.4956739183005341,0.5777052338676762,0.9843637943267822,0.07607584446668625,-0.1588720083236694,63.54007720947266,-1.013116836547852,15.01754760742188,2,11144.23239154167,1,2,1580907428.473558,1580903939.50652,2377,0.4626901,0,0,2938.329,10,11,1580907321.19788,11142.107746,0,13.98843,97.04071
1580907429.435672,115,0,1580907286.99823,41.20781296037784,29.0754925099451,275.2123,0.1345286,-1,23.46983528137207,200,-9999,11145.21801204167,0.974609375,0.0771331787109375,-0.1652679443359375,11145.21297704167,1.482602013916739,1.411438204958469,-0.07673019451095406,0.04050834849476814,0.07276962697505951,-0.06309948116540909,-0.05213522911071777,-0.003408879041671753,-0.03861963748931885,2,-0.4591644461720672,0.4583221712134844,0.4952348712671175,0.5777986211919932,0.984424352645874,0.07665492594242096,-0.1582175940275192,63.54007720947266,-1.013116836547852,15.01754760742188,2,11144.23239154167,1,2,1580907428.473558,1580903939.50652,2377,0.4626901,0,0,2938.329,10,11,1580907321.19788,11142.107746,0,13.98843,97.04071
1580907429.436711,116,0,1580907286.99823,41.20781296037784,29.0754925099451,275.2123,0.1345286,-1,23.46983528137207,200,-9999,11145.22805204167,0.972869873046875,0.0725250244140625,-0.1591033935546875,11145.22301704167,1.482126415340718,1.411992493021603,-0.07738405958036267,0.03730691969394684,0.05815005302429199,-0.07323550432920456,-0.01944327354431152,0.0001488327980041504,-0.01689726114273071,2,-0.4593705500829018,0.4584176300779889,0.4948073592559866,0.5779252539048162,0.9844620823860168,0.07730685174465179,-0.1576639413833618,63.72580718994141,-0.7923679351806641,15.09829711914062,2,11144.23239154167,1,2,1580907428.473558,1580903939.50652,2377,0.4626901,0,0,2938.329,10,11,1580907321.19788,11142.107746,0,13.98843,97.04071
1580907429.445561,117,0,1580907286.99823,41.20781296037784,29.0754925099451,275.2123,0.1345286,-1,23.46983528137207,200,-9999,11145.23809204167,0.9690704345703125,0.0771942138671875,-0.1589508056640625,11145.23305704167,1.481727882608988,1.412398684623942,-0.07804426633696482,0.02816402167081833,0.04499910026788712,-0.07052920013666153,-0.01150703430175781,-0.00498199462890625,-0.003375232219696045,2,-0.4595592231968111,0.45845101807542,0.4944343631402082,0.5780679738480949,0.9844754338264465,0.07796506583690643,-0.1572559624910355,63.72580718994141,-0.7923679351806641,15.09829711914062,2,11144.23239154167,1,2,1580907428.473558,1580903939.50652,2377,0.4626901,0,0,2938.329,10,11,1580907321.19788,11142.107746,0,13.98843,97.04071
1580907429.455734,118,0,1580907286.99823,41.20781296037784,29.0754925099451,275.2123,0.1345286,-1,23.46983528137207,200,-9999,11145.24813304167,0.968017578125,0.078857421875,-0.1581878662109375,11145.24309704167,1.481385881902529,1.41255918830747,-0.0787236345689674,0.02168975584208965,0.01704552583396435,-0.07279273122549057,-0.01814800500869751,-0.003219783306121826,-0.005480051040649414,2,-0.4597052224466776,0.4583953746184503,0.4941292334176342,0.5782569243780177,0.9844481945037842,0.0786423459649086,-0.157089576125145,63.66751861572266,-0.5057277679443359,15.33258056640625,2,11144.23239154167,1,2,1580907428.473558,1580903939.50652,2377,0.4626901,0,0,2938.329,10,11,1580907321.19788,11142.107746,0,13.98843,97.04071
1580907429.465742,119,0,1580907286.99823,41.20781296037784,29.0754925099451,275.2123,0.1345286,-1,23.46983528137207,200,-9999,11145.25820404167,0.9604949951171875,0.0837249755859375,-0.16717529296875,11145.25313804167,1.481131428179684,1.412684198596061,-0.07930197259544053,0.01385020837187767,0.01261855103075504,-0.05928251892328262,-0.01796990633010864,-0.0008834302425384521,-0.00243687629699707,2,-0.4598350068830736,0.4583362329443662,0.4938826528774682,0.5784112790014037,0.9844227433204651,0.07921887934207916,-0.1569593250751495,63.63967132568359,-0.5261707305908203,15.33941650390625,2,11144.23239154167,1,2,1580907428.473558,1580903939.50652,2377,0.4626901,0,0,2938.329,10,11,1580907321.19788,11142.107746,0,13.98843,97.04071
1580907429.490921,120,0,1580907286.99823,41.20781296037784,29.0754925099451,275.2123,0.1345286,-1,23.46983528137207,200,-9999,11145.26824404167,0.956451416015625,0.0828704833984375,-0.167510986328125,11145.26317804167,1.480868273315749,1.412947469223064,-0.07981121019843185,0.01911810040473938,0.03005413897335529,-0.05562818795442581,-0.02390706539154053,0.001766055822372437,-0.009936153888702393,2,-0.4599781697534957,0.4583374318367759,0.4936188630711205,0.5785214881474056,0.9844239354133606,0.07972650974988937,-0.1566937565803528,63.63967132568359,-0.5261707305908203,15.33941650390625,2,11144.23239154167,1,2,1580907428.473558,1580903939.50652,2377,0.4626901,0,0,2938.329,10,11,1580907321.19788,11142.107746,0,13.98843,97.04071
1580907429.492246,121,0,1580907286.99823,41.20781296037784,29.0754925099451,275.2123,0.1345286,-1,23.46983528137207,200,-9999,11145.27828404167,0.9648895263671875,0.08563232421875,-0.1604461669921875,11145.27321804167,1.480664716702781,1.413218313069547,-0.08018117648816384,0.01448207069188356,0.02919393591582775,-0.03931579738855362,-0.03115296363830566,0.003776639699935913,-0.0150604248046875,2,-0.4600988879018984,0.458364227010356,0.4934053078982563,0.5785864613063724,0.9844371676445007,0.08009529113769531,-0.15642249584198,63.69750213623047,-0.4161128997802734,15.23629760742188,2,11144.23239154167,1,2,1580907428.473558,1580903939.50652,2377,0.4626901,0,0,2938.329,10,11,1580907321.19788,11142.107746,0,13.98843,97.04071
1580907429.495915,122,0,1580907286.99823,41.20781296037784,29.0754925099451,275.2123,0.1345286,-1,23.46983528137207,200,-9999,11145.28832404167,0.964080810546875,0.087249755859375,-0.161651611328125,11145.28325904167,1.480551567973871,1.413403058878611,-0.08035239074845077,0.008899474516510963,0.0178499985486269,-0.0178203284740448,-0.02482068538665771,0.003285139799118042,-0.008042812347412109,2,-0.4601650552984909,0.4583981750260882,0.4932873020091892,0.5786075502441868,0.9844524264335632,0.08026595413684845,-0.156238466501236,63.69750213623047,-0.4161128997802734,15.23629760742188,2,11144.23239154167,1,2,1580907428.473558,1580903939.50652,2377,0.4626901,0,0,2938.329,10,11,1580907321.19788,11142.107746,0,13.98843,97.04071
1580907429.506067,123,0,1580907286.99823,41.20781296037784,29.0754925099451,275.2123,0.1345286,-1,23.46983528137207,200,-9999,11145.298339,0.954010009765625,0.0812225341796875,-0.1699676513671875,11145.293303,1.480488378731732,1.413688490406646,-0.08043352323732239,0.00557132251560688,0.02770395763218403,-0.01012272667139769,-0.02104425430297852,0.00721701979637146,-0.006723284721374512,2,-0.460242963064209,0.4584737492703038,0.4931831079376889,0.5785746692886304,0.984490692615509,0.08034682273864746,-0.1559564769268036,63.76860809326172,-0.4308910369873047,15.375732421875,2,11144.23239154167,1,2,1580907428.473558,1580903939.50652,2377,0.4626901,0,0,2938.329,10,11,1580907321.19788,11142.107746,0,13.98843,97.04071
1580907429.515942,124,0,1580907286.99823,41.20781296037784,29.0754925099451,275.2123,0.1345286,-1,23.46983528137207,200,-9999,11145.308379,0.95916748046875,0.079345703125,-0.16845703125,11145.303344,1.480486082562342,1.414173978302043,-0.08045505321037352,0.0001996448263525963,0.04929640889167786,-0.002094861585646868,-0.0308687686920166,0.002663701772689819,-0.01402366161346436,2,-0.4603679716616745,0.4586089986894237,0.4930653399260401,0.5784684425780131,0.9845646619796753,0.0803682804107666,-0.1554782390594482,63.76860809326172,-0.4308910369873047,15.375732421875,2,11144.23239154167,1,2,1580907428.473558,1580903939.50652,2377,0.4626901,0,0,2938.329,10,11,1580907321.19788,11142.107746,0,13.98843,97.04071
1580907429.526067,125,0,1580907286.99823,41.20781296037784,29.0754925099451,275.2123,0.1345286,-1,23.46983528137207,200,-9999,11145.318419,0.968292236328125,0.079559326171875,-0.161834716796875,11145.313384,1.480553875778298,1.414713168996972,-0.08043954362725873,-0.007305143401026726,0.05368582904338837,0.003061817027628422,-0.03151857852935791,-0.001700073480606079,-0.01794326305389404,2,-0.4605122271919754,0.4587534429163038,0.4929646857620494,0.5783248373011679,0.9846495389938354,0.08035282045602798,-0.1549475342035294,63.72626495361328,-0.4475421905517578,15.608642578125,2,11144.23239154167,1,2,1580907428.473558,1580903939.50652,2377,0.4626901,0,0,2938.329,10,11,1580907321.19788,11142.107746,0,13.98843,97.04071
1580907429.555048,126,0,1580907286.99823,41.20781296037784,29.0754925099451,275.2123,0.1345286,-1,23.46983528137207,200,-9999,11145.32846,0.9697723388671875,0.080810546875,-0.1599884033203125,11145.323424,1.480687486073661,1.415233966350262,-0.08037311049354449,-0.01403794344514608,0.05004331097006798,0.008856667205691338,-0.0211370587348938,-0.0005350708961486816,-0.01104080677032471,2,-0.4606532040472764,0.4588908995369715,0.4928999871694314,0.5781586211520694,0.984735369682312,0.08028660714626312,-0.1544355303049088,63.72626495361328,-0.4475421905517578,15.608642578125,2,11144.23239154167,1,2,1580907428.473558,1580903939.50652,2377,0.4626901,0,0,2938.329,10,11,1580907321.19788,11142.107746,0,13.98843,97.04071
1580907429.556649,127,0,1580907286.99823,41.20781296037784,29.0754925099451,275.2123,0.1345286,-1,23.46983528137207,200,-9999,11145.33853,0.9642181396484375,0.0827178955078125,-0.1605377197265625,11145.333464,1.48085484185336,1.415728117309548,-0.08020466633268292,-0.01203497964888811,0.04645204171538353,0.01905311085283756,-0.01721388101577759,-0.0005650520324707031,-0.008688807487487793,2,-0.4607676927253703,0.4590399126645785,0.4928766296507161,0.5779689011525941,0.9848248362541199,0.08011870086193085,-0.1539509892463684,63.58965301513672,-0.5399532318115234,15.71841430664062,2,11144.23239154167,1,2,1580907428.473558,1580903939.50652,2377,0.4626901,0,0,2938.329,10,11,1580907321.19788,11142.107746,0,13.98843,97.04071
1580907429.557816,128,0,1580907286.99823,41.20781296037784,29.0754925099451,275.2123,0.1345286,-1,23.46983528137207,200,-9999,11145.348571,0.96136474609375,0.08209228515625,-0.1656036376953125,11145.343505,1.481074504936182,1.416313127100846,-0.07992996003751704,-0.01835593581199646,0.05749548599123955,0.03175881132483482,-0.02132374048233032,0.002730727195739746,-0.008561253547668457,2,-0.4608877383496888,0.459231301556137,0.4928740034251946,0.5777233518060401,0.9849364757537842,0.0798448771238327,-0.1533782035112381,63.58965301513672,-0.5399532318115234,15.71841430664062,2,11144.23239154167,1,2,1580907428.473558,1580903939.50652,2377,0.4626901,0,0,2938.329,10,11,1580907321.19788,11142.107746,0,13.98843,97.04071
1580907429.56618,129,0,1580907286.99823,41.20781296037784,29.0754925099451,275.2123,0.1345286,-1,23.46983528137207,200,-9999,11145.358611,0.97589111328125,0.0814361572265625,-0.1550445556640625,11145.353545,1.481278029473656,1.41687907617665,-0.07959865081768164,-0.01476572826504707,0.05734528973698616,0.03686808794736862,-0.02734202146530151,0.002390503883361816,-0.01425850391387939,2,-0.4609840696949188,0.459435832021916,0.4928852080827927,0.5774742646527443,0.9850491881370544,0.07951462268829346,-0.152824804186821,63.65323638916016,-0.2716007232666016,15.83270263671875,2,11144.23239154167,1,2,1580907428.473558,1580903939.50652,2377,0.4626901,0,0,2938.329,10,11,1580907321.19788,11142.107746,0,13.98843,97.04071
1580907429.576348,130,0,1580907286.99823,41.20781296037784,29.0754925099451,275.2123,0.1345286,-1,23.46983528137207,200,-9999,11145.368651,0.9768829345703125,0.0781402587890625,-0.151641845703125,11145.363585,1.481545018233854,1.417187066952374,-0.07922091411344896,-0.02129336446523666,0.02636823989450932,0.04175396636128426,-0.01663082838058472,0.002523899078369141,-0.009491980075836182,2,-0.4610188219252229,0.4595635294260888,0.4929857870350079,0.5772591343714234,0.9851259589195251,0.07913807779550552,-0.1525260210037231,63.65323638916016,-0.2716007232666016,15.83270263671875,2,11144.23239154167,1,2,1580907428.473558,1580903939.50652,2377,0.4626901,0,0,2938.329,10,11,1580907321.19788,11142.107746,0,13.98843,97.04071
1580907429.586279,131,0,1580907286.99823,41.20781296037784,29.0754925099451,275.2123,0.1345286,-1,23.46983528137207,200,-9999,11145.378691,0.9681854248046875,0.0772857666015625,-0.15869140625,11145.373656,1.481858925281601,1.417426408196275,-0.07878743049397061,-0.02407237328588963,0.02208747155964375,0.04807044938206673,-0.008476912975311279,0.0003327429294586182,0.000133812427520752,2,-0.461032430114479,0.4596752972333293,0.4931295629707962,0.5770363062058818,0.9851961135864258,0.07870594412088394,-0.1522954404354095,63.70781707763672,-0.3806781768798828,15.69607543945312,2,11144.23239154167,1,2,1580907428.473558,1580903939.50652,2377,0.4626901,0,0,2938.329,10,11,1580907321.19788,11142.107746,0,13.98843,97.04071
1580907429.617525,132,0,1580907286.99823,41.20781296037784,29.0754925099451,275.2123,0.1345286,-1,23.46983528137207,200,-9999,11145.388732,0.9703826904296875,0.0764923095703125,-0.1558685302734375,11145.383696,1.482225949372638,1.417603888312071,-0.07834513659016724,-0.02952383831143379,0.01590128615498543,0.04948596283793449,-0.01844149827957153,-0.001422315835952759,-0.008321762084960938,2,-0.4610405746661375,0.4597593279568455,0.4933051167124308,0.5768128682440754,0.9852575659751892,0.07826501131057739,-0.1521258950233459,63.70781707763672,-0.3806781768798828,15.69607543945312,2,11144.23239154167,1,2,1580907428.473558,1580903939.50652,2377,0.4626901,0,0,2938.329,10,11,1580907321.19788,11142.107746,0,13.98843,97.04071
1580907429.618835,133,0,1580907286.99823,41.20781296037784,29.0754925099451,275.2123,0.1345286,-1,23.46983528137207,200,-9999,11145.398772,0.9701690673828125,0.0746002197265625,-0.1583404541015625,11145.393737,1.482652410306949,1.417740839492607,-0.07791591798763105,-0.03635591268539429,0.01140906661748886,0.04868941381573677,-0.01852607727050781,-0.0007186532020568848,-0.006880283355712891,2,-0.4610560204905264,0.4598144345191553,0.4935037697562878,0.5765865702153438,0.9853114485740662,0.07783710211515427,-0.151996061205864,63.77689361572266,-0.5127696990966797,15.69155883789062,2,11144.23239154167,1,2,1580907428.473558,1580903939.50652,2377,0.4626901,0,0,2938.329,10,11,1580907321.19788,11142.107746,0,13.98843,97.04071
1580907429.619857,134,0,1580907286.99823,41.20781296037784,29.0754925099451,275.2123,0.1345286,-1,23.46983528137207,200,-9999,11145.408812,0.96820068359375,0.0763702392578125,-0.162750244140625,11145.403777,1.483105113067235,1.417956462728217,-0.07750836752040763,-0.03886941075325012,0.01849655620753765,0.04762185364961624,-0.01781225204467773,-0.002844184637069702,-0.007378637790679932,2,-0.4611028317675421,0.4598803890491723,0.4936863513551937,0.5763401252483114,0.9853754043579102,0.07743078470230103,-0.1517884135246277,63.77689361572266,-0.5127696990966797,15.69155883789062,2,11144.23239154167,1,2,1580907428.473558,1580903939.50652,2377,0.4626901,0,0,2938.329,10,11,1580907321.19788,11142.107746,0,13.98843,97.04071
1580907429.626488,135,0,1580907286.99823,41.20781296037784,29.0754925099451,275.2123,0.1345286,-1,23.46983528137207,200,-9999,11145.418883,0.9624786376953125,0.073394775390625,-0.1623077392578125,11145.413817,1.483608850644018,1.418323029422393,-0.07713035777618527,-0.04337867721915245,0.03376498818397522,0.04636271297931671,-0.01908719539642334,-0.001260876655578613,-0.01268047094345093,2,-0.4612067176981245,0.459970166130797,0.4938413552337985,0.5760524127421798,0.9854597449302673,0.07705390453338623,-0.1514316201210022,63.56859588623047,-0.5035457611083984,15.7813720703125,2,11144.23239154167,1,2,1580907428.473558,1580903939.50652,2377,0.4626901,0,0,2938.329,10,11,1580907321.19788,11142.107746,0,13.98843,97.04071
1580907429.636474,136,0,1580907286.99823,41.20781296037784,29.0754925099451,275.2123,0.1345286,-1,23.46983528137207,200,-9999,11145.428923,0.9634857177734375,0.0756683349609375,-0.1603240966796875,11145.423858,1.484161211979256,1.418807404461418,-0.07683647247142857,-0.05058461055159569,0.044447872787714,0.03795909881591797,-0.02421867847442627,-0.00258442759513855,-0.01407122611999512,2,-0.4613736876690866,0.460060281805136,0.4939621202046786,0.5757432731268292,0.9855554699897766,0.07676088809967041,-0.1509577184915543,63.56859588623047,-0.5035457611083984,15.7813720703125,2,11144.23239154167,1,2,1580907428.473558,1580903939.50652,2377,0.4626901,0,0,2938.329,10,11,1580907321.19788,11142.107746,0,13.98843,97.04071
1580907429.64652,137,0,1580907286.99823,41.20781296037784,29.0754925099451,275.2123,0.1345286,-1,23.46983528137207,200,-9999,11145.438964,0.967803955078125,0.071258544921875,-0.15869140625,11145.433898,1.484672222208422,1.419371224701976,-0.07674620173537292,-0.04873824119567871,0.0527084656059742,0.01661865599453449,-0.02614176273345947,-0.002524703741073608,-0.01285731792449951,2,-0.4616060420941766,0.4601286023183689,0.4940016401192694,0.575468478494974,0.9856473207473755,0.07667088508605957,-0.1504030674695969,63.63367462158203,-0.7814617156982422,15.76092529296875,2,11144.23239154167,1,2,1580907428.473558,1580903939.50652,2377,0.4626901,0,0,2938.329,10,11,1580907321.19788,11142.107746,0,13.98843,97.04071
1580907429.675142,138,0,1580907286.99823,41.20781296037784,29.0754925099451,275.2123,0.1345286,-1,23.46983528137207,200,-9999,11145.449004,0.9729156494140625,0.0640869140625,-0.1592559814453125,11145.443938,1.485136603282929,1.420018644263698,-0.07696284988279561,-0.04865178465843201,0.06116398423910141,-0.01561067067086697,-0.02198076248168945,-0.002802401781082153,-0.01153159141540527,2,-0.4619314874825329,0.4601500943903282,0.4939316059810959,0.575250073070727,0.985727846622467,0.07688689231872559,-0.1497623771429062,63.63367462158203,-0.7814617156982422,15.76092529296875,2,11144.23239154167,1,2,1580907428.473558,1580903939.50652,2377,0.4626901,0,0,2938.329,10,11,1580907321.19788,11142.107746,0,13.98843,97.04071
1580907429.676402,139,0,1580907286.99823,41.20781296037784,29.0754925099451,275.2123,0.1345286,-1,23.46983528137207,200,-9999,11145.459044,0.9803314208984375,0.07037353515625,-0.157440185546875,11145.454009,1.48555948861723,1.420702763392541,-0.07743508481647536,-0.04787041246891022,0.06562317907810211,-0.03959110379219055,-0.01730179786682129,-0.01313167810440063,-0.01212179660797119,2,-0.4623254676383578,0.4601237719448265,0.4937771647956401,0.5750872301265341,0.9857941269874573,0.07735772430896759,-0.1490825563669205,63.77803802490234,-0.8599720001220703,15.86624145507812,2,11144.23239154167,1,2,1580907428.473558,1580903939.50652,2377,0.4626901,0,0,2938.329,10,11,1580907321.19788,11142.107746,0,13.98843,97.04071
1580907429.677431,140,0,1580907286.99823,41.20781296037784,29.0754925099451,275.2123,0.1345286,-1,23.46983528137207,200,-9999,11145.469085,0.9849700927734375,0.0704498291015625,-0.1513671875,11145.464049,1.485903657744838,1.421261922393292,-0.07818779403345905,-0.04340840503573418,0.05443846434354782,-0.0686483308672905,-0.01082706451416016,-0.009825378656387329,-0.0125458836555481,2,-0.4627461408966591,0.4600051130763109,0.4935586700242603,0.5750314592923181,0.9858195781707764,0.07810815423727036,-0.1485226154327393,63.77803802490234,-0.8599720001220703,15.86624145507812,2,11144.23239154167,1,2,1580907428.473558,1580903939.50652,2377,0.4626901,0,0,2938.329,10,11,1580907321.19788,11143.053338,0,13.98843,97.04071
1580907429.686856,141,0,1580907286.99823,41.20781296037784,29.0754925099451,275.2123,0.1345286,-1,23.46983528137207,200,-9999,11145.479125,0.98370361328125,0.0732574462890625,-0.149810791015625,11145.474089,1.486214605695064,1.421599834357438,-0.07918330390252792,-0.04489791393280029,0.03111103922128677,-0.0947483703494072,-0.004131436347961426,-0.008211255073547363,-0.007047295570373535,2,-0.4631699694001424,0.4597658697596764,0.4933208688156248,0.5750856221076884,0.9857922792434692,0.0791005864739418,-0.1481778472661972,63.77246856689453,-0.6657619476318359,16.07696533203125,2,11144.23239154167,1,2,1580907428.473558,1580903939.50652,2377,0.4626901,0,0,2938.329,10,11,1580907321.19788,11143.053338,0,13.98843,97.04071
1580907429.696716,142,0,1580907286.99823,41.20781296037784,29.0754925099451,275.2123,0.1345286,-1,23.46983528137207,200,-9999,11145.489165,0.9750213623046875,0.086090087890625,-0.151031494140625,11145.48413,1.486510251447301,1.42179238441592,-0.08021204965656446,-0.04430555179715157,0.01517251133918762,-0.09671930223703384,-0.003971755504608154,-0.009514123201370239,-0.004304647445678711,2,-0.4635631226132915,0.4594793700419743,0.4931038549585128,0.5751839770033419,0.9857398867607117,0.08012606203556061,-0.1479758769273758,63.77246856689453,-0.6657619476318359,16.07696533203125,2,11144.23239154167,1,2,1580907428.473558,1580903939.50652,2377,0.4626901,0,0,2938.329,10,11,1580907321.19788,11143.053338,0,13.98843,97.04071
1580907429.706779,143,0,1580907286.99823,41.20781296037784,29.0754925099451,275.2123,0.1345286,-1,23.46983528137207,200,-9999,11145.499236,0.9645233154296875,0.0882110595703125,-0.1548614501953125,11145.49417,1.48672260897129,1.421977951762887,-0.08120326062032437,-0.03444839641451836,0.01617172732949257,-0.09475921839475632,-0.00991666316986084,0.0009698271751403809,-0.004789888858795166,2,-0.4639250943440881,0.4592199459361663,0.4928737248089767,0.5752964703736151,0.9856882095336914,0.08111404627561569,-0.1477810889482498,63.80373382568359,-0.5569057464599609,15.96923828125,2,11144.23239154167,1,2,1580907428.473558,1580903939.50652,2377,0.4626901,0,0,2938.329,10,11,1580907321.19788,11143.053338,0,13.98843,97.04071
1580907429.735266,144,0,1580907286.99823,41.20781296037784,29.0754925099451,275.2123,0.1345286,-1,23.46983528137207,200,-9999,11145.509276,0.9517822265625,0.089630126953125,-0.1567230224609375,11145.50421,1.486915836402036,1.422248730473096,-0.08206181512769041,-0.03215313702821732,0.02381263673305511,-0.08423152565956116,-0.0205838680267334,0.007008731365203857,-0.008852064609527588,2,-0.4642676419741915,0.4590246584963381,0.4926514418599455,0.5753664641926295,0.9856590628623962,0.08196974545717239,-0.1475038379430771,63.80373382568359,-0.5569057464599609,15.96923828125,2,11144.23239154167,1,2,1580907428.473558,1580903939.50652,2377,0.4626901,0,0,2938.329,10,11,1580907321.19788,11143.053338,0,13.98843,97.04071
1580907429.736508,145,0,1580907286.99823,41.20781296037784,29.0754925099451,275.2123,0.1345286,-1,23.46983528137207,200,-9999,11145.519316,0.939178466796875,0.1002197265625,-0.16131591796875,11145.514251,1.487079305328671,1.42278766916277,-0.08257819652989261,-0.02526460587978363,0.05231485143303871,-0.04651530832052231,-0.03278261423110962,0.004707396030426025,-0.01103925704956055,2,-0.464577089332472,0.4590043199505817,0.4924438749943444,0.575310449446932,0.9856962561607361,0.08248437941074371,-0.1469663232564926,63.76323699951172,-0.6818332672119141,15.9178466796875,2,11144.23239154167,1,2,1580907428.473558,1580903939.50652,2377,0.4626901,0,0,2938.329,10,11,1580907321.19788,11143.053338,0,13.98843,97.04071
1580907429.737838,146,0,1580907286.99823,41.20781296037784,29.0754925099451,275.2123,0.1345286,-1,23.46983528137207,200,-9999,11145.529357,0.947662353515625,0.0915069580078125,-0.1578521728515625,11145.524291,1.48710538846576,1.423575285999976,-0.08291624872552829,-0.007210459560155869,0.07981361448764801,-0.03217457979917526,-0.04622220993041992,0.01491338014602661,-0.01639938354492188,2,-0.4648679647131795,0.4591348940325325,0.4921836353068282,0.5751941140420691,0.9857841730117798,0.08282127231359482,-0.1461858451366425,63.76323699951172,-0.6818332672119141,15.9178466796875,2,11144.23239154167,1,2,1580907428.473558,1580903939.50652,2377,0.4626901,0,0,2938.329,10,11,1580907321.19788,11143.053338,0,13.98843,97.04071
1580907429.746918,147,0,1580907286.99823,41.20781296037784,29.0754925099451,275.2123,0.1345286,-1,23.46983528137207,200,-9999,11145.539397,0.9677581787109375,0.0798187255859375,-0.1524505615234375,11145.534362,1.487064675374004,1.424434834830072,-0.08329557203550722,-0.0005677370354533195,0.08769418299198151,-0.03726600855588913,-0.04634732007980347,0.01274904608726501,-0.01671993732452393,2,-0.4651722165686779,0.4592906249229169,0.4918768841356693,0.5750861184585954,0.9858782291412354,0.08319928497076035,-0.145333856344223,63.64969635009766,-0.6119823455810547,16.09619140625,2,11144.23239154167,1,2,1580907428.473558,1580903939.50652,2377,0.4626901,0,0,2938.329,10,11,1580907321.19788,11143.053338,0,13.98843,97.04071
1580907429.757074,148,0,1580907286.99823,41.20781296037784,29.0754925099451,275.2123,0.1345286,-1,23.46983528137207,200,-9999,11145.549437,0.9837799072265625,0.0750579833984375,-0.1483612060546875,11145.544402,1.487018159877256,1.425223146774286,-0.08387809121201391,-0.003171746153384447,0.07895466685295105,-0.05714161694049835,-0.02621114253997803,-0.00173380970954895,-0.01146417856216431,2,-0.465512087554725,0.4593731712038815,0.4915338225426659,0.5750384224375341,0.9859443306922913,0.08377977460622787,-0.1445495784282684,63.64969635009766,-0.6119823455810547,16.09619140625,2,11144.23239154167,1,2,1580907428.473558,1580903939.50652,2377,0.4626901,0,0,2938.329,10,11,1580907321.19788,11143.053338,0,13.98843,97.04071
1580907429.766925,149,0,1580907286.99823,41.20781296037784,29.0754925099451,275.2123,0.1345286,-1,23.46983528137207,200,-9999,11145.559478,0.9972991943359375,0.0714874267578125,-0.1426849365234375,11145.554442,1.486964647622816,1.425868102745612,-0.08482579545153494,-0.008631225675344467,0.06731718778610229,-0.09349855035543442,-0.009379386901855469,-0.008524805307388306,-0.008145928382873535,2,-0.4659130247212653,0.4593190470680341,0.4911301518848952,0.5751019441049615,0.9859583973884583,0.08472410589456558,-0.1439021378755569,63.91455841064453,-0.6526660919189453,16.19778442382812,2,11144.23239154167,1,2,1580907428.473558,1580903939.50652,2377,0.4626901,0,0,2938.329,10,11,1580907321.19788,11143.053338,0,13.98843,97.04071
1580907429.794978,150,0,1580907286.99823,41.20781296037784,29.0754925099451,275.2123,0.1345286,-1,23.46983528137207,200,-9999,11145.569518,1.014923095703125,0.0744781494140625,-0.13433837890625,11145.564483,1.486843656534352,1.426124370779323,-0.08625956106180326,-0.008624332025647163,0.02759968116879463,-0.143013209104538,0.004499197006225586,-0.01442804932594299,-0.003610312938690186,2,-0.4663333807430413,0.4590395169144826,0.490675065723176,0.5753728353846087,0.9858740568161011,0.08615262806415558,-0.1436318010091782,63.91455841064453,-0.6526660919189453,16.19778442382812,2,11144.23239154167,1,2,1580907428.473558,1580903939.50652,2377,0.4626901,0,0,2938.329,10,11,1580907321.19788,11143.053338,0,13.98843,97.04071
1580907429.796189,151,0,1580907286.99823,41.20781296037784,29.0754925099451,275.2123,0.1345286,-1,23.46983528137207,200,-9999,11145.579589,1.024734497070312,0.0747222900390625,-0.1279754638671875,11145.574523,1.486638733048568,1.425818175291575,-0.08820978858168031,-0.007151070982217789,-0.02964549697935581,-0.196337953209877,0.02132868766784668,-0.01520130038261414,0.004724264144897461,2,-0.4667349592331347,0.4584800104163612,0.4901966349146046,0.5759008898952211,0.9856619238853455,0.08809544146060944,-0.1439091116189957,63.81557464599609,-0.3290615081787109,16.05938720703125,2,11144.23239154167,1,2,1580907428.473558,1580903939.50652,2377,0.4626901,0,0,2938.329,10,11,1580907321.19788,11143.053338,0,13.98843,97.04071
1580907429.797295,152,0,1580907286.99823,41.20781296037784,29.0754925099451,275.2123,0.1345286,-1,23.46983528137207,200,-9999,11145.589629,1.025680541992188,0.08233642578125,-0.1212310791015625,11145.584563,1.486315382806835,1.42487740403647,-0.09059250398720696,-0.001379141584038734,-0.09235484153032303,-0.2429765462875366,0.03478336334228516,-0.01517003774642944,0.0127032995223999,2,-0.4670698787992436,0.4576494537381544,0.4897228700429323,0.5766925589954879,0.9853156805038452,0.0904686376452446,-0.1448054164648056,63.81557464599609,-0.3290615081787109,16.05938720703125,2,11144.23239154167,1,2,1580907428.473558,1580903939.50652,2377,0.4626901,0,0,2938.329,10,11,1580907321.19788,11143.053338,0,13.98843,97.04071
1580907429.807304,153,0,1580907286.99823,41.20781296037784,29.0754925099451,275.2123,0.1345286,-1,23.46983528137207,200,-9999,11145.599669,1.0079345703125,0.1007537841796875,-0.1311798095703125,11145.594603,1.485846239761364,1.423418046246331,-0.09312929910462812,0.007004490122199059,-0.1447466760873795,-0.2577096819877625,0.03994202613830566,-0.01504808664321899,0.02106857299804688,2,-0.4672861290853014,0.4566609042219664,0.4892888146303346,0.5776684235474212,0.9848729372024536,0.09299473464488983,-0.1462089866399765,63.84503936767578,-0.1021747589111328,16.19851684570312,2,11144.23239154167,1,2,1580907428.473558,1580903939.50652,2377,0.4626901,0,0,2938.329,10,11,1580907321.19788,11143.053338,0,13.98843,97.04071
1580907429.817265,154,0,1580907286.99823,41.20781296037784,29.0754925099451,275.2123,0.1345286,-1,23.46983528137207,200,-9999,11145.60971,0.9918975830078125,0.113311767578125,-0.1514892578125,11145.604644,1.485168273709064,1.42172909356941,-0.09556219008224201,0.03415928781032562,-0.1635640114545822,-0.2541428506374359,0.02662444114685059,-0.001928120851516724,0.01954352855682373,2,-0.4673711790641754,0.4556809334086057,0.4888737733822762,0.5787238791153012,0.9843978881835938,0.09541680663824081,-0.1478381305932999,63.84503936767578,-0.1021747589111328,16.19851684570312,2,11144.23239154167,1,2,1580907428.473558,1580903939.50652,2377,0.4626901,0,0,2938.329,10,11,1580907321.19788,11143.053338,0,13.98843,97.04071
1580907429.827351,155,0,1580907286.99823,41.20781296037784,29.0754925099451,275.2123,0.1345286,-1,23.46983528137207,200,-9999,11145.61975,0.9285888671875,0.1087493896484375,-0.1635589599609375,11145.614714,1.484536468847119,1.42010352681193,-0.09765223526287713,0.02914642356336117,-0.1578509956598282,-0.2155629694461823,0.01418805122375488,0.01548671722412109,0.0006708502769470215,2,-0.4673908870853781,0.4547986443641103,0.4885432635954381,0.5796804675969913,0.9839571118354797,0.09749710559844971,-0.1494079083204269,63.71660614013672,-0.03710746765136719,16.03366088867188,2,11144.23239154167,1,2,1580907428.473558,1580903939.50652,2377,0.4626901,0,0,2938.329,10,11,1580907321.19788,11143.053338,0,13.98843,97.04071
1580907429.855467,156,0,1580907286.99823,41.20781296037784,29.0754925099451,275.2123,0.1345286,-1,23.46983528137207,200,-9999,11145.62979,0.9126129150390625,0.104705810546875,-0.1718597412109375,11145.624755,1.483950448599033,1.418843069902123,-0.09935469423575526,0.03255888819694519,-0.1191065162420273,-0.1781871169805527,-0.03971672058105469,0.01104128360748291,-0.01091301441192627,2,-0.4674067606501038,0.454114054636699,0.4882380730172516,0.5804610690256422,0.9836025834083557,0.09919131547212601,-0.150622695684433,63.92662811279297,0.1785259246826172,15.68572998046875,2,11144.23239154167,1,2,1580907428.473558,1580903939.50652,2377,0.4626901,0,0,2938.329,10,11,1580907321.19788,11143.053338,0,13.98843,97.04071
1580907429.856827,157,0,1580907286.99823,41.20781296037784,29.0754925099451,275.2123,0.1345286,-1,23.46983528137207,200,-9999,11145.63983,0.9018707275390625,0.103973388671875,-0.1687164306640625,11145.634795,1.483447499633564,1.417995719590105,-0.1005746325807888,0.03154502063989639,-0.07955031841993332,-0.1292243599891663,-0.07267069816589355,0.005215913057327271,-0.02257776260375977,2,-0.4674132933666706,0.4536585126187757,0.487981907736657,0.5810269653749477,0.9833540916442871,0.1004051640629768,-0.1514375358819962,63.92662811279297,0.1785259246826172,15.68572998046875,2,11144.23239154167,1,2,1580907428.473558,1580903939.50652,2377,0.4626901,0,0,2938.329,10,11,1580907321.19788,11143.053338,0,13.98843,97.04071
1580907429.858054,158,0,1580907286.99823,41.20781296037784,29.0754925099451,275.2123,0.1345286,-1,23.46983528137207,200,-9999,11145.649871,0.891693115234375,0.10986328125,-0.17144775390625,11145.644835,1.483058612560669,1.417660612595072,-0.1012530660778088,0.02806644886732101,-0.02842892520129681,-0.07340148091316223,-0.07935750484466553,0.001639842987060547,-0.01955687999725342,2,-0.4674254029203773,0.4534701372651597,0.4877758586482448,0.5813373766868981,0.9832359552383423,0.1010801419615746,-0.1517566591501236,63.85039520263672,0.4763278961181641,15.52243041992188,2,11144.23239154167,1,2,1580907428.473558,1580903939.50652,2377,0.4626901,0,0,2938.329,10,11,1580907321.19788,11143.053338,0,13.98843,97.04071
1580907429.867519,159,0,1580907286.99823,41.20781296037784,29.0754925099451,275.2123,0.1345286,-1,23.46983528137207,200,-9999,11145.659941,0.8979034423828125,0.1131439208984375,-0.1637115478515625,11145.654876,1.482680572233482,1.41775368125414,-0.1014763574400654,0.03492595255374908,0.01443598233163357,-0.02675781771540642,-0.09337228536605835,0.007184922695159912,-0.02107143402099609,2,-0.4674223719885708,0.4535256222586326,0.487587734931375,0.5814541445500627,0.983227550983429,0.1013022884726524,-0.151661679148674,63.85039520263672,0.4763278961181641,15.52243041992188,2,11144.23239154167,1,2,1580907428.473558,1580903939.50652,2377,0.4626901,0,0,2938.329,10,11,1580907321.19788,11143.053338,0,13.98843,97.04071
1580907429.877674,160,0,1580907286.99823,41.20781296037784,29.0754925099451,275.2123,0.1345286,-1,23.46983528137207,200,-9999,11145.669982,0.8855133056640625,0.1056976318359375,-0.162567138671875,11145.664916,1.482282774438649,1.418249807593284,-0.1013522455090852,0.04059082269668579,0.05062898248434067,0.004810948856174946,-0.0896453857421875,0.01063522696495056,-0.01899516582489014,2,-0.467419707862389,0.4537961294673518,0.4873875493350114,0.5814132059578729,0.9833152294158936,0.1011788174510002,-0.151175782084465,63.77045440673828,0.3168506622314453,15.61175537109375,2,11144.23239154167,1,2,1580907428.473558,1580903939.50652,2377,0.4626901,0,0,2938.329,10,11,1580907321.19788,11143.053338,0,13.98843,97.04071
1580907429.888161,161,0,1580907286.99823,41.20781296037784,29.0754925099451,275.2123,0.1345286,-1,23.46983528137207,200,-9999,11145.680022,0.8803863525390625,0.1004638671875,-0.172454833984375,11145.674956,1.481921875185191,1.419354566013665,-0.1007729487409536,0.04498424381017685,0.1142753437161446,0.05144130438566208,-0.09501230716705322,0.008527547121047974,-0.01217174530029297,2,-0.4674514865342829,0.4543567223153636,0.4871709254601754,0.581131154155959,0.9835392236709595,0.1006024703383446,-0.1500981599092484,63.77045440673828,0.3168506622314453,15.61175537109375,2,11144.23239154167,1,2,1580907428.473558,1580903939.50652,2377,0.4626901,0,0,2938.329,10,11,1580907321.19788,11143.053338,0,13.98843,97.04071
1580907429.916971,162,0,1580907286.99823,41.20781296037784,29.0754925099451,275.2123,0.1345286,-1,23.46983528137207,200,-9999,11145.690062,0.896820068359375,0.0985870361328125,-0.1779327392578125,11145.684996,1.481655495328421,1.421035474980086,-0.09974541948800998,0.04265229031443596,0.1682294607162476,0.09551595896482468,-0.1088242530822754,0.0004432499408721924,-0.02428185939788818,2,-0.4675244704749641,0.4551822044512574,0.4869606766009465,0.5806025219446062,0.9838919639587402,0.09958010166883469,-0.1484600603580475,63.78208160400391,0.3442611694335938,15.9727783203125,2,11144.23239154167,1,2,1580907428.473558,1580903939.50652,2377,0.4626901,0,0,2938.329,10,11,1580907321.19788,11143.053338,0,13.98843,97.04071
