loggingTime,loggingSample,identifierForVendor,locationTimestamp_since1970,locationLatitude,locationLongitude,locationAltitude,locationSpeed,locationCourse,locationVerticalAccuracy,locationHorizontalAccuracy,locationFloor,accelerometerTimestamp_sinceReboot,accelerometerAccelerationX,accelerometerAccelerationY,accelerometerAccelerationZ,motionTimestamp_sinceReboot,motionYaw,motionRoll,motionPitch,motionRotationRateX,motionRotationRateY,motionRotationRateZ,motionUserAccelerationX,motionUserAccelerationY,motionUserAccelerationZ,motionAttitudeReferenceFrame,motionQuaternionX,motionQuaternionY,motionQuaternionZ,motionQuaternionW,motionGravityX,motionGravityY,motionGravityZ,motionMagneticFieldX,motionMagneticFieldY,motionMagneticFieldZ,motionMagneticFieldCalibrationAccuracy,activityTimestamp_sinceReboot,activity,activityActivityConfidence,activityActivityStartDate,pedometerStartDate,pedometerNumberofSteps,pedometerAverageActivePace,pedometerCurrentPace,pedometerCurrentCadence,pedometerDistance,pedometerFloorAscended,pedometerFloorDescended,pedometerEndDate,altimeterTimestamp_sinceReboot,altimeterReset,altimeterRelativeAltitude,altimeterPressure
1580908272.398864,1,0,1580907286.99823,41.20781296037784,29.0754925099451,275.2123,0.1345286,-1,23.46983528137207,200,-9999,11988.151347375,0.9573822021484375,0.0942230224609375,-0.1668243408203125,11988.141307375,-1.038573700007995,1.39454119289492,-0.09444416032450934,-0.007189315743744373,0.0416991338133812,-0.005891797132790089,-0.02234059572219849,0.000136151909828186,0.002444982528686523,2,-0.2868913076739233,-0.5748148467924367,0.4063240277440274,-0.6497553896969911,0.9801197648048401,0.09430382400751114,-0.1745625436306,38.2347412109375,5.497215270996094,-21.78338623046875,2,11987.90083191667,2,0,1580908272.141998,1580903939.50652,2649,0.4776885,0.5669852,1.539632,3222.849,10,14,1580908264.827782,11985.27549,0,6.375916,97.12907
1580908272.400154,2,0,1580907286.99823,41.20781296037784,29.0754925099451,275.2123,0.1345286,-1,23.46983528137207,200,-9999,11988.161387375,0.9714813232421875,0.095703125,-0.1642913818359375,11988.151347375,-1.038228967662655,1.394857141560963,-0.09449370466708798,-0.0006547179073095322,0.03382891416549683,-0.008763102814555168,-0.02718257904052734,-0.0006305128335952759,0.004803657531738281,2,-0.2868395561483854,-0.5749756932668861,0.406180068071732,-0.6497259188393166,0.9801702499389648,0.09435314685106277,-0.1742520481348038,38.44051361083984,5.379467010498047,-21.87103271484375,2,11987.90083191667,2,0,1580908272.141998,1580903939.50652,2649,0.4776885,0.5669852,1.539632,3222.849,10,14,1580908264.827782,11985.27549,0,6.375916,97.12907
1580908272.4011,3,0,1580907286.99823,41.20781296037784,29.0754925099451,275.2123,0.1345286,-1,23.46983528137207,200,-9999,11988.171427375,0.9542236328125,0.097381591796875,-0.170654296875,11988.161387375,-1.038144424133588,1.3950154971927,-0.09452232018080134,-0.01150656677782536,0.01176915317773819,-0.003144631627947092,-0.01152163743972778,0.0007752552628517151,0.006829500198364258,2,-0.2868376521703497,-0.5750443263412552,0.4061376097114858,-0.6496926425381069,0.9801952242851257,0.09438163042068481,-0.1740963608026505,38.44051361083984,5.379467010498047,-21.87103271484375,2,11987.90083191667,2,0,1580908272.141998,1580903939.50652,2649,0.4776885,0.5669852,1.539632,3222.849,10,14,1580908264.827782,11985.27549,0,6.375916,97.12907
1580908272.40203,4,0,1580907286.99823,41.20781296037784,29.0754925099451,275.2123,0.1345286,-1,23.46983528137207,200,-9999,11988.181468375,0.9587554931640625,0.0960693359375,-0.1689910888671875,11988.171427375,-1.0377425845849,1.395249364680667,-0.09447003257983225,-0.004420317243784666,0.02328113466501236,0.007531071081757545,-0.02867245674133301,0.002612724900245667,0.001076579093933105,2,-0.2867873438677163,-0.575168689873059,0.4059594380707038,-0.6497161514341182,0.9802408218383789,0.0943295806646347,-0.1738680005073547,38.37457275390625,5.607276916503906,-21.889892578125,2,11987.90083191667,2,0,1580908272.141998,1580903939.50652,2649,0.4776885,0.5669852,1.539632,3222.849,10,14,1580908264.827782,11985.27549,0,6.375916,97.12907
1580908272.403172,5,0,1580907286.99823,41.20781296037784,29.0754925099451,275.2123,0.1345286,-1,23.46983528137207,200,-9999,11988.191539375,0.963470458984375,0.0943603515625,-0.1662139892578125,11988.181468375,-1.037678916334834,1.395497779148602,-0.09438905610300684,-0.003785686101764441,0.02501911297440529,0.009188355877995491,-0.02541202306747437,0.001808628439903259,0.001398265361785889,2,-0.2868470001278109,-0.5752442071511755,0.4058812904079795,-0.6496717067744855,0.9802914261817932,0.09424896538257599,-0.1736257970333099,38.37457275390625,5.607276916503906,-21.889892578125,2,11987.90083191667,2,0,1580908272.141998,1580903939.50652,2649,0.4776885,0.5669852,1.539632,3222.849,10,14,1580908264.827782,11985.27549,0,6.375916,97.12907
1580908272.425816,6,0,1580907286.99823,41.20781296037784,29.0754925099451,275.2123,0.1345286,-1,23.46983528137207,200,-9999,11988.201579375,0.96600341796875,0.094329833984375,-0.164520263671875,11988.191539375,-1.037289130356929,1.395707290896929,-0.09429443293481983,-0.004814397543668747,0.02014677226543427,0.0110757565125823,-0.02066606283187866,-3.473460674285889e-05,0.003924965858459473,2,-0.2868095807405792,-0.5753514487252406,0.405699095600948,-0.6497069664560023,0.9803364872932434,0.09415476024150848,-0.1734219491481781,38.43138122558594,5.423839569091797,-21.79901123046875,2,11987.90083191667,2,0,1580908272.141998,1580903939.50652,2649,0.4776885,0.5669852,1.539632,3222.849,10,14,1580908264.827782,11985.27549,0,6.375916,97.12907
1580908272.427038,7,0,1580907286.99823,41.20781296037784,29.0754925099451,275.2123,0.1345286,-1,23.46983528137207,200,-9999,11988.211619375,0.9656524658203125,0.0930633544921875,-0.16607666015625,11988.201579375,-1.037243705513472,1.395867962101191,-0.09422453404409041,-0.002456700894981623,0.01582126319408417,0.008026703260838985,-0.01777076721191406,-4.118680953979492e-05,0.00607222318649292,2,-0.2868528316969038,-0.5753978239108207,0.405642442043612,-0.6496822495641988,0.9803708791732788,0.09408517181873322,-0.1732655912637711,38.43138122558594,5.423839569091797,-21.79901123046875,2,11987.90083191667,2,0,1580908272.141998,1580903939.50652,2649,0.4776885,0.5669852,1.539632,3222.849,10,14,1580908264.827782,11985.27549,0,6.375916,97.12907
1580908272.42838,8,0,1580907286.99823,41.20781296037784,29.0754925099451,275.2123,0.1345286,-1,23.46983528137207,200,-9999,11988.221659375,0.966156005859375,0.093841552734375,-0.1659393310546875,11988.211619375,-1.036895621358448,1.396002052495602,-0.09418850827556796,-0.002200415823608637,0.01321662776172161,0.004875096492469311,-0.01805692911148071,-0.00125642865896225,0.004445493221282959,2,-0.2867921052134935,-0.5754849465744595,0.4055004167848459,-0.6497205811015726,0.9803974628448486,0.09404930472373962,-0.1731347292661667,38.31378936767578,5.353883743286133,-21.9881591796875,2,11987.90083191667,2,0,1580908272.141998,1580903939.50652,2649,0.4776885,0.5669852,1.539632,3222.849,10,14,1580908264.827782,11985.27549,0,6.375916,97.12907
1580908272.435219,9,0,1580907286.99823,41.20781296037784,29.0754925099451,275.2123,0.1345286,-1,23.46983528137207,200,-9999,11988.231700375,0.9665679931640625,0.09259033203125,-0.1674957275390625,11988.221659375,-1.036857028286678,1.39612075532146,-0.09419317376975612,-0.004330146126449108,0.01300677098333836,0.0006771562620997429,-0.01751255989074707,-0.0007117614150047302,0.004176139831542969,2,-0.2868034575151257,-0.5755298712899282,0.4054721201811701,-0.6496935006030266,0.9804176688194275,0.09405394643545151,-0.173018291592598,38.31378936767578,5.353883743286133,-21.9881591796875,2,11987.90083191667,2,0,1580908272.141998,1580903939.50652,2649,0.4776885,0.5669852,1.539632,3222.849,10,14,1580908264.827782,11985.27549,0,6.375916,97.12907
1580908272.445397,10,0,1580907286.99823,41.20781296037784,29.0754925099451,275.2123,0.1345286,-1,23.46983528137207,200,-9999,11988.241740375,0.9666595458984375,0.09368896484375,-0.1668243408203125,11988.231700375,-1.036502989203827,1.396210441526154,-0.0942440328817862,-0.004287578165531158,0.008153989911079407,-0.004151944071054459,-0.01730984449386597,-0.001784943044185638,0.002850830554962158,2,-0.286702517008824,-0.5756187256159242,0.4053579699143137,-0.6497304188110005,0.9804282784461975,0.0941045805811882,-0.1729294955730438,38.28058624267578,5.619474411010742,-21.9329833984375,2,11987.90083191667,2,0,1580908272.141998,1580903939.50652,2649,0.4776885,0.5669852,1.539632,3222.849,10,14,1580908264.827782,11985.27549,0,6.375916,97.12907
1580908272.455437,11,0,1580907286.99823,41.20781296037784,29.0754925099451,275.2123,0.1345286,-1,23.46983528137207,200,-9999,11988.251780375,0.9672088623046875,0.0950775146484375,-0.1641998291015625,11988.241740375,-1.036497396471632,1.396274376480959,-0.09433920345392345,-0.0009229406714439392,0.006016535684466362,-0.009712358005344868,-0.01693058013916016,-0.001269623637199402,0.003046095371246338,2,-0.2866814585118619,-0.5756570987907054,0.405372686816713,-0.6496967061428099,0.9804307222366333,0.09419932961463928,-0.1728652864694595,38.28058624267578,5.619474411010742,-21.9329833984375,2,11987.90083191667,2,0,1580908272.141998,1580903939.50652,2649,0.4776885,0.5669852,1.539632,3222.849,10,14,1580908264.827782,11985.27549,0,6.375916,97.12907
1580908272.486792,12,0,1580907286.99823,41.20781296037784,29.0754925099451,275.2123,0.1345286,-1,23.46983528137207,200,-9999,11988.261821375,0.9638214111328125,0.0935211181640625,-0.1663818359375,11988.251780375,-1.036166400658528,1.396273246051589,-0.09446780114487069,-0.002265972550958395,-0.0008291192352771759,-0.01309776864945889,-0.01673531532287598,0.0006008148193359375,0.005806863307952881,2,-0.2865422359605336,-0.575726842154466,0.4053000371447165,-0.649741675358864,0.9804186224937439,0.09432735294103622,-0.1728643029928207,38.22259521484375,5.566610336303711,-22.11798095703125,2,11987.90083191667,2,0,1580908272.141998,1580903939.50652,2649,0.4776885,0.5669852,1.539632,3222.849,10,14,1580908264.827782,11985.27549,0,6.375916,97.12907
1580908272.487882,13,0,1580907286.99823,41.20781296037784,29.0754925099451,275.2123,0.1345286,-1,23.46983528137207,200,-9999,11988.271861375,0.9573822021484375,0.0943145751953125,-0.1705780029296875,11988.261821375,-1.036151890969026,1.396289541946679,-0.09457651332000669,-0.00310992868617177,0.0008135177195072174,-0.01048307679593563,-0.01923036575317383,-0.001094676554203033,0.004293739795684814,2,-0.2865044244400441,-0.5757533738769319,0.405322333480107,-0.6497208895415516,0.9804112911224365,0.09443558007478714,-0.1728465408086777,38.22259521484375,5.566610336303711,-22.11798095703125,2,11987.90083191667,2,0,1580908272.141998,1580903939.50652,2649,0.4776885,0.5669852,1.539632,3222.849,10,14,1580908264.827782,11985.27549,0,6.375916,97.12907
1580908272.488607,14,0,1580907286.99823,41.20781296037784,29.0754925099451,275.2123,0.1345286,-1,23.46983528137207,200,-9999,11988.281901375,0.9596405029296875,0.096649169921875,-0.1663970947265625,11988.271861375,-1.035837154823172,1.396381567882665,-0.0946646295536753,-0.0001176008954644203,0.01082913391292095,-0.009470010176301003,-0.02589070796966553,-0.0007554292678833008,-0.0005435347557067871,2,-0.2864025182999272,-0.5758438741322371,0.4052306924198289,-0.6497427480884549,0.9804189205169678,0.09452330321073532,-0.1727548539638519,38.16579437255859,5.760780334472656,-21.97943115234375,2,11987.90083191667,2,0,1580908272.141998,1580903939.50652,2649,0.4776885,0.5669852,1.539632,3222.849,10,14,1580908264.827782,11985.27549,0,6.375916,97.12907
1580908272.495676,15,0,1580907286.99823,41.20781296037784,29.0754925099451,275.2123,0.1345286,-1,23.46983528137207,200,-9999,11988.291972375,0.9609527587890625,0.0972747802734375,-0.165863037109375,11988.281901375,-1.035839235233717,1.396479402831666,-0.09470088099376048,-0.001518955919891596,0.009828584268689156,-0.002735408488661051,-0.02454620599746704,0.001665025949478149,0.002869129180908203,2,-0.2864106280385929,-0.5758817431173123,0.4052271438562046,-0.6497077924874988,0.9804324507713318,0.09455939382314682,-0.1726583391427994,38.16579437255859,5.760780334472656,-21.97943115234375,2,11987.90083191667,2,0,1580908272.141998,1580903939.50652,2649,0.4776885,0.5669852,1.539632,3222.849,10,14,1580908264.827782,11985.27549,0,6.375916,97.12907
1580908272.506399,16,0,1580907286.99823,41.20781296037784,29.0754925099451,275.2123,0.1345286,-1,23.46983528137207,200,-9999,11988.302012375,0.9607696533203125,0.0968017578125,-0.1661376953125,11988.291972375,-1.035507078652346,1.396559140172643,-0.09467532534287225,-0.000188174657523632,0.008099926635622978,0.003304374404251575,-0.02276182174682617,0.002255119383335114,0.003966093063354492,2,-0.2863398138707264,-0.5759507082520017,0.4051009206834389,-0.6497566062433507,0.9804486036300659,0.09453395009040833,-0.1725805848836899,38.02370452880859,5.75654411315918,-21.99578857421875,2,11987.90083191667,2,0,1580908272.141998,1580903939.50652,2649,0.4776885,0,0,3222.849,10,15,1580908272.535977,11985.27549,0,6.375916,97.12907
1580908272.515786,17,0,1580907286.99823,41.20781296037784,29.0754925099451,275.2123,0.1345286,-1,23.46983528137207,200,-9999,11988.312052375,0.958984375,0.09521484375,-0.1672821044921875,11988.302012375,-1.035519183361427,1.396621937988804,-0.09458831115866041,0.00390800554305315,0.006044760346412659,0.0098142484202981,-0.02307087182998657,0.002174161374568939,0.00367659330368042,2,-0.2863856429835534,-0.5759540394597741,0.4050723576238399,-0.6497511350453624,0.9804673790931702,0.09444732964038849,-0.1725204139947891,38.02370452880859,5.75654411315918,-21.99578857421875,2,11987.90083191667,2,0,1580908272.141998,1580903939.50652,2649,0.4776885,0,0,3222.849,10,15,1580908272.535977,11985.27549,0,6.375916,97.12907
1580908272.549741,18,0,1580907286.99823,41.20781296037784,29.0754925099451,275.2123,0.1345286,-1,23.46983528137207,200,-9999,11988.322093375,0.96002197265625,0.0950927734375,-0.1674041748046875,11988.312052375,-1.035204781189842,1.396742088868072,-0.09448028585238799,0.002427247352898121,0.01340530440211296,0.01112952455878258,-0.02468860149383545,0.0007714778184890747,0.002477049827575684,2,-0.2863560920326528,-0.5760190844661792,0.4049238401497913,-0.6497992265069709,0.9804983139038086,0.09433978796005249,-0.172404408454895,38.15077972412109,5.535655975341797,-21.97076416015625,2,11987.90083191667,2,0,1580908272.141998,1580903939.50652,2649,0.4776885,0,0,3222.849,10,15,1580908272.535977,11985.27549,0,6.375916,97.12907
1580908272.55111,19,0,1580907286.99823,41.20781296037784,29.0754925099451,275.2123,0.1345286,-1,23.46983528137207,200,-9999,11988.332133375,0.9626617431640625,0.095001220703125,-0.1670074462890625,11988.322093375,-1.035196887763767,1.396897674500627,-0.09436085313982234,0.0009151045233011246,0.01552784442901611,0.01149624213576317,-0.0239638090133667,0.0005245506763458252,0.001928985118865967,2,-0.2864259601980097,-0.5760497214163721,0.4048667270991335,-0.6497767276937049,0.9805361032485962,0.09422088414430618,-0.1722537726163864,38.15077972412109,5.535655975341797,-21.97076416015625,2,11987.90083191667,2,0,1580908272.141998,1580903939.50652,2649,0.4776885,0,0,3222.849,10,15,1580908272.535977,11985.27549,0,6.375916,97.12907
1580908272.55222,20,0,1580907286.99823,41.20781296037784,29.0754925099451,275.2123,0.1345286,-1,23.46983528137207,200,-9999,11988.342173375,0.9663238525390625,0.0952606201171875,-0.1659698486328125,11988.332133375,-1.034874373559611,1.397053689570503,-0.09423427870934306,0.0009056711569428444,0.01494846306741238,0.0132837500423193,-0.02143895626068115,0.0005289241671562195,0.00232696533203125,2,-0.2864076286203013,-0.5761243219186714,0.4047054055074931,-0.6498192525696823,0.9805747866630554,0.09409487247467041,-0.1721028685569763,38.2037353515625,5.618213653564453,-21.996826171875,2,11987.90083191667,2,0,1580908272.141998,1580903939.50652,2649,0.4776885,0,0,3222.849,10,15,1580908272.535977,11985.27549,0,6.375916,97.12907
1580908272.556043,21,0,1580907286.99823,41.20781296037784,29.0754925099451,275.2123,0.1345286,-1,23.46983528137207,200,-9999,11988.352214375,0.9683837890625,0.0943145751953125,-0.166107177734375,11988.342173375,-1.034547851619997,1.397181008858765,-0.0941338879654659,5.256384611129761e-06,0.01131085120141506,0.01059954985976219,-0.01779288053512573,0.0007207691669464111,0.003347814083099365,2,-0.2863734398683443,-0.5761947794617326,0.4045539500844656,-0.6498661708089665,0.9806060194969177,0.09399492293596268,-0.1719796508550644,38.13239288330078,5.682868957519531,-21.9736328125,2,11987.90083191667,2,0,1580908272.141998,1580903939.50652,2649,0.4776885,0,0,3222.849,10,15,1580908272.535977,11985.27549,0,6.375916,97.12907
1580908272.566012,22,0,1580907286.99823,41.20781296037784,29.0754925099451,275.2123,0.1345286,-1,23.46983528137207,200,-9999,11988.362254375,0.9724884033203125,0.0910186767578125,-0.164825439453125,11988.352214375,-1.034553487637437,1.397283371647691,-0.0940999664509775,0.001320101320743561,0.0109911635518074,0.003851688466966152,-0.01602846384048462,0.0004189684987068176,0.002911984920501709,2,-0.2864072961111375,-0.5762212640721893,0.4045319551279538,-0.6498414652888626,0.9806267619132996,0.09396115690469742,-0.1718798279762268,38.13239288330078,5.682868957519531,-21.9736328125,2,11987.90083191667,2,0,1580908272.141998,1580903939.50652,2649,0.4776885,0,0,3222.849,10,15,1580908272.535977,11985.27549,0,6.375916,97.12907
1580908272.576555,23,0,1580907286.99823,41.20781296037784,29.0754925099451,275.2123,0.1345286,-1,23.46983528137207,200,-9999,11988.372294375,0.97021484375,0.09234619140625,-0.165252685546875,11988.362254375,-1.034243651986106,1.397340289423538,-0.09416725830895389,0.0002130260691046715,0.006041945889592171,-0.006038759835064411,-0.01151537895202637,-0.003249324858188629,0.004197657108306885,2,-0.286306672087396,-0.5762959568909027,0.4044413198111907,-0.6498759582327782,0.9806302785873413,0.09402815252542496,-0.1718229204416275,38.14082336425781,5.761133193969727,-21.84228515625,2,11987.90083191667,2,0,1580908272.141998,1580903939.50652,2649,0.4776885,0,0,3222.849,10,15,1580908272.535977,11985.27549,0,6.375916,97.12907
1580908272.606872,24,0,1580907286.99823,41.20781296037784,29.0754925099451,275.2123,0.1345286,-1,23.46983528137207,200,-9999,11988.382334375,0.967041015625,0.0953369140625,-0.1649322509765625,11988.372294375,-1.034260176438085,1.397347942441513,-0.09430279460491495,-0.001288573257625103,0.0006446279585361481,-0.0135659221559763,-0.01321303844451904,-0.002164021134376526,0.003745436668395996,2,-0.2862668864828827,-0.5763199254187283,0.4044822358390807,-0.6498468344354245,0.9806190729141235,0.09416308254003525,-0.1718132197856903,38.14082336425781,5.761133193969727,-21.84228515625,2,11987.90083191667,2,0,1580908272.141998,1580903939.50652,2649,0.4776885,0,0,3222.849,10,15,1580908272.535977,11985.27549,0,6.375916,97.12907
1580908272.608132,25,0,1580907286.99823,41.20781296037784,29.0754925099451,275.2123,0.1345286,-1,23.46983528137207,200,-9999,11988.392405375,0.963623046875,0.0955657958984375,-0.165863037109375,11988.382334375,-1.03396870266393,1.397315731870852,-0.09444655144536018,0.0004826951771974564,-0.002868348732590675,-0.01386286504566669,-0.01662731170654297,0.0005305036902427673,0.004262924194335938,2,-0.2861275471616122,-0.5763764389124064,0.4044309905637537,-0.6498898669559796,0.980600118637085,0.09430620074272156,-0.1718424558639526,38.49326324462891,5.642812728881836,-21.99920654296875,2,11987.90083191667,2,0,1580908272.141998,1580903939.50652,2649,0.4776885,0,0,3222.849,10,15,1580908272.535977,11985.27549,0,6.375916,97.12907
1580908272.609285,26,0,1580907286.99823,41.20781296037784,29.0754925099451,275.2123,0.1345286,-1,23.46983528137207,200,-9999,11988.402446375,0.961669921875,0.0953521728515625,-0.164825439453125,11988.392405375,-1.034007877609115,1.397275567723813,-0.09457965882491119,0.002586700953543186,-0.003688178956508636,-0.01317816227674484,-0.01985818147659302,0.0008095428347587585,0.003293335437774658,2,-0.2860854384323245,-0.5763811931620881,0.4044854495481524,-0.649870366763297,0.9805809259414673,0.09443871676921844,-0.1718796789646149,38.49326324462891,5.642812728881836,-21.99920654296875,2,11987.90083191667,2,0,1580908272.141998,1580903939.50652,2649,0.4776885,0,0,3222.849,10,15,1580908272.535977,11985.27549,0,6.375916,97.12907
1580908272.616346,27,0,1580907286.99823,41.20781296037784,29.0754925099451,275.2123,0.1345286,-1,23.46983528137207,200,-9999,11988.412486375,0.9591064453125,0.095611572265625,-0.16650390625,11988.402446375,-1.033709725158907,1.397257350964059,-0.09470112273816275,0.0001357942819595337,-0.001883354038000107,-0.01287083327770233,-0.02196455001831055,0.0003677904605865479,0.004377365112304688,2,-0.2859545613622511,-0.5764392548124204,0.4044239991186861,-0.6499146241621065,0.9805663824081421,0.09455963224172592,-0.1718955487012863,38.16330718994141,5.977357864379883,-22.10052490234375,2,11987.90083191667,2,0,1580908272.141998,1580903939.50652,2649,0.4776885,0,0,3222.849,10,15,1580908272.535977,11985.27549,0,6.375916,97.12907
1580908272.626244,28,0,1580907286.99823,41.20781296037784,29.0754925099451,275.2123,0.1345286,-1,23.46983528137207,200,-9999,11988.422526375,0.9580230712890625,0.0957794189453125,-0.1668548583984375,11988.412486375,-1.03373076656682,1.397295264916088,-0.09476921978222749,0.001424944959580898,0.004630016162991524,-0.006375311873853207,-0.0244826078414917,0.0007727742195129395,0.002599179744720459,2,-0.2859451780143841,-0.5764605237748134,0.4044438177775646,-0.6498874472064555,0.9805664420127869,0.09462742507457733,-0.1718572378158569,38.16330718994141,5.977357864379883,-22.10052490234375,2,11987.90083191667,2,0,1580908272.141998,1580903939.50652,2649,0.4776885,0,0,3222.849,10,15,1580908272.535977,11985.27549,0,6.375916,97.12907
1580908272.636413,29,0,1580907286.99823,41.20781296037784,29.0754925099451,275.2123,0.1345286,-1,23.46983528137207,200,-9999,11988.432566375,0.9569549560546875,0.0958709716796875,-0.1667938232421875,11988.422526375,-1.033422722118045,1.397359406145084,-0.09478897080429258,0.0001817811280488968,0.006099816411733627,-0.001577094662934542,-0.02571254968643188,0.0008903592824935913,0.002032220363616943,2,-0.2858626185402073,-0.5765288780154475,0.4043398903886194,-0.6499278564319942,0.9805756807327271,0.09464708715677261,-0.1717940270900726,38.14404296875,5.794136047363281,-22.063720703125,2,11987.90083191667,2,0,1580908272.141998,1580903939.50652,2649,0.4776885,0,0,3222.849,10,15,1580908272.535977,11985.27549,0,6.375916,97.12907
1580908272.671484,30,0,1580907286.99823,41.20781296037784,29.0754925099451,275.2123,0.1345286,-1,23.46983528137207,200,-9999,11988.442607375,0.9580230712890625,0.0958099365234375,-0.16448974609375,11988.432566375,-1.033421380391145,1.397475671464243,-0.0947279310120433,0.001265883445739746,0.01306378655135632,0.00710634607821703,-0.02657759189605713,0.0009360760450363159,0.00217825174331665,2,-0.2859064631349944,-0.5765561353130071,0.4043063363699218,-0.6499053406447275,0.98060142993927,0.0945863202214241,-0.1716810315847397,38.14404296875,5.794136047363281,-22.063720703125,2,11987.90083191667,2,0,1580908272.141998,1580903939.50652,2649,0.4776885,0,0,3222.849,10,15,1580908272.535977,11985.27549,0,6.375916,97.12907
1580908272.672792,31,0,1580907286.99823,41.20781296037784,29.0754925099451,275.2123,0.1345286,-1,23.46983528137207,200,-9999,11988.452647375,0.96160888671875,0.096405029296875,-0.1633453369140625,11988.442607375,-1.033102935990055,1.397585922786995,-0.09460913867686531,0.001691455952823162,0.01117933355271816,0.01118471007794142,-0.02618050575256348,0.001024216413497925,0.004040002822875977,2,-0.2858773210646747,-0.5766166202700059,0.4041549728415068,-0.6499586695356163,0.980631411075592,0.09446806460618973,-0.1715748608112335,37.93157958984375,5.829999923706055,-22.0703125,2,11987.90083191667,2,0,1580908272.141998,1580903939.50652,2649,0.4776885,0,0,3222.849,10,15,1580908272.535977,11985.27549,0,6.375916,97.12907
1580908272.673834,32,0,1580907286.99823,41.20781296037784,29.0754925099451,275.2123,0.1345286,-1,23.46983528137207,200,-9999,11988.462687375,0.964141845703125,0.09588623046875,-0.1641693115234375,11988.452647375,-1.033112205305937,1.397639100160838,-0.0944402223570545,0.00303370226174593,0.00594460591673851,0.01704689860343933,-0.02283334732055664,0.001788020133972168,0.005394160747528076,2,-0.2859481819456149,-0.5766029053608285,0.4041046995921803,-0.6499708879491741,0.9806562066078186,0.09429989755153656,-0.1715254485607147,37.93157958984375,5.829999923706055,-22.0703125,2,11987.90083191667,2,0,1580908272.141998,1580903939.50652,2649,0.4776885,0,0,3222.849,10,15,1580908272.535977,11985.27549,0,6.375916,97.12907
1580908272.67655,33,0,1580907286.99823,41.20781296037784,29.0754925099451,275.2123,0.1345286,-1,23.46983528137207,200,-9999,11988.472728375,0.9646759033203125,0.0933685302734375,-0.165069580078125,11988.462687375,-1.032833985625507,1.397638978480214,-0.09426010940973455,0.007578386925160885,-0.0002877227962017059,0.01701360940933228,-0.0198134183883667,0.001479662954807281,0.004634439945220947,2,-0.285929163054841,-0.5766110131858734,0.4039655802216958,-0.6500585890623184,0.9806729555130005,0.09412059187889099,-0.1715285032987595,37.98943328857422,5.889137268066406,-22.1541748046875,2,11987.90083191667,2,0,1580908272.141998,1580903939.50652,2649,0.4776885,0,0,3222.849,10,15,1580908272.535977,11985.27549,0,6.375916,97.12907
1580908272.68657,34,0,1580907286.99823,41.20781296037784,29.0754925099451,275.2123,0.1345286,-1,23.46983528137207,200,-9999,11988.482768375,0.966583251953125,0.092620849609375,-0.1648406982421875,11988.472728375,-1.032855293906351,1.39765007969816,-0.09409323062354451,0.005435013212263584,0.001434607431292534,0.01643994078040123,-0.01978510618209839,-0.0006271973252296448,0.003680169582366943,2,-0.2859942756107663,-0.5765822666562939,0.403925778796642,-0.6500802023046197,0.9806903600692749,0.09395445138216019,-0.171520322561264,37.98943328857422,5.889137268066406,-22.1541748046875,2,11987.90083191667,2,0,1580908272.141998,1580903939.50652,2649,0.4776885,0,0,3222.849,10,15,1580908272.535977,11985.27549,0,6.375916,97.12907
1580908272.696922,35,0,1580907286.99823,41.20781296037784,29.0754925099451,275.2123,0.1345286,-1,23.46983528137207,200,-9999,11988.492839375,0.967864990234375,0.092559814453125,-0.1670989990234375,11988.482768375,-1.032579749692593,1.397659680243798,-0.09399575015881656,0.007268865592777729,0.001797063276171684,0.00939454697072506,-0.01723229885101318,-0.00162845104932785,0.003840208053588867,2,-0.2859499231137148,-0.576607663745945,0.4038084661792695,-0.6501500492132983,0.9807010293006897,0.09385740011930466,-0.1715124845504761,38.03810119628906,5.760284423828125,-22.122314453125,2,11987.90083191667,2,0,1580908272.141998,1580903939.50652,2649,0.4776885,0,0,3222.849,10,15,1580908272.535977,11985.27549,0,6.375916,97.12907
1580908272.730872,36,0,1580907286.99823,41.20781296037784,29.0754925099451,275.2123,0.1345286,-1,23.46983528137207,200,-9999,11988.502879375,0.9675750732421875,0.09051513671875,-0.1680908203125,11988.492839375,-1.0326303452079,1.397697701988174,-0.09399590548274116,0.005697677843272686,0.004579760134220123,-0.0004424266517162323,-0.01641499996185303,-0.001277685165405273,0.001910388469696045,2,-0.2859721773330471,-0.576612804957315,0.4038195129696555,-0.6501287180631219,0.9807074069976807,0.09385755658149719,-0.1714751720428467,38.03810119628906,5.760284423828125,-22.122314453125,2,11987.90083191667,2,0,1580908272.141998,1580903939.50652,2649,0.4776885,0,0,3222.849,10,15,1580908272.535977,11985.27549,0,6.375916,97.12907
1580908272.732267,37,0,1580907286.99823,41.20781296037784,29.0754925099451,275.2123,0.1345286,-1,23.46983528137207,200,-9999,11988.512919375,0.963165283203125,0.093994140625,-0.1663665771484375,11988.502879375,-1.032376253869011,1.397808705102429,-0.09408473433526283,0.004648125730454922,0.01282224617898464,-0.009506229311227798,-0.01593756675720215,-0.003639973700046539,0.0003807544708251953,2,-0.2858911346566756,-0.5767008096821787,0.40374507977767,-0.6501325038913022,0.9807181358337402,0.09394598752260208,-0.1713648736476898,38.11094665527344,5.755233764648438,-22.12591552734375,2,11987.90083191667,2,0,1580908272.141998,1580903939.50652,2649,0.4776885,0,0,3222.849,10,15,1580908272.535977,11985.27549,0,6.375916,97.12907
1580908272.733359,38,0,1580907286.99823,41.20781296037784,29.0754925099451,275.2123,0.1345286,-1,23.46983528137207,200,-9999,11988.522959375,0.9551849365234375,0.0933685302734375,-0.1688385009765625,11988.512919375,-1.032427451714792,1.397948873906944,-0.09418104380311275,0.004113080911338329,0.01341956667602062,-0.009807087481021881,-0.0206218957901001,-0.0007149428129196167,0.00208747386932373,2,-0.2859014429297987,-0.5767559622045457,0.4037677459110103,-0.6500649879740541,0.9807332754135132,0.09404187649488449,-0.1712258458137512,38.11094665527344,5.755233764648438,-22.12591552734375,2,11987.90083191667,2,0,1580908272.141998,1580903939.50652,2649,0.4776885,0,0,3222.849,10,15,1580908272.535977,11985.27549,0,6.375916,97.12907
1580908272.736777,39,0,1580907286.99823,41.20781296037784,29.0754925099451,275.2123,0.1345286,-1,23.46983528137207,200,-9999,11988.533000375,0.9496917724609375,0.0956878662109375,-0.16912841796875,11988.522959375,-1.032127460807322,1.398208001843042,-0.0942381448740789,-0.0001959130167961121,0.02692339010536671,-0.006021936424076557,-0.02777153253555298,-0.001153424382209778,-4.51207160949707e-05,2,-0.2858477880253641,-0.5768930940135523,0.4036486584348481,-0.6500409328775394,0.9807723760604858,0.09409872442483902,-0.1709707975387573,38.19558715820312,5.73979377746582,-22.02459716796875,2,11987.90083191667,2,0,1580908272.141998,1580903939.50652,2649,0.4776885,0,0,3222.849,10,15,1580908272.535977,11985.27549,0,6.375916,97.12907
1580908272.747027,40,0,1580907286.99823,41.20781296037784,29.0754925099451,275.2123,0.1345286,-1,23.46983528137207,200,-9999,11988.543040375,0.945587158203125,0.0957183837890625,-0.1712493896484375,11988.533000375,-1.032137851746808,1.398610928586277,-0.09419434745334113,0.002267244271934032,0.0387108102440834,0.004068247973918915,-0.03432983160018921,0.001209646463394165,-0.001615941524505615,2,-0.2859469935132197,-0.5770148713788296,0.4035825812219758,-0.6499302189869764,0.9808452725410461,0.09405511617660522,-0.1705763041973114,38.19558715820312,5.73979377746582,-22.02459716796875,2,11987.90083191667,2,0,1580908272.141998,1580903939.50652,2649,0.4776885,0,0,3222.849,10,15,1580908272.535977,11985.27549,0,6.375916,97.12907
1580908272.756827,41,0,1580907286.99823,41.20781296037784,29.0754925099451,275.2123,0.1345286,-1,23.46983528137207,200,-9999,11988.553080375,0.94244384765625,0.096954345703125,-0.172088623046875,11988.543040375,-1.031796844457983,1.399260126707599,-0.0940060263788294,0.0007705474272370338,0.06365956366062164,0.01960060372948647,-0.0378456711769104,0.001489311456680298,-0.003594636917114258,2,-0.286043558511865,-0.5772415581351673,0.4033279406182387,-0.6498445017371384,0.9809732437133789,0.09386762976646423,-0.1699425280094147,38.26679229736328,5.47734260559082,-21.97332763671875,2,11987.90083191667,2,0,1580908272.141998,1580903939.50652,2649,0.4776885,0,0,3222.849,10,15,1580908272.535977,11985.27549,0,6.375916,97.12907
1580908272.791559,42,0,1580907286.99823,41.20781296037784,29.0754925099451,275.2123,0.1345286,-1,23.46983528137207,200,-9999,11988.563121375,0.9493408203125,0.096710205078125,-0.1676483154296875,11988.553080375,-1.031759220274167,1.400142115985677,-0.09366205273273905,0.003096275962889194,0.08688055723905563,0.03500209003686905,-0.04225426912307739,0.003114648163318634,-0.005891621112823486,2,-0.2863273601099067,-0.5774731769996836,0.403096304449908,-0.6496575059782628,0.9811545610427856,0.09352517127990723,-0.1690827459096909,38.26679229736328,5.47734260559082,-21.97332763671875,2,11987.90083191667,2,0,1580908272.141998,1580903939.50652,2649,0.4776885,0,0,3222.849,10,15,1580908272.535977,11985.27549,0,6.375916,97.12907
1580908272.793011,43,0,1580907286.99823,41.20781296037784,29.0754925099451,275.2123,0.1345286,-1,23.46983528137207,200,-9999,11988.573161375,0.957672119140625,0.0947723388671875,-0.1639251708984375,11988.563121375,-1.031439933270051,1.401176499469752,-0.09320928024801149,0.006830827333033085,0.1032057404518127,0.04453301429748535,-0.03635215759277344,0.003338076174259186,-0.002599954605102539,2,-0.2865973664301213,-0.5777754905320159,0.4027216470721894,-0.6495018197701775,0.9813703894615173,0.09307437390089035,-0.1680748611688614,38.22079467773438,5.300748825073242,-21.77020263671875,2,11987.90083191667,2,0,1580908272.141998,1580903939.50652,2649,0.4776885,0,0,3222.849,10,15,1580908272.535977,11985.27549,0,6.375916,97.12907
1580908272.794167,44,0,1580907286.99823,41.20781296037784,29.0754925099451,275.2123,0.1345286,-1,23.46983528137207,200,-9999,11988.583201375,0.96710205078125,0.09326171875,-0.1599578857421875,11988.573161375,-1.031418745164981,1.40230959978093,-0.09270045247085999,0.005938882939517498,0.113962210714817,0.04978351667523384,-0.02786105871200562,0.002137452363967896,3.075599670410156e-05,2,-0.2869920349165631,-0.5780572855478583,0.4024141663005347,-0.6492673919552927,0.9816068410873413,0.09256774187088013,-0.1669707000255585,38.22079467773438,5.300748825073242,-21.77020263671875,2,11987.90083191667,2,0,1580908272.141998,1580903939.50652,2649,0.4776885,0,0,3222.849,10,15,1580908272.535977,11985.27549,0,6.375916,97.12907
1580908272.797305,45,0,1580907286.99823,41.20781296037784,29.0754925099451,275.2123,0.1345286,-1,23.46983528137207,200,-9999,11988.593272375,0.981964111328125,0.0943450927734375,-0.1497650146484375,11988.583201375,-1.031086663073259,1.403394903027772,-0.09217097468067104,0.006125304847955704,0.1104604229331017,0.05359130352735519,-0.01954555511474609,0.001049026846885681,0.002632200717926025,2,-0.2872939073129052,-0.5783645082963893,0.4020066993294515,-0.6491127737550175,0.9818357229232788,0.0920405238866806,-0.1659134179353714,38.31623840332031,5.309257507324219,-21.48333740234375,2,11987.90083191667,2,0,1580908272.141998,1580903939.50652,2649,0.4776885,0,0,3222.849,10,15,1580908272.535977,11985.27549,0,6.375916,97.12907
1580908272.807056,46,0,1580907286.99823,41.20781296037784,29.0754925099451,275.2123,0.1345286,-1,23.46983528137207,200,-9999,11988.603312375,0.98809814453125,0.0969696044921875,-0.1446380615234375,11988.593272375,-1.031098556368508,1.404114927693625,-0.09164499667058333,0.006994935683906078,0.07513774186372757,0.05248210206627846,-0.004332244396209717,0.00210859626531601,0.01171159744262695,2,-0.2876204295121116,-0.5785043435871523,0.4017640436327969,-0.6489937511184388,0.9820024967193604,0.09151676297187805,-0.1652144193649292,38.31623840332031,5.309257507324219,-21.48333740234375,2,11987.90083191667,2,0,1580908272.141998,1580903939.50652,2649,0.4776885,0,0,3222.849,10,15,1580908272.535977,11985.27549,0,6.375916,97.12907
1580908272.817267,47,0,1580907286.99823,41.20781296037784,29.0754925099451,275.2123,0.1345286,-1,23.46983528137207,200,-9999,11988.613353375,0.981170654296875,0.091278076171875,-0.1546783447265625,11988.603312375,-1.030864233755742,1.404382326140621,-0.09118481798322454,0.0109561225399375,0.02619470283389091,0.04398848488926888,0.002402722835540771,0.006169497966766357,0.01797086000442505,2,-0.2877623557699632,-0.5785442294101661,0.4015243435910326,-0.6490436776557074,0.9820881485939026,0.09105850756168365,-0.1649588048458099,38.36548614501953,5.131301879882812,-21.46746826171875,2,11987.90083191667,2,0,1580908272.141998,1580903939.50652,2649,0.4776885,0,0,3222.849,10,15,1580908272.535977,11985.27549,0,6.375916,97.12907
1580908272.851728,48,0,1580907286.99823,41.20781296037784,29.0754925099451,275.2123,0.1345286,-1,23.46983528137207,200,-9999,11988.623393375,0.966094970703125,0.08648681640625,-0.1656951904296875,11988.613353375,-1.030958118450934,1.404547831981569,-0.09082534558705796,0.01444906275719404,0.01761246658861637,0.03431506082415581,-0.003241837024688721,0.0006082579493522644,0.008703351020812988,2,-0.287944634381768,-0.5785214463742279,0.401433155195747,-0.6490394520633574,0.9821475148200989,0.09070052206516266,-0.1648016422986984,38.36548614501953,5.131301879882812,-21.46746826171875,2,11987.90083191667,2,0,1580908272.141998,1580903939.50652,2649,0.4776885,0,0,3222.849,10,15,1580908272.535977,11985.27549,0,6.375916,97.12907
1580908272.853036,49,0,1580907286.99823,41.20781296037784,29.0754925099451,275.2123,0.1345286,-1,23.46983528137207,200,-9999,11988.633433375,0.96331787109375,0.0909881591796875,-0.16162109375,11988.623393375,-1.030744220516396,1.40492918616838,-0.09054679271820955,0.009994660504162312,0.04273592680692673,0.02652984485030174,-0.01741373538970947,-0.004072502255439758,-0.003173232078552246,2,-0.2880536457563294,-0.5786272177773183,0.4012330032252411,-0.6490206993469069,0.982235312461853,0.09042311459779739,-0.1644312739372253,38.22479248046875,5.024616241455078,-21.2879638671875,2,11987.90083191667,2,0,1580908272.141998,1580903939.50652,2649,0.4776885,0,0,3222.849,10,15,1580908272.535977,11986.219518,0,6.344208,97.12942
1580908272.854014,50,0,1580907286.99823,41.20781296037784,29.0754925099451,275.2123,0.1345286,-1,23.46983528137207,200,-9999,11988.643473375,0.9742431640625,0.08935546875,-0.1545562744140625,11988.633433375,-1.030868315028354,1.40538067466746,-0.09030868578765332,0.01563434675335884,0.04717205092310905,0.02353918179869652,-0.02373504638671875,-8.091330528259277e-05,-0.001829445362091064,2,-0.2882608306920615,-0.5787141192896589,0.4011433717249412,-0.648906554335429,0.9823306202888489,0.0901859849691391,-0.163991317152977,38.22479248046875,5.024616241455078,-21.2879638671875,2,11987.90083191667,2,0,1580908272.141998,1580903939.50652,2649,0.4776885,0,0,3222.849,10,15,1580908272.535977,11986.219518,0,6.344208,97.12942
1580908272.857351,51,0,1580907286.99823,41.20781296037784,29.0754925099451,275.2123,0.1345286,-1,23.46983528137207,200,-9999,11988.653514375,0.9742889404296875,0.0897674560546875,-0.1547698974609375,11988.643473375,-1.030699522554946,1.405786709211131,-0.09016317673453499,0.01565352082252502,0.04365773871541023,0.01239545363932848,-0.01157701015472412,-0.0004848465323448181,0.006668329238891602,2,-0.2883427310927821,-0.5788446888599166,0.4009904345604105,-0.6488481622621732,0.9824099540710449,0.09004106372594833,-0.163594588637352,38.39825439453125,5.028013229370117,-21.28424072265625,2,11987.90083191667,2,0,1580908272.141998,1580903939.50652,2649,0.4776885,0,0,3222.849,10,15,1580908272.535977,11986.219518,0,6.344208,97.12942
1580908272.867197,52,0,1580907286.99823,41.20781296037784,29.0754925099451,275.2123,0.1345286,-1,23.46983528137207,200,-9999,11988.663554375,0.9732513427734375,0.0921783447265625,-0.152618408203125,11988.653514375,-1.030841045803853,1.406061458987474,-0.09005854534380767,0.01548652071505785,0.02724656835198402,0.008523138239979744,-0.011799156665802,-0.001051642000675201,0.005346536636352539,2,-0.2884741693238695,-0.5788950978892935,0.4009682204696592,-0.6487586356808536,0.9824643135070801,0.08993685990571976,-0.163326233625412,38.39825439453125,5.028013229370117,-21.28424072265625,2,11987.90083191667,2,0,1580908272.141998,1580903939.50652,2649,0.4776885,0,0,3222.849,10,15,1580908272.535977,11986.219518,0,6.344208,97.12942
1580908272.877421,53,0,1580907286.99823,41.20781296037784,29.0754925099451,275.2123,0.1345286,-1,23.46983528137207,200,-9999,11988.673594375,0.96234130859375,0.0899810791015625,-0.1587371826171875,11988.663554375,-1.030676585806295,1.406223453083377,-0.08995853102451272,0.01562314014881849,0.01585915684700012,0.007938574999570847,-0.01209396123886108,0.002039015293121338,0.008011162281036377,2,-0.2884929187381632,-0.578953848885517,0.4008642473085807,-0.6487621106538607,0.9824996590614319,0.08983724564313889,-0.1631685495376587,38.51223754882812,4.987852096557617,-21.19091796875,2,11987.90083191667,2,0,1580908272.141998,1580903939.50652,2649,0.4776885,0,0,3222.849,10,15,1580908272.535977,11986.219518,0,6.344208,97.12942
1580908272.914293,54,0,1580907286.99823,41.20781296037784,29.0754925099451,275.2123,0.1345286,-1,23.46983528137207,200,-9999,11988.683635375,0.95068359375,0.0886383056640625,-0.16400146484375,11988.673594375,-1.030807098458486,1.406473022570722,-0.08981986663892283,0.01588268950581551,0.02399921789765358,0.01223638001829386,-0.02229440212249756,0.0001786798238754272,0.002105832099914551,2,-0.2886277396461874,-0.5789916672926073,0.4008327653880554,-0.64868768211015,0.9825524091720581,0.08969914168119431,-0.1629253476858139,38.51223754882812,4.987852096557617,-21.19091796875,2,11987.90083191667,2,0,1580908272.141998,1580903939.50652,2649,0.4776885,0,0,3222.849,10,15,1580908272.535977,11986.219518,0,6.344208,97.12942
1580908272.915635,55,0,1580907286.99823,41.20781296037784,29.0754925099451,275.2123,0.1345286,-1,23.46983528137207,200,-9999,11988.693705375,0.9484100341796875,0.088134765625,-0.1635894775390625,11988.683635375,-1.030601856579884,1.406959691803909,-0.08962398003823134,0.01526430435478687,0.04851841181516647,0.01756216958165169,-0.03427773714065552,-0.001181960105895996,-0.004108428955078125,2,-0.2887321649362373,-0.5791448249882317,0.4006425394047412,-0.6486219886019259,0.9826489090919495,0.08950404822826385,-0.1624500155448914,38.38584136962891,5.046848297119141,-21.09356689453125,2,11987.90083191667,2,0,1580908272.141998,1580903939.50652,2649,0.4776885,0,0,3222.849,10,15,1580908272.535977,11986.219518,0,6.344208,97.12942
1580908272.916777,56,0,1580907286.99823,41.20781296037784,29.0754925099451,275.2123,0.1345286,-1,23.46983528137207,200,-9999,11988.703746375,0.9471588134765625,0.0882415771484375,-0.1646270751953125,11988.693705375,-1.030653839065016,1.407698915797057,-0.0893362885513666,0.01005617808550596,0.07317612320184708,0.02752906084060669,-0.03796368837356567,-0.00116913765668869,-0.004604458808898926,2,-0.2889926484932393,-0.5793266528401912,0.4004741449516225,-0.6484476155757193,0.9827941656112671,0.08921750634908676,-0.1617277562618256,38.38584136962891,5.046848297119141,-21.09356689453125,2,11987.90083191667,2,0,1580908272.141998,1580903939.50652,2649,0.4776885,0,0,3222.849,10,15,1580908272.535977,11986.219518,0,6.344208,97.12942
1580908272.918011,57,0,1580907286.99823,41.20781296037784,29.0754925099451,275.2123,0.1345286,-1,23.46983528137207,200,-9999,11988.713786375,0.9468841552734375,0.0889434814453125,-0.16192626953125,11988.703746375,-1.030370390467718,1.408735647777837,-0.08894687795420642,0.00697623286396265,0.1037572026252747,0.03794228658080101,-0.03869986534118652,-0.001024112105369568,-0.006628215312957764,2,-0.2892497649324726,-0.5796355584032097,0.4001260791869137,-0.6482718611687978,0.9829955697059631,0.0888296365737915,-0.1607143878936768,38.50890350341797,4.745182037353516,-20.8902587890625,2,11987.90083191667,2,0,1580908272.141998,1580903939.50652,2649,0.4776885,0,0,3222.849,10,15,1580908272.535977,11986.219518,0,6.344208,97.12942
1580908272.927749,58,0,1580907286.99823,41.20781296037784,29.0754925099451,275.2123,0.1345286,-1,23.46983528137207,200,-9999,11988.723826375,0.9627685546875,0.0908966064453125,-0.1519622802734375,11988.713786375,-1.030384064299122,1.410002494801711,-0.08845147284630372,0.009536703117191792,0.1282720267772675,0.04890865832567215,-0.04054880142211914,0.000417076051235199,-0.005810678005218506,2,-0.2896746241944656,-0.5799574303499964,0.3998117863785714,-0.647988154546589,0.9832417368888855,0.08833618462085724,-0.1594759821891785,38.50890350341797,4.745182037353516,-20.8902587890625,2,11987.90083191667,2,0,1580908272.141998,1580903939.50652,2649,0.4776885,0,0,3222.849,10,15,1580908272.535977,11986.219518,0,6.344208,97.12942
1580908272.937721,59,0,1580907286.99823,41.20781296037784,29.0754925099451,275.2123,0.1345286,-1,23.46983528137207,200,-9999,11988.733866375,0.9719696044921875,0.0928497314453125,-0.1470489501953125,11988.723826375,-1.030079698636271,1.411273860312468,-0.08788411220247877,0.00856385100632906,0.1274048984050751,0.05637243390083313,-0.02567946910858154,0.002555787563323975,0.002555906772613525,2,-0.2900321444598342,-0.5803141340802288,0.3993737380330574,-0.6477789302947295,0.9834929704666138,0.08777102828025818,-0.158233717083931,38.85446166992188,4.961847305297852,-20.822509765625,2,11987.90083191667,2,0,1580908272.141998,1580903939.50652,2649,0.4776885,0,0,3222.849,10,15,1580908272.535977,11986.219518,0,6.344208,97.12942
1580908272.971823,60,0,1580907286.99823,41.20781296037784,29.0754925099451,275.2123,0.1345286,-1,23.46983528137207,200,-9999,11988.743907375,0.9816436767578125,0.0895233154296875,-0.1419219970703125,11988.733866375,-1.030120543645377,1.412379881151367,-0.08725853688879318,0.01292324811220169,0.113076239824295,0.06183038279414177,-0.01568502187728882,0.005561448633670807,0.006920695304870605,2,-0.2904761042512497,-0.580556962962109,0.3990551625822024,-0.6475587041181017,0.9837214350700378,0.08714784681797028,-0.1571544855833054,38.85446166992188,4.961847305297852,-20.822509765625,2,11987.90083191667,2,0,1580908272.141998,1580903939.50652,2649,0.4776885,0,0,3222.849,10,15,1580908272.535977,11986.219518,0,6.344208,97.12942
1580908272.973257,61,0,1580907286.99823,41.20781296037784,29.0754925099451,275.2123,0.1345286,-1,23.46983528137207,200,-9999,11988.753947375,0.979522705078125,0.08642578125,-0.1423797607421875,11988.743907375,-1.029860741766224,1.413192330619603,-0.08665705939783376,0.01292218454182148,0.08106715977191925,0.05875017121434212,-0.006526172161102295,0.003126174211502075,0.011330246925354,2,-0.290765799632453,-0.5807525656184791,0.3986881617263342,-0.6474793523200107,0.9839003682136536,0.08654864132404327,-0.1563634127378464,38.86048126220703,4.711692810058594,-20.78753662109375,2,11987.90083191667,2,0,1580908272.141998,1580903939.50652,2649,0.4776885,0,0,3222.849,10,15,1580908272.535977,11986.219518,0,6.344208,97.12942
1580908272.974313,62,0,1580907286.99823,41.20781296037784,29.0754925099451,275.2123,0.1345286,-1,23.46983528137207,200,-9999,11988.763987375,0.96649169921875,0.0868682861328125,-0.148895263671875,11988.753947375,-1.029895746580483,1.413783380202148,-0.08608683869924445,0.0131602119654417,0.05802368372678757,0.05446485057473183,-0.006682932376861572,0.000339217483997345,0.01090675592422485,2,-0.2910862395618936,-0.5808390774552492,0.398457143359735,-0.6473999120855924,0.9840410947799683,0.08598054945468903,-0.1557895392179489,38.86048126220703,4.711692810058594,-20.78753662109375,2,11987.90083191667,2,0,1580908272.141998,1580903939.50652,2649,0.4776885,0,0,3222.849,10,15,1580908272.535977,11986.219518,0,6.344208,97.12942
1580908272.978166,63,0,1580907286.99823,41.20781296037784,29.0754925099451,275.2123,0.1345286,-1,23.46983528137207,200,-9999,11988.774028375,0.9632415771484375,0.0880279541015625,-0.1504669189453125,11988.763987375,-1.029635965592889,1.41434629129077,-0.08547550465216051,0.01321693882346153,0.05766841769218445,0.06005961820483208,-0.01996046304702759,0.0009350776672363281,0.004163980484008789,2,-0.2913291555607865,-0.580952192858929,0.3981233444483516,-0.6473945220704564,0.9841803908348083,0.0853714644908905,-0.1552437394857407,38.80080413818359,4.460197448730469,-20.7337646484375,2,11987.90083191667,2,0,1580908272.141998,1580903939.50652,2649,0.4776885,0,0,3222.849,10,15,1580908272.535977,11986.219518,0,6.344208,97.12942
1580908272.987813,64,0,1580907286.99823,41.20781296037784,29.0754925099451,275.2123,0.1345286,-1,23.46983528137207,200,-9999,11988.784068375,0.9644317626953125,0.084320068359375,-0.152313232421875,11988.774028375,-1.029697448099214,1.414961706118591,-0.08487104920242264,0.01734531298279762,0.06195216625928879,0.05824065953493118,-0.02457797527313232,0.003309406340122223,0.001397609710693359,2,-0.2916733574072271,-0.5810366954819896,0.3978875878758158,-0.6473086622794099,0.9843266010284424,0.08476919680833817,-0.154646024107933,38.80080413818359,4.460197448730469,-20.7337646484375,2,11987.90083191667,2,0,1580908272.141998,1580903939.50652,2649,0.4776885,0,0,3222.849,10,15,1580908272.535977,11986.219518,0,6.344208,97.12942
1580908272.997834,65,0,1580907286.99823,41.20781296037784,29.0754925099451,275.2123,0.1345286,-1,23.46983528137207,200,-9999,11988.794139375,0.9695281982421875,0.083984375,-0.14862060546875,11988.784068375,-1.029454942253369,1.415680452425348,-0.08427916075680696,0.01503821555525064,0.07431216537952423,0.05711334198713303,-0.0233502984046936,0.0001932829618453979,-0.0008913874626159668,2,-0.2919453748058252,-0.5812011540964722,0.3975416199217524,-0.6472510017023771,0.9844869375228882,0.08417942374944687,-0.1539462357759476,38.94931793212891,4.439779281616211,-20.70135498046875,2,11987.90083191667,2,0,1580908272.141998,1580903939.50652,2649,0.4776885,0,0,3222.849,10,15,1580908272.535977,11986.219518,0,6.344208,97.12942
1580908273.03086,66,0,1580907286.99823,41.20781296037784,29.0754925099451,275.2123,0.1345286,-1,23.46983528137207,200,-9999,11988.804179375,0.97857666015625,0.08233642578125,-0.1432037353515625,11988.794139375,-1.029197088727342,1.416398215166663,-0.08365354068972784,0.01399377081543207,0.07228439301252365,0.06293100118637085,-0.01940864324569702,0.0001168474555015564,0.001031875610351562,2,-0.2922238885368699,-0.5813616588290932,0.3971813414697703,-0.6472023913982063,0.9846490621566772,0.08355601131916046,-0.1532476395368576,39.04452514648438,4.448122024536133,-20.76226806640625,2,11987.90083191667,2,0,1580908272.141998,1580903939.50652,2649,0.4776885,0,0,3222.849,10,15,1580908272.535977,11986.219518,0,6.344208,97.12942
1580908273.032304,67,0,1580907286.99823,41.20781296037784,29.0754925099451,275.2123,0.1345286,-1,23.46983528137207,200,-9999,11988.814219375,0.9850311279296875,0.0799713134765625,-0.1385650634765625,11988.804179375,-1.029211976461802,1.416986703571581,-0.08308160750442437,0.01088825892657042,0.06024637073278427,0.05621477216482162,-0.01016223430633545,-0.0004709735512733459,0.006286323070526123,2,-0.2925377610733041,-0.5814498542218666,0.3969427716491838,-0.6471276917403319,0.9847860932350159,0.08298606425523758,-0.152675449848175,39.04452514648438,4.448122024536133,-20.76226806640625,2,11987.90083191667,2,0,1580908272.141998,1580903939.50652,2649,0.4776885,0,0,3222.849,10,15,1580908272.535977,11986.219518,0,6.344208,97.12942
1580908273.033352,68,0,1580907286.99823,41.20781296037784,29.0754925099451,275.2123,0.1345286,-1,23.46983528137207,200,-9999,11988.824260375,0.9834136962890625,0.0818023681640625,-0.13946533203125,11988.814219375,-1.028869308804116,1.417312707447418,-0.08257022233827398,0.004319907166063786,0.03132038190960884,0.05182115361094475,-0.003586113452911377,-0.002736732363700867,0.0106397271156311,2,-0.2926751023669872,-0.5815160014950193,0.3966434205237646,-0.6471895962106737,0.9848775267601013,0.0824764296412468,-0.1523608416318893,38.93877410888672,4.592153549194336,-20.40716552734375,2,11987.90083191667,2,0,1580908272.141998,1580903939.50652,2649,0.4776885,0,0,3222.849,10,15,1580908272.535977,11986.219518,0,6.344208,97.12942
1580908273.03804,69,0,1580907286.99823,41.20781296037784,29.0754925099451,275.2123,0.1345286,-1,23.46983528137207,200,-9999,11988.834300375,0.9701690673828125,0.0809783935546875,-0.1463165283203125,11988.824260375,-1.028770015211942,1.41744614367533,-0.08211471380025294,-0.002977420575916767,0.01061270758509636,0.04670282453298569,-0.003994643688201904,-0.0005112290382385254,0.01046788692474365,2,-0.2928260695937536,-0.581494032230769,0.3964663245077385,-0.6472496452529161,0.9849349856376648,0.08202246576547623,-0.1522351652383804,38.93877410888672,4.592153549194336,-20.40716552734375,2,11987.90083191667,2,0,1580908272.141998,1580903939.50652,2649,0.4776885,0,0,3222.849,10,15,1580908272.535977,11986.219518,0,6.344208,97.12942
1580908273.048667,70,0,1580907286.99823,41.20781296037784,29.0754925099451,275.2123,0.1345286,-1,23.46983528137207,200,-9999,11988.844340375,0.96185302734375,0.081695556640625,-0.1491851806640625,11988.834300375,-1.028352041922654,1.417562000300694,-0.08166542067361203,-0.00411682715639472,0.009172569960355759,0.04702026769518852,-0.01668322086334229,-0.0009774863719940186,0.003583908081054688,2,-0.292878813195188,-0.5815141186686122,0.3961903144477544,-0.6473767125403439,0.9849888682365417,0.08157467842102051,-0.1521266549825668,39.12599182128906,4.452245712280273,-20.64495849609375,2,11987.90083191667,2,0,1580908272.141998,1580903939.50652,2649,0.4776885,0,0,3222.849,10,15,1580908272.535977,11986.219518,0,6.344208,97.12942
1580908273.058075,71,0,1580907286.99823,41.20781296037784,29.0754925099451,275.2123,0.1345286,-1,23.46983528137207,200,-9999,11988.854380375,0.958282470703125,0.082427978515625,-0.149871826171875,11988.844340375,-1.028235109370258,1.417804058676771,-0.08120495422265243,-0.005312852561473846,0.02205321565270424,0.04751987755298615,-0.02589726448059082,0.0004443228244781494,-8.279085159301758e-05,2,-0.2930478178311621,-0.5815290273386998,0.3959901165754904,-0.6474092886529405,0.9850626587867737,0.08111573755741119,-0.1518939286470413,39.12599182128906,4.452245712280273,-20.64495849609375,2,11987.90083191667,2,0,1580908272.141998,1580903939.50652,2649,0.4776885,0,0,3222.849,10,15,1580908272.535977,11986.219518,0,6.344208,97.12942
1580908273.093099,72,0,1580907286.99823,41.20781296037784,29.0754925099451,275.2123,0.1345286,-1,23.46983528137207,200,-9999,11988.864421375,0.9625396728515625,0.0858154296875,-0.1460418701171875,11988.854380375,-1.027837997016026,1.41821789836339,-0.08070037961260364,-0.0007019899785518646,0.04086221009492874,0.05204610526561737,-0.0301663875579834,0.001284614205360413,-0.001080691814422607,2,-0.2931841080242418,-0.5816329115360448,0.3956618096128542,-0.6474550228374589,0.9851658344268799,0.08061281591653824,-0.1514924764633179,39.00974273681641,4.367671966552734,-20.40557861328125,2,11987.90083191667,2,0,1580908272.141998,1580903939.50652,2649,0.4776885,0,0,3222.849,10,15,1580908272.535977,11986.219518,0,6.344208,97.12942
1580908273.094899,73,0,1580907286.99823,41.20781296037784,29.0754925099451,275.2123,0.1345286,-1,23.46983528137207,200,-9999,11988.874461375,0.968658447265625,0.08447265625,-0.14202880859375,11988.864421375,-1.027772531359923,1.418681755965586,-0.08012909873077805,0.001171277835965157,0.04517626017332077,0.05847417935729027,-0.02669668197631836,0.005411237478256226,0.001565039157867432,2,-0.2934491088250265,-0.5816927100627448,0.3954150058368747,-0.6474319773416563,0.9852812886238098,0.08004337549209595,-0.1510424166917801,39.00974273681641,4.367671966552734,-20.40557861328125,2,11987.90083191667,2,0,1580908272.141998,1580903939.50652,2649,0.4776885,0,0,3222.849,10,15,1580908272.535977,11986.219518,0,6.344208,97.12942
1580908273.096698,74,0,1580907286.99823,41.20781296037784,29.0754925099451,275.2123,0.1345286,-1,23.46983528137207,200,-9999,11988.884501375,0.973846435546875,0.0828857421875,-0.138916015625,11988.874461375,-1.027435194533312,1.419088899383567,-0.07952119599153505,0.005769882351160049,0.04079201817512512,0.06040314584970474,-0.02090126276016235,0.004981651902198792,0.005381286144256592,2,-0.2936360342728506,-0.5817676441189192,0.3950782673085799,-0.6474854055235385,0.9853905439376831,0.07943741232156754,-0.1506485790014267,39.24143218994141,4.280305862426758,-20.274169921875,2,11987.90083191667,2,0,1580908272.141998,1580903939.50652,2649,0.4776885,0,0,3222.849,10,15,1580908272.535977,11986.219518,0,6.344208,97.12942
1580908273.098592,75,0,1580907286.99823,41.20781296037784,29.0754925099451,275.2123,0.1345286,-1,23.46983528137207,200,-9999,11988.894572375,0.9745635986328125,0.08203125,-0.1383514404296875,11988.884501375,-1.027419986748795,1.419347592085106,-0.07890455377298393,0.00881147850304842,0.0262112133204937,0.06127239763736725,-0.01546508073806763,0.003980979323387146,0.008627116680145264,2,-0.2938901262308191,-0.5817457155585208,0.3948650857157791,-0.6475199507183934,0.9854778051376343,0.07882270216941833,-0.1504010260105133,39.24143218994141,4.280305862426758,-20.274169921875,2,11987.90083191667,2,0,1580908272.141998,1580903939.50652,2649,0.4776885,0,0,3222.849,10,15,1580908272.535977,11986.219518,0,6.344208,97.12942
1580908273.108411,76,0,1580907286.99823,41.20781296037784,29.0754925099451,275.2123,0.1345286,-1,23.46983528137207,200,-9999,11988.904612375,0.9664306640625,0.0803070068359375,-0.142181396484375,11988.894572375,-1.027118218108996,1.419463361905363,-0.07826550779963704,0.008911780081689358,0.009770559147000313,0.06424131989479065,-0.01365554332733154,0.003796234726905823,0.009054243564605713,2,-0.2940401532918748,-0.5817156818398332,0.3945738392540182,-0.6476563587839976,0.9855448007583618,0.07818563282489777,-0.1502945125102997,39.15085601806641,4.135211944580078,-20.3328857421875,2,11987.90083191667,2,0,1580908272.141998,1580903939.50652,2649,0.4776885,0,0,3222.849,10,15,1580908272.535977,11986.219518,0,6.344208,97.12942
1580908273.118896,77,0,1580907286.99823,41.20781296037784,29.0754925099451,275.2123,0.1345286,-1,23.46983528137207,200,-9999,11988.914653375,0.965362548828125,0.0811920166015625,-0.1437835693359375,11988.904612375,-1.027161425432045,1.419556651429577,-0.07761738148740316,0.01419522520154715,0.009488796815276146,0.0632610097527504,-0.02206623554229736,0.00253719836473465,0.005658507347106934,2,-0.294289081370052,-0.5816260379796839,0.3943950253035643,-0.6477327649614439,0.9856087565422058,0.07753947377204895,-0.1502101719379425,39.15085601806641,4.135211944580078,-20.3328857421875,2,11987.90083191667,2,0,1580908272.141998,1580903939.50652,2649,0.4776885,0,0,3222.849,10,15,1580908272.535977,11986.219518,0,6.344208,97.12942
1580908273.147457,78,0,1580907286.99823,41.20781296037784,29.0754925099451,275.2123,0.1345286,-1,23.46983528137207,200,-9999,11988.924693375,0.9593963623046875,0.0804901123046875,-0.14300537109375,11988.914653375,-1.026980802328166,1.419683713540583,-0.07698406670332214,0.02233052998781204,0.01399445720016956,0.06029580533504486,-0.02336990833282471,0.003948971629142761,0.003495693206787109,2,-0.2944745295942233,-0.5815828321789754,0.3941427751877946,-0.6478409114948828,0.9856763482093811,0.07690804451704025,-0.1500923186540604,39.18125152587891,4.155364990234375,-20.36248779296875,2,11987.90083191667,2,0,1580908272.141998,1580903939.50652,2649,0.4776885,0,0,3222.849,10,15,1580908272.535977,11986.219518,0,6.344208,97.12942
1580908273.149033,79,0,1580907286.99823,41.20781296037784,29.0754925099451,275.2123,0.1345286,-1,23.46983528137207,200,-9999,11988.934733375,0.9599456787109375,0.0806884765625,-0.1386871337890625,11988.924693375,-1.027185455488704,1.419833035761098,-0.07633559153067269,0.03088300675153732,0.01825285144150257,0.06291608512401581,-0.0289347767829895,0.00385003536939621,0.003508031368255615,2,-0.2947815037570256,-0.5814873769267637,0.394007769276827,-0.6478690261027393,0.985747754573822,0.07626147568225861,-0.1499525904655457,39.18125152587891,4.155364990234375,-20.36248779296875,2,11987.90083191667,2,0,1580908272.141998,1580903939.50652,2649,0.4776885,0,0,3222.849,10,15,1580908272.535977,11986.219518,0,6.344208,97.12942
1580908273.150049,80,0,1580907286.99823,41.20781296037784,29.0754925099451,275.2123,0.1345286,-1,23.46983528137207,200,-9999,11988.944773375,0.9588775634765625,0.0809783935546875,-0.13818359375,11988.934733375,-1.027175742205413,1.419928277480653,-0.07567155872412039,0.03919751197099686,0.01274158246815205,0.06336274743080139,-0.02930444478988647,0.004605904221534729,0.007983505725860596,2,-0.2950206806504027,-0.5814031877980065,0.3938069226402942,-0.6479576929668519,0.985811710357666,0.07559935748577118,-0.1498662680387497,39.02877807617188,4.193655014038086,-20.3380126953125,2,11987.90083191667,2,0,1580908272.141998,1580903939.50652,2649,0.4776885,0,0,3222.849,10,15,1580908272.535977,11986.219518,0,6.344208,97.12942
1580908273.158603,81,0,1580907286.99823,41.20781296037784,29.0754925099451,275.2123,0.1345286,-1,23.46983528137207,200,-9999,11988.954814375,0.9572601318359375,0.0757598876953125,-0.1414947509765625,11988.944773375,-1.027603571709308,1.419996391616132,-0.07503709045082892,0.05303822830319405,0.009984942153096199,0.05728861317038536,-0.03001827001571655,0.00600365549325943,0.008854210376739502,2,-0.2953716138840944,-0.5812507674826829,0.3937599739860052,-0.6479632144218841,0.985869288444519,0.07496669143438339,-0.1498063057661057,39.02877807617188,4.193655014038086,-20.3380126953125,2,11987.90083191667,2,0,1580908272.141998,1580903939.50652,2649,0.4776885,0,0,3222.849,10,15,1580908272.535977,11986.219518,0,6.344208,97.12942
1580908273.168712,82,0,1580907286.99823,41.20781296037784,29.0754925099451,275.2123,0.1345286,-1,23.46983528137207,200,-9999,11988.964854375,0.970489501953125,0.0749664306640625,-0.1392822265625,11988.954814375,-1.027840001179122,1.420105008804059,-0.07445381783846944,0.06274805963039398,0.01570946350693703,0.04849540069699287,-0.03236669301986694,0.001750171184539795,0.005716502666473389,2,-0.2956577112937684,-0.5811485589496723,0.393659141141678,-0.647985527128063,0.9859284162521362,0.07438504695892334,-0.1497057378292084,39.20755767822266,3.838895797729492,-20.5028076171875,2,11987.90083191667,2,0,1580908272.141998,1580903939.50652,2649,0.4776885,0,0,3222.849,10,15,1580908272.535977,11986.219518,0,6.344208,97.12942
1580908273.178731,83,0,1580907286.99823,41.20781296037784,29.0754925099451,275.2123,0.1345286,-1,23.46983528137207,200,-9999,11988.974894375,0.9837646484375,0.07427978515625,-0.136260986328125,11988.964854375,-1.028419050141471,1.420123557141438,-0.07386553199038379,0.06583626568317413,0.007049396634101868,0.0495593324303627,-0.02083122730255127,0.0007519423961639404,0.006834208965301514,2,-0.296027142401817,-0.5809655102791605,0.3936812270879568,-0.647967693719866,0.9859744310379028,0.07379838079214096,-0.1496940106153488,39.20755767822266,3.838895797729492,-20.5028076171875,2,11987.90083191667,2,0,1580908272.141998,1580903939.50652,2649,0.4776885,0,0,3222.849,10,15,1580908272.535977,11986.219518,0,6.344208,97.12942
1580908273.21397,84,0,1580907286.99823,41.20781296037784,29.0754925099451,275.2123,0.1345286,-1,23.46983528137207,200,-9999,11988.984965375,0.9760284423828125,0.0748291015625,-0.142486572265625,11988.974894375,-1.028696586203453,1.41994639578088,-0.0732739808289669,0.06601281464099884,-0.01360712293535471,0.05009321868419647,-0.005817830562591553,0.001053959131240845,0.01109015941619873,2,-0.296271495842053,-0.5807629325423282,0.3936336984549476,-0.6480665504723971,0.9859909415245056,0.07320842891931534,-0.1498752385377884,39.11522674560547,4.050655364990234,-20.5010986328125,2,11987.90083191667,2,0,1580908272.141998,1580903939.50652,2649,0.4776885,0,0,3222.849,10,15,1580908272.535977,11986.219518,0,6.344208,97.12942
1580908273.215251,85,0,1580907286.99823,41.20781296037784,29.0754925099451,275.2123,0.1345286,-1,23.46983528137207,200,-9999,11988.995005375,0.969085693359375,0.0695953369140625,-0.140960693359375,11988.984965375,-1.029324216479505,1.419705675193048,-0.07269860440721683,0.06951566785573959,-0.01963545382022858,0.04821595549583435,-0.01229310035705566,0.001919612288475037,0.005383431911468506,2,-0.2965995361454014,-0.5804905480150983,0.3937135477139586,-0.6481119394613779,0.9859962463378906,0.07263458520174026,-0.1501188725233078,39.11522674560547,4.050655364990234,-20.5010986328125,2,11987.90083191667,2,0,1580908272.141998,1580903939.50652,2649,0.4776885,0,0,3222.849,10,15,1580908272.535977,11986.219518,0,6.344208,97.12942
1580908273.216257,86,0,1580907286.99823,41.20781296037784,29.0754925099451,275.2123,0.1345286,-1,23.46983528137207,200,-9999,11989.005046375,0.9756011962890625,0.0557403564453125,-0.1359710693359375,11988.995005375,-1.029726816835249,1.419367191513154,-0.07229805503594663,0.07615892589092255,-0.02761881239712238,0.03060127794742584,-0.01991540193557739,-0.001890942454338074,0.005829513072967529,2,-0.2967841993853626,-0.5802505026965871,0.3937834206077663,-0.6481998849429167,0.9859740138053894,0.07223508507013321,-0.1504569798707962,39.14576721191406,3.760171890258789,-20.57073974609375,2,11987.90083191667,2,0,1580908272.141998,1580903939.50652,2649,0.4776885,0,0,3222.849,10,15,1580908272.535977,11986.219518,0,6.344208,97.12942
1580908273.218698,87,0,1580907286.99823,41.20781296037784,29.0754925099451,275.2123,0.1345286,-1,23.46983528137207,200,-9999,11989.015086375,0.9913787841796875,0.0504608154296875,-0.1339111328125,11989.005046375,-1.030415264873418,1.418766045322961,-0.07221779468125213,0.06946373730897903,-0.05371938645839691,-0.001958530396223068,-0.01473379135131836,-0.01519258320331573,0.01205557584762573,2,-0.2968924401733967,-0.5799393139624224,0.394073578171816,-0.6482524177962254,0.9858890771865845,0.07215503603219986,-0.1510505378246307,39.14576721191406,3.760171890258789,-20.57073974609375,2,11987.90083191667,2,0,1580908272.141998,1580903939.50652,2649,0.4776885,0,0,3222.849,10,15,1580908272.535977,11986.219518,0,6.344208,97.12942
1580908273.229052,88,0,1580907286.99823,41.20781296037784,29.0754925099451,275.2123,0.1345286,-1,23.46983528137207,200,-9999,11989.025126375,1.0054931640625,0.0529937744140625,-0.1297149658203125,11989.015086375,-1.030713975947373,1.417778062512452,-0.07245457411681548,0.0549359954893589,-0.09249589592218399,-0.03131768852472305,0.0006771683692932129,-0.02212813496589661,0.01481568813323975,2,-0.2967047638637226,-0.5796165351648888,0.3943824690905695,-0.6484392068288991,0.9857224822044373,0.07239119708538055,-0.1520219147205353,39.20622253417969,4.018585205078125,-20.56414794921875,2,11987.90083191667,2,0,1580908272.141998,1580903939.50652,2649,0.4776885,0,0,3222.849,10,15,1580908272.535977,11986.219518,0,6.344208,97.12942
1580908273.238947,89,0,1580907286.99823,41.20781296037784,29.0754925099451,275.2123,0.1345286,-1,23.46983528137207,200,-9999,11989.035166375,0.99285888671875,0.0601043701171875,-0.1356201171875,11989.025126375,-1.031228649510594,1.416254853798008,-0.07297864555274813,0.04256081953644753,-0.1496134996414185,-0.06043695658445358,0.01579511165618896,-0.02051635831594467,0.02072584629058838,2,-0.2963772458524698,-0.5791388988804662,0.394919900161068,-0.6486885786863205,0.9854521155357361,0.07291388511657715,-0.1535173207521439,39.20622253417969,4.018585205078125,-20.56414794921875,2,11987.90083191667,2,0,1580908272.141998,1580903939.50652,2649,0.4776885,0,0,3222.849,10,15,1580908272.535977,11986.219518,0,6.344208,97.12942
1580908273.273494,90,0,1580907286.99823,41.20781296037784,29.0754925099451,275.2123,0.1345286,-1,23.46983528137207,200,-9999,11989.045207375,0.9676055908203125,0.0697174072265625,-0.1474456787109375,11989.035166375,-1.031308512590188,1.414401209003235,-0.07361980690644492,0.02816078253090382,-0.1825351864099503,-0.06953434646129608,0.007095515727996826,-0.01461193710565567,0.01811063289642334,2,-0.2958185637419717,-0.5786390608330032,0.3953970202892293,-0.6490988815456374,0.9851194620132446,0.07355332374572754,-0.1553364247083664,39.10894012451172,4.018228530883789,-20.75537109375,2,11987.90083191667,2,0,1580908272.141998,1580903939.50652,2649,0.4776885,0,0,3222.849,10,15,1580908272.535977,11986.219518,0,6.344208,97.12942
1580908273.274912,91,0,1580907286.99823,41.20781296037784,29.0754925099451,275.2123,0.1345286,-1,23.46983528137207,200,-9999,11989.055247375,0.959228515625,0.0815887451171875,-0.15216064453125,11989.045207375,-1.031577194962147,1.412440821852456,-0.07415526285331421,0.0184013620018959,-0.1938802450895309,-0.05788993462920189,-0.0184217095375061,-0.005733050405979156,0.007697403430938721,2,-0.2953282253570593,-0.5780576732057849,0.3959213976437256,-0.6495205209779543,0.9847741723060608,0.07408732175827026,-0.1572611331939697,39.10894012451172,4.018228530883789,-20.75537109375,2,11987.90083191667,2,0,1580908272.141998,1580903939.50652,2649,0.4776885,0,0,3222.849,10,15,1580908272.535977,11986.219518,0,6.344208,97.12942
1580908273.275936,92,0,1580907286.99823,41.20781296037784,29.0754925099451,275.2123,0.1345286,-1,23.46983528137207,200,-9999,11989.065287375,0.96832275390625,0.079833984375,-0.153900146484375,11989.055247375,-1.03146084701845,1.410438477436845,-0.07441739301710049,0.01324560958892107,-0.1987496614456177,-0.02640878036618233,-0.02859818935394287,0.006257437169551849,0.004361987113952637,2,-0.2948098183911878,-0.577470688972229,0.3962510762754672,-0.6500767863110644,0.9844380021095276,0.07434872537851334,-0.1592295467853546,39.00932312011719,3.879493713378906,-21.02154541015625,2,11987.90083191667,2,0,1580908272.141998,1580903939.50652,2649,0.4776885,0,0,3222.849,10,15,1580908272.535977,11986.219518,0,6.344208,97.12942
1580908273.279205,93,0,1580907286.99823,41.20781296037784,29.0754925099451,275.2123,0.1345286,-1,23.46983528137207,200,-9999,11989.075328375,0.97967529296875,0.0705718994140625,-0.1575775146484375,11989.065287375,-1.031606122185173,1.408380818345535,-0.07456789443842829,0.01102879364043474,-0.205188125371933,-0.01533722039312124,-0.02052021026611328,0.00596947968006134,0.004774689674377441,2,-0.2943931268214591,-0.5768068711330122,0.3966427362633562,-0.6506159060212697,0.9840972423553467,0.07449880987405777,-0.161253035068512,39.00932312011719,3.879493713378906,-21.02154541015625,2,11987.90083191667,2,0,1580908272.141998,1580903939.50652,2649,0.4776885,0,0,3222.849,10,15,1580908272.535977,11986.219518,0,6.344208,97.12942
1580908273.289151,94,0,1580907286.99823,41.20781296037784,29.0754925099451,275.2123,0.1345286,-1,23.46983528137207,200,-9999,11989.085398375,0.973968505859375,0.0714569091796875,-0.1622467041015625,11989.075328375,-1.031398469953436,1.406325484195346,-0.07479117019184874,0.006481803953647614,-0.2064322084188461,-0.02493783086538315,-0.007779061794281006,-0.003866948187351227,0.003459393978118896,2,-0.2938501745556695,-0.576208091683109,0.3969386394133758,-0.6512111989574401,0.9837473034858704,0.07472146302461624,-0.1632726192474365,39.07425689697266,4.191438674926758,-21.1591796875,2,11987.90083191667,2,0,1580908272.141998,1580903939.50652,2649,0.4776885,0,0,3222.849,10,15,1580908272.535977,11986.219518,0,6.344208,97.12942
1580908273.299302,95,0,1580907286.99823,41.20781296037784,29.0754925099451,275.2123,0.1345286,-1,23.46983528137207,200,-9999,11989.095439375,0.96392822265625,0.079071044921875,-0.1630859375,11989.085398375,-1.031415122985599,1.404386932908297,-0.07499590493051032,-0.001784648280590773,-0.1931973546743393,-0.02285843342542648,-0.01150304079055786,-0.004376932978630066,0.0004721879959106445,2,-0.293400915967263,-0.5756105368622677,0.397284739578688,-0.6517309932328423,0.9834138751029968,0.07492562383413315,-0.1651768237352371,39.07425689697266,4.191438674926758,-21.1591796875,2,11987.90083191667,2,0,1580908272.141998,1580903939.50652,2649,0.4776885,0,0,3222.849,10,15,1580908272.535977,11986.219518,0,6.344208,97.12942
1580908273.329935,96,0,1580907286.99823,41.20781296037784,29.0754925099451,275.2123,0.1345286,-1,23.46983528137207,200,-9999,11989.105479375,0.9600982666015625,0.0807952880859375,-0.167633056640625,11989.095439375,-1.031067046910637,1.402589686863256,-0.07502749462159654,-0.005970475263893604,-0.1828066110610962,-0.003994273953139782,-0.02177548408508301,0.003205582499504089,0.001191914081573486,2,-0.2929330495071344,-0.5750812424580796,0.3974433477024878,-0.6523116877325089,0.9831129908561707,0.07495712488889694,-0.1669435799121857,38.85732269287109,4.176074981689453,-21.36962890625,2,11987.90083191667,2,0,1580908272.141998,1580903939.50652,2649,0.4776885,0,0,3222.849,10,15,1580908272.535977,11986.219518,0,6.344208,97.12942
1580908273.331339,97,0,1580907286.99823,41.20781296037784,29.0754925099451,275.2123,0.1345286,-1,23.46983528137207,200,-9999,11989.115519375,0.961181640625,0.073272705078125,-0.16912841796875,11989.105479375,-1.030990871168421,1.400997791139894,-0.07489857160773851,-0.004165651276707649,-0.1617607176303864,0.01335781905800104,-0.02586573362350464,0.006142191588878632,-0.001386523246765137,2,-0.2926383514602036,-0.5745500741718395,0.3976163008116386,-0.6528064156853887,0.982855498790741,0.07482856512069702,-0.1685100197792053,38.85732269287109,4.176074981689453,-21.36962890625,2,11987.90083191667,2,0,1580908272.141998,1580903939.50652,2649,0.4776885,0,0,3222.849,10,15,1580908272.535977,11986.219518,0,6.344208,97.12942
1580908273.332332,98,0,1580907286.99823,41.20781296037784,29.0754925099451,275.2123,0.1345286,-1,23.46983528137207,200,-9999,11989.125560375,0.95953369140625,0.0688018798828125,-0.17431640625,11989.115519375,-1.030575962642714,1.399646292435141,-0.07479915738905649,-0.01022044010460377,-0.1389051228761673,0.01074022054672241,-0.02486538887023926,-0.0008994489908218384,-0.001654863357543945,2,-0.2922841515343411,-0.5741517655819538,0.3976513044058964,-0.6532940073203861,0.9826341867446899,0.07472942769527435,-0.1698394566774368,38.78274536132812,4.262495040893555,-21.70611572265625,2,11987.90083191667,2,0,1580908272.141998,1580903939.50652,2649,0.4776885,0,0,3222.849,10,15,1580908272.535977,11986.219518,0,6.344208,97.12942
1580908273.339339,99,0,1580907286.99823,41.20781296037784,29.0754925099451,275.2123,0.1345286,-1,23.46983528137207,200,-9999,11989.13560904167,0.963775634765625,0.06976318359375,-0.1695709228515625,11989.125560375,-1.030490948167407,1.398588906479688,-0.0748479280433291,-0.008224934339523315,-0.1050624698400497,-0.004190259613096714,-0.02625268697738647,-0.005907326936721802,-0.006014347076416016,2,-0.2920328960756551,-0.5738274063968853,0.3977913102598641,-0.6536062458802542,0.9824506640434265,0.07477806508541107,-0.1708777844905853,38.78274536132812,4.262495040893555,-21.70611572265625,2,11987.90083191667,2,0,1580908272.141998,1580903939.50652,2649,0.4776885,0,0,3222.849,10,15,1580908272.535977,11986.219518,0,6.344208,97.12942
1580908273.349398,100,0,1580907286.99823,41.20781296037784,29.0754925099451,275.2123,0.1345286,-1,23.46983528137207,200,-9999,11989.14564904167,0.9576873779296875,0.0778961181640625,-0.167327880859375,11989.13560904167,-1.030091145639574,1.397659387850384,-0.07499077403380774,-0.01136696804314852,-0.09343934059143066,-0.01347158942371607,-0.02226781845092773,-0.006004489958286285,-0.00140756368637085,2,-0.291684930207159,-0.5736073226954501,0.3978352249860299,-0.6539280055472746,0.9822808504104614,0.07492050528526306,-0.1717890799045563,38.62641906738281,4.366666793823242,-21.97821044921875,2,11987.90083191667,2,0,1580908272.141998,1580903939.50652,2649,0.4776885,0,0,3222.849,10,15,1580908272.535977,11986.219518,0,6.344208,97.12942
1580908273.359475,101,0,1580907286.99823,41.20781296037784,29.0754925099451,275.2123,0.1345286,-1,23.46983528137207,200,-9999,11989.15568904167,0.9397430419921875,0.0833892822265625,-0.174346923828125,11989.14564904167,-1.029975183696579,1.396860068162882,-0.07500897947121878,-0.01130438409745693,-0.08363917469978333,-2.875179052352905e-05,-0.02609574794769287,0.001881323754787445,0.00272136926651001,2,-0.2914865415826313,-0.5733660569305679,0.3979187930566186,-0.654177025015002,0.9821417331695557,0.07493866235017776,-0.1725739240646362,38.62641906738281,4.366666793823242,-21.97821044921875,2,11987.90083191667,2,0,1580908272.141998,1580903939.50652,2649,0.4776885,0,0,3222.849,10,15,1580908272.535977,11986.219518,0,6.344208,97.12942
1580908273.389334,102,0,1580907286.99823,41.20781296037784,29.0754925099451,275.2123,0.1345286,-1,23.46983528137207,200,-9999,11989.16573004167,0.9383087158203125,0.08172607421875,-0.1772003173828125,11989.15568904167,-1.029616694084388,1.396404556939361,-0.07484643578002705,-0.003009507898241282,-0.04615510255098343,0.01811797171831131,-0.04412579536437988,0.008055932819843292,-0.003419339656829834,2,-0.2913482281988679,-0.5732403546947414,0.3978235951262962,-0.6544067661622427,0.9820751547813416,0.07477657496929169,-0.1730234175920486,38.54621124267578,4.201309204101562,-22.052734375,2,11987.90083191667,2,0,1580908272.141998,1580903939.50652,2649,0.4776885,0,0,3222.849,10,15,1580908272.535977,11986.219518,0,6.344208,97.12942
1580908273.390759,103,0,1580907286.99823,41.20781296037784,29.0754925099451,275.2123,0.1345286,-1,23.46983528137207,200,-9999,11989.17577004167,0.958404541015625,0.0759735107421875,-0.173095703125,11989.16573004167,-1.02964213738,1.396295413395397,-0.07461504950920313,0.007023951038718224,-0.009622924029827118,0.02231617644429207,-0.04819792509078979,0.007295615971088409,-0.006726861000061035,2,-0.2914123155975732,-0.5731597319097378,0.3977847584530387,-0.6544723012783156,0.9820730686187744,0.07454583048820496,-0.1731335669755936,38.54621124267578,4.201309204101562,-22.052734375,2,11987.90083191667,2,0,1580908272.141998,1580903939.50652,2649,0.4776885,0,0,3222.849,10,15,1580908272.535977,11986.219518,0,6.344208,97.12942
1580908273.391799,104,0,1580907286.99823,41.20781296037784,29.0754925099451,275.2123,0.1345286,-1,23.46983528137207,200,-9999,11989.18584104167,0.9716033935546875,0.071258544921875,-0.1666717529296875,11989.17577004167,-1.029393112032481,1.396343347523816,-0.07441340518733573,0.007287024520337582,0.005316119641065598,0.02065917104482651,-0.02925443649291992,0.001836374402046204,-0.003536522388458252,2,-0.2914188139782671,-0.5731758167171112,0.3976413291980355,-0.6545425695278684,0.982096254825592,0.07434474676847458,-0.1730891168117523,38.60121917724609,4.400333404541016,-22.062255859375,2,11987.90083191667,2,0,1580908272.141998,1580903939.50652,2649,0.4776885,0,0,3222.849,10,15,1580908272.535977,11986.219518,0,6.344208,97.12942
1580908273.399599,105,0,1580907286.99823,41.20781296037784,29.0754925099451,275.2123,0.1345286,-1,23.46983528137207,200,-9999,11989.19588104167,0.9695281982421875,0.0728912353515625,-0.1671142578125,11989.18584104167,-1.029468802316889,1.396394291605196,-0.07432059798459001,0.009755774401128292,0.005538493394851685,0.007121524773538113,-0.0141029953956604,-0.002999350428581238,0.003357112407684326,2,-0.2914820931817714,-0.5731649393511969,0.397633381083432,-0.6545287626445095,0.9821118712425232,0.07425219565629959,-0.1730402857065201,38.60121917724609,4.400333404541016,-22.062255859375,2,11989.18642104167,1,2,1580908273.427588,1580903939.50652,2649,0.4776885,0,0,3222.849,10,15,1580908272.535977,11986.219518,0,6.344208,97.12942
1580908273.41022,106,0,1580907286.99823,41.20781296037784,29.0754925099451,275.2123,0.1345286,-1,23.46983528137207,200,-9999,11989.20592104167,0.9643707275390625,0.076416015625,-0.170074462890625,11989.19588104167,-1.029201216214019,1.396471701078456,-0.07423937759794427,0.002715392969548702,0.007485575973987579,0.007103962823748589,-0.01558738946914673,-0.001911044120788574,0.003068089485168457,2,-0.2914483347201502,-0.5732148098369644,0.3975123843814357,-0.6545735979103534,0.9821311831474304,0.07417120039463043,-0.1729653030633926,38.58644104003906,4.414520263671875,-22.1883544921875,2,11989.18642104167,1,2,1580908273.427588,1580903939.50652,2649,0.4776885,0,0,3222.849,10,15,1580908272.535977,11986.219518,0,6.344208,97.12942
1580908273.419768,107,0,1580907286.99823,41.20781296037784,29.0754925099451,275.2123,0.1345286,-1,23.46983528137207,200,-9999,11989.21596204167,0.9602203369140625,0.0784454345703125,-0.171051025390625,11989.20592104167,-1.029216045139842,1.396657417958904,-0.07409736665359015,0.003896238282322884,0.01941920071840286,0.01221137307584286,-0.02051293849945068,0.00206100195646286,0.0001401305198669434,2,-0.2915376745558484,-0.5732481427278791,0.397451446746023,-0.6545415218360111,0.9821735620498657,0.0740295797586441,-0.1727847009897232,38.58644104003906,4.414520263671875,-22.1883544921875,2,11989.18642104167,1,2,1580908273.427588,1580903939.50652,2649,0.4776885,0,0,3222.849,10,15,1580908272.535977,11986.219518,0,6.344208,97.12942
1580908273.446702,108,0,1580907286.99823,41.20781296037784,29.0754925099451,275.2123,0.1345286,-1,23.46983528137207,200,-9999,11989.22600204167,0.9590301513671875,0.078399658203125,-0.173095703125,11989.21596204167,-1.028907810637187,1.397002671160575,-0.07382892421521552,0.004318223334848881,0.03410375118255615,0.02674180641770363,-0.024971604347229,0.004236981272697449,-0.001264512538909912,2,-0.2916088408551944,-0.5733583131609544,0.3972270377043046,-0.654549729971604,0.9822528958320618,0.07376187294721603,-0.1724490523338318,38.50441741943359,4.406713485717773,-22.14697265625,2,11989.18642104167,1,2,1580908273.427588,1580903939.50652,2649,0.4776885,0,0,3222.849,10,15,1580908272.535977,11986.219518,0,6.344208,97.12942
1580908273.448021,109,0,1580907286.99823,41.20781296037784,29.0754925099451,275.2123,0.1345286,-1,23.46983528137207,200,-9999,11989.23604204167,0.964080810546875,0.0724945068359375,-0.170074462890625,11989.22600204167,-1.028604647900154,1.397558965500522,-0.07346834624278115,0.006043419241905212,0.05740268528461456,0.03765730187296867,-0.02704721689224243,0.005086056888103485,-0.003914117813110352,2,-0.2917545774611822,-0.5735204239573539,0.3969483081085741,-0.6545118422060148,0.9823747873306274,0.07340227067470551,-0.1719071865081787,38.49233245849609,4.447238922119141,-22.03717041015625,2,11989.18642104167,1,2,1580908273.427588,1580903939.50652,2649,0.4776885,0,0,3222.849,10,15,1580908272.535977,11986.219518,0,6.344208,97.12942
1580908273.449779,110,0,1580907286.99823,41.20781296037784,29.0754925099451,275.2123,0.1345286,-1,23.46983528137207,200,-9999,11989.24608204167,0.969146728515625,0.068267822265625,-0.1670684814453125,11989.23604204167,-1.028614075790581,1.398215348404255,-0.07318244799288573,0.00643259659409523,0.06571780890226364,0.0278717614710331,-0.02243548631668091,-5.999207496643066e-05,-0.002161979675292969,2,-0.2919844029634786,-0.5736829675506286,0.3967775536666941,-0.6543704099323019,0.9825080037117004,0.07311714440584183,-0.1712659150362015,38.49233245849609,4.447238922119141,-22.03717041015625,2,11989.18642104167,1,2,1580908273.427588,1580903939.50652,2649,0.4776885,0,0,3222.849,10,15,1580908272.535977,11986.219518,0,6.344208,97.12942
1580908273.459919,111,0,1580907286.99823,41.20781296037784,29.0754925099451,275.2123,0.1345286,-1,23.46983528137207,200,-9999,11989.25612304167,0.97021484375,0.0696258544921875,-0.16583251953125,11989.24608204167,-1.02829060854925,1.398928352820666,-0.07296857989304617,0.001467932015657425,0.07176930457353592,0.02222080156207085,-0.01715654134750366,-0.004744060337543488,0.0003113746643066406,2,-0.2921054597493897,-0.573925426840117,0.3965091932343254,-0.6542663934260624,0.9826452136039734,0.0729038417339325,-0.1705680042505264,38.56773376464844,4.495416641235352,-22.02178955078125,2,11989.18642104167,1,2,1580908273.427588,1580903939.50652,2649,0.4776885,0,0,3222.849,10,15,1580908272.535977,11986.219518,0,6.344208,97.12942
1580908273.469905,112,0,1580907286.99823,41.20781296037784,29.0754925099451,275.2123,0.1345286,-1,23.46983528137207,200,-9999,11989.26616304167,0.9661407470703125,0.068267822265625,-0.1641845703125,11989.25612304167,-1.028221350827956,1.399656275094625,-0.07281329920720681,-0.003814185969531536,0.0727839320898056,0.01706637069582939,-0.01561373472213745,-0.003612123429775238,0.001197516918182373,2,-0.2922824457010385,-0.5741460363675072,0.396337753069323,-0.6540976533345353,0.9827802777290344,0.07274897396564484,-0.1698545962572098,38.56773376464844,4.495416641235352,-22.02178955078125,2,11989.18642104167,1,2,1580908273.427588,1580903939.50652,2649,0.4776885,0,0,3222.849,10,15,1580908272.535977,11986.219518,0,6.344208,97.12942
1580908273.479986,113,0,1580907286.99823,41.20781296037784,29.0754925099451,275.2123,0.1345286,-1,23.46983528137207,200,-9999,11989.27620304167,0.9689483642578125,0.0687408447265625,-0.1613006591796875,11989.26616304167,-1.027856592718541,1.40034934157758,-0.07275766491343413,-0.004730046726763248,0.06942009925842285,0.006572717800736427,-0.01990145444869995,-0.00441095232963562,0.001872599124908447,2,-0.292333861603344,-0.5744161031918943,0.3961019596631387,-0.6539803443904173,0.9829016923904419,0.07269348949193954,-0.1691741049289703,38.51402282714844,4.288078308105469,-22.25543212890625,2,11989.18642104167,1,2,1580908273.427588,1580903939.50652,2649,0.4776885,0,0,3222.849,10,15,1580908272.535977,11986.219518,0,6.344208,97.12942
1580908273.513798,114,0,1580907286.99823,41.20781296037784,29.0754925099451,275.2123,0.1345286,-1,23.46983528137207,200,-9999,11989.28627404167,0.972198486328125,0.07208251953125,-0.160858154296875,11989.27620304167,-1.027731361233568,1.400966679229826,-0.07274202929295824,-0.01176123507320881,0.0608651265501976,0.003882855176925659,-0.01797783374786377,-0.00465470552444458,0.004224240779876709,2,-0.2924254073576498,-0.5746334784012204,0.3959664910221298,-0.653830514514134,0.9830071330070496,0.07267789542675018,-0.16856749355793,38.51402282714844,4.288078308105469,-22.25543212890625,2,11989.18642104167,1,2,1580908273.427588,1580903939.50652,2649,0.4776885,0,0,3222.849,10,15,1580908272.535977,11986.219518,0,6.344208,97.12942
1580908273.515012,115,0,1580907286.99823,41.20781296037784,29.0754925099451,275.2123,0.1345286,-1,23.46983528137207,200,-9999,11989.29631404167,0.967864990234375,0.076019287109375,-0.1584930419921875,11989.28627404167,-1.027265086045563,1.401532966115239,-0.07270687928536562,-0.0156989861279726,0.05589140951633453,0.004903911612927914,-0.01424610614776611,-0.0009879469871520996,0.0042153000831604,2,-0.2924153814224315,-0.5748805330770727,0.3957216485475428,-0.6537660651400287,0.983104944229126,0.07264284044504166,-0.1680112332105637,38.68499755859375,4.628818511962891,-22.243896484375,2,11989.18642104167,1,2,1580908273.427588,1580903939.50652,2649,0.4776885,0,0,3222.849,10,15,1580908272.535977,11986.219518,0,6.344208,97.12942
1580908273.515936,116,0,1580907286.99823,41.20781296037784,29.0754925099451,275.2123,0.1345286,-1,23.46983528137207,200,-9999,11989.30635504167,0.9576263427734375,0.0817718505859375,-0.1620635986328125,11989.29631404167,-1.027047540023247,1.40207001897397,-0.07251242318503459,-0.01713909953832626,0.05193250626325607,0.02167605422437191,-0.01784467697143555,0.002517804503440857,0.006144702434539795,2,-0.2925248643389873,-0.5750533902888176,0.3955187531883989,-0.6536878609253062,0.983208954334259,0.07244889438152313,-0.1674856096506119,38.68499755859375,4.628818511962891,-22.243896484375,2,11989.18642104167,1,2,1580908273.427588,1580903939.50652,2649,0.4776885,0,0,3222.849,10,15,1580908272.535977,11986.219518,0,6.344208,97.12942
1580908273.520194,117,0,1580907286.99823,41.20781296037784,29.0754925099451,275.2123,0.1345286,-1,23.46983528137207,200,-9999,11989.31639504167,0.9550323486328125,0.0769195556640625,-0.1660614013671875,11989.30635504167,-1.026495484842544,1.402704140124448,-0.07205583544217606,-0.01788638159632683,0.06067832559347153,0.04941447451710701,-0.02811563014984131,0.009322375059127808,0.002640485763549805,2,-0.2926459204071177,-0.5752604297635487,0.3951204335906215,-0.6536923555089428,0.983347475528717,0.07199349999427795,-0.1668676137924194,38.52729797363281,4.481107711791992,-22.0802001953125,2,11989.18642104167,1,2,1580908273.427588,1580903939.50652,2649,0.4776885,0,0,3222.849,10,15,1580908272.535977,11986.219518,0,6.344208,97.12942
1580908273.530406,118,0,1580907286.99823,41.20781296037784,29.0754925099451,275.2123,0.1345286,-1,23.46983528137207,200,-9999,11989.32643504167,0.9622802734375,0.0708465576171875,-0.1637420654296875,11989.31639504167,-1.026230193033613,1.40354834845849,-0.07142439993362099,-0.01580874249339104,0.08268502354621887,0.06763854622840881,-0.03207039833068848,0.006154872477054596,-0.002732217311859131,2,-0.2929498400537936,-0.5754632254213397,0.3947369792701221,-0.6536094080403827,0.9835326075553894,0.07136368751525879,-0.1660449355840683,38.52729797363281,4.481107711791992,-22.0802001953125,2,11989.18642104167,1,2,1580908273.427588,1580903939.50652,2649,0.4776885,0,0,3222.849,10,15,1580908272.535977,11986.219518,0,6.344208,97.12942
1580908273.540248,119,0,1580907286.99823,41.20781296037784,29.0754925099451,275.2123,0.1345286,-1,23.46983528137207,200,-9999,11989.33647604167,0.96868896484375,0.06842041015625,-0.1597747802734375,11989.32643504167,-1.025698517365412,1.404526171292488,-0.07078502663979651,-0.01241054944694042,0.09691216051578522,0.06555062532424927,-0.02567052841186523,0.0004318803548812866,-0.001873672008514404,2,-0.2932058412482023,-0.5757473488745067,0.3942444470669865,-0.6535416534813827,0.9837393164634705,0.0707259327173233,-0.1650906503200531,38.47213745117188,4.517391204833984,-22.01190185546875,2,11989.18642104167,1,2,1580908273.427588,1580903939.50652,2649,0.4776885,0,0,3222.849,10,15,1580908272.535977,11986.219518,0,6.344208,97.12942
1580908273.567028,120,0,1580907286.99823,41.20781296037784,29.0754925099451,275.2123,0.1345286,-1,23.46983528137207,200,-9999,11989.34651604167,0.969940185546875,0.0677642822265625,-0.159088134765625,11989.33647604167,-1.025439576391361,1.405530045777276,-0.07016576959754564,-0.01507951505482197,0.09849052131175995,0.06561900675296783,-0.01896697282791138,-0.00180169939994812,0.00132375955581665,2,-0.2935383045275944,-0.5760036157892305,0.3938424506030833,-0.6534090019547254,0.9839475750923157,0.07010821253061295,-0.1641101986169815,38.47213745117188,4.517391204833984,-22.01190185546875,2,11989.18642104167,1,2,1580908273.427588,1580903939.50652,2649,0.4776885,0,0,3222.849,10,15,1580908272.535977,11986.219518,0,6.344208,97.12942
1580908273.568313,121,0,1580907286.99823,41.20781296037784,29.0754925099451,275.2123,0.1345286,-1,23.46983528137207,200,-9999,11989.35655604167,0.96954345703125,0.064208984375,-0.158233642578125,11989.34651604167,-1.024886159929875,1.406557550692542,-0.06963983908298672,-0.0175490640103817,0.1014186665415764,0.05723990127444267,-0.01764595508575439,-0.00191614031791687,0.001062929630279541,2,-0.2937587901957994,-0.5763273689072971,0.3933661526344673,-0.6533111661922514,0.9841517210006714,0.06958356499671936,-0.1631050705909729,38.69785308837891,4.503810882568359,-21.95465087890625,2,11989.18642104167,1,2,1580908273.427588,1580903939.50652,2649,0.4776885,0,0,3222.849,10,15,1580908272.535977,11986.219518,0,6.344208,97.12942
1580908273.570201,122,0,1580907286.99823,41.20781296037784,29.0754925099451,275.2123,0.1345286,-1,23.46983528137207,200,-9999,11989.36659604167,0.9737548828125,0.0593719482421875,-0.159942626953125,11989.35655604167,-1.024654241123201,1.407615842997578,-0.06930941320084454,-0.01694314181804657,0.1040612906217575,0.03625954315066338,-0.01817697286605835,-0.004728712141513824,0.0009067058563232422,2,-0.294011517663075,-0.5766486119827587,0.3930439526296901,-0.6531080267789844,0.9843465685844421,0.06925393640995026,-0.1620672047138214,38.69785308837891,4.503810882568359,-21.95465087890625,2,11989.18642104167,1,2,1580908273.427588,1580903939.50652,2649,0.4776885,0,0,3222.849,10,15,1580908272.535977,11986.219518,0,6.344208,97.12942
1580908273.580604,123,0,1580907286.99823,41.20781296037784,29.0754925099451,275.2123,0.1345286,-1,23.46983528137207,200,-9999,11989.37663704167,0.9835357666015625,0.0548095703125,-0.1566009521484375,11989.36659604167,-1.024155178236043,1.40873112747859,-0.06927329968914558,-0.0179040115326643,0.1107008159160614,0.007802868261933327,-0.0151098370552063,-0.009651660919189453,-0.001781165599822998,2,-0.2940988413675974,-0.5770797405019386,0.3927070825555578,-0.6528905256680063,0.9845291972160339,0.06921790540218353,-0.1609696894884109,38.67174530029297,4.792400360107422,-21.74041748046875,2,11989.18642104167,1,2,1580908273.427588,1580903939.50652,2649,0.4776885,0,0,3222.849,10,15,1580908272.535977,11986.219518,0,6.344208,97.12942
1580908273.590454,124,0,1580907286.99823,41.20781296037784,29.0754925099451,275.2123,0.1345286,-1,23.46983528137207,200,-9999,11989.38670704167,0.9903717041015625,0.050323486328125,-0.15069580078125,11989.37663704167,-1.024018789764784,1.409814204707166,-0.06967568571210904,-0.01984460279345512,0.1064559370279312,-0.03693825751543045,-0.005399048328399658,-0.01452524214982986,-0.0001242160797119141,2,-0.2941363678749329,-0.5775243731195748,0.3926142261230868,-0.6525361837943665,0.9846753478050232,0.069619320333004,-0.1598987877368927,38.67174530029297,4.792400360107422,-21.74041748046875,2,11989.18642104167,1,2,1580908273.427588,1580903939.50652,2649,0.4776885,0,0,3222.849,10,15,1580908272.535977,11986.219518,0,6.344208,97.12942
1580908273.600543,125,0,1580907286.99823,41.20781296037784,29.0754925099451,275.2123,0.1345286,-1,23.46983528137207,200,-9999,11989.39674804167,1.00091552734375,0.052520751953125,-0.1395263671875,11989.38670704167,-1.023642979985509,1.41073516837673,-0.07058860740544069,-0.02249498106539249,0.09476172924041748,-0.0883183553814888,0.001383543014526367,-0.02023023366928101,0.004860758781433105,2,-0.2939006756329017,-0.5780411407809526,0.3926080458890905,-0.6521883686247908,0.9847589731216431,0.070530004799366,-0.158981665968895,38.45712280273438,4.644660949707031,-21.75054931640625,2,11989.18642104167,1,2,1580908273.427588,1580903939.50652,2649,0.4776885,0,0,3222.849,10,15,1580908272.535977,11986.219518,0,6.344208,97.12942
1580908273.627133,126,0,1580907286.99823,41.20781296037784,29.0754925099451,275.2123,0.1345286,-1,23.46983528137207,200,-9999,11989.40678804167,0.9899749755859375,0.0652923583984375,-0.1349945068359375,11989.39674804167,-1.023579593761009,1.411159949865407,-0.07190277027762783,-0.02583661302924156,0.04311173409223557,-0.1315678656101227,0.01241028308868408,-0.02005010098218918,0.01501590013504028,2,-0.2935224407836367,-0.5784205500954873,0.3928874983739937,-0.6518540369144563,0.9847341179847717,0.07184083014726639,-0.1585484892129898,38.45712280273438,4.644660949707031,-21.75054931640625,2,11989.18642104167,1,2,1580908273.427588,1580903939.50652,2649,0.4776885,0,0,3222.849,10,15,1580908272.535977,11986.219518,0,6.344208,97.12942
1580908273.628538,127,0,1580907286.99823,41.20781296037784,29.0754925099451,275.2123,0.1345286,-1,23.46983528137207,200,-9999,11989.41682804167,0.9591522216796875,0.092376708984375,-0.148193359375,11989.40678804167,-1.023086778074543,1.411109972360177,-0.07313736779323686,-0.04000809043645859,-0.009099535644054413,-0.123307004570961,0.004313290119171143,-0.01025345921516418,0.02095657587051392,2,-0.2929534988311162,-0.5786937966893689,0.3930746756366663,-0.6517545822450801,0.9846378564834595,0.07307218015193939,-0.158583477139473,38.54476165771484,4.731235504150391,-21.830322265625,2,11989.18642104167,1,2,1580908273.427588,1580903939.50652,2649,0.4776885,0,0,3222.849,10,15,1580908272.535977,11986.219518,0,6.344208,97.12942
1580908273.630623,128,0,1580907286.99823,41.20781296037784,29.0754925099451,275.2123,0.1345286,-1,23.46983528137207,200,-9999,11989.42686904167,0.9208221435546875,0.099151611328125,-0.1657562255859375,11989.41682804167,-1.022718952622437,1.41112692760081,-0.07372175403805142,-0.04843061789870262,-0.004014486446976662,-0.04872627928853035,-0.02508115768432617,0.01603249460458755,0.009641528129577637,2,-0.2926531185716196,-0.5788559094385326,0.3931134563120649,-0.6517222549487877,0.9845983386039734,0.07365499436855316,-0.1585599780082703,38.54476165771484,4.731235504150391,-21.830322265625,2,11989.18642104167,1,2,1580908273.427588,1580903939.50652,2649,0.4776885,0,0,3222.849,10,15,1580908272.535977,11986.219518,0,6.344208,97.12942
1580908273.640721,129,0,1580907286.99823,41.20781296037784,29.0754925099451,275.2123,0.1345286,-1,23.46983528137207,200,-9999,11989.43690904167,0.914520263671875,0.0936279296875,-0.1652069091796875,11989.42686904167,-1.022087164299159,1.41164266513469,-0.07374572342467388,-0.03306763619184494,0.04834166169166565,0.002322789281606674,-0.06411701440811157,0.02556052803993225,-0.009621381759643555,2,-0.2925634714142101,-0.5791206058181547,0.3928387401524611,-0.6516929786957251,0.9846782088279724,0.07367889583110809,-0.1580518782138824,38.42984771728516,4.773141860961914,-21.8878173828125,2,11989.18642104167,1,2,1580908273.427588,1580903939.50652,2649,0.4776885,0,0,3222.849,10,15,1580908272.535977,11986.219518,0,6.344208,97.12942
1580908273.650657,130,0,1580907286.99823,41.20781296037784,29.0754925099451,275.2123,0.1345286,-1,23.46983528137207,200,-9999,11989.44694904167,0.9404144287109375,0.0882720947265625,-0.16021728515625,11989.43690904167,-1.021758086304849,1.412694528701576,-0.07327340761217155,-0.0244649276137352,0.1045781373977661,0.05240569263696671,-0.07524299621582031,0.02070782333612442,-0.01146411895751953,2,-0.2928340876658046,-0.5794285573794906,0.3924472370705313,-0.6515334639999275,0.9848780632019043,0.07320785522460938,-0.1570214927196503,38.42984771728516,4.773141860961914,-21.8878173828125,2,11989.18642104167,1,2,1580908273.427588,1580903939.50652,2649,0.4776885,0,0,3222.849,10,15,1580908272.535977,11986.219518,0,6.344208,97.12942
1580908273.660839,131,0,1580907286.99823,41.20781296037784,29.0754925099451,275.2123,0.1345286,-1,23.46983528137207,200,-9999,11989.45698904167,0.9605255126953125,0.0764007568359375,-0.1519012451171875,11989.44694904167,-1.021157904441219,1.414072967759896,-0.07249036368340254,-0.0166056714951992,0.1364202201366425,0.0817960798740387,-0.05073559284210205,0.016623854637146,-0.008026182651519775,2,-0.2931945119569098,-0.5798281217598801,0.3918334602997946,-0.6513853609395986,0.9851499199867249,0.07242689281702042,-0.1556726545095444,38.56169128417969,4.894317626953125,-21.81396484375,2,11989.18642104167,1,2,1580908273.427588,1580903939.50652,2649,0.4776885,0,0,3222.849,10,15,1580908272.535977,11986.219518,0,6.344208,97.12942
1580908273.688844,132,0,1580907286.99823,41.20781296037784,29.0754925099451,275.2123,0.1345286,-1,23.46983528137207,200,-9999,11989.46703004167,0.9710235595703125,0.0700836181640625,-0.1413726806640625,11989.45698904167,-1.020845138936094,1.415529868930552,-0.07162552930566654,-0.01721294596791267,0.1457951664924622,0.08987072110176086,-0.02955472469329834,0.005572222173213959,-0.001568078994750977,2,-0.2936805541792388,-0.5801967821339078,0.3912786184275105,-0.6511716261332596,0.9854372143745422,0.07156430184841156,-0.1542468518018723,38.56169128417969,4.894317626953125,-21.81396484375,2,11989.18642104167,1,2,1580908273.427588,1580903939.50652,2649,0.4776885,0,0,3222.849,10,15,1580908272.535977,11986.219518,0,6.344208,97.12942
1580908273.690174,133,0,1580907286.99823,41.20781296037784,29.0754925099451,275.2123,0.1345286,-1,23.46983528137207,200,-9999,11989.47707004167,0.9724578857421875,0.069366455078125,-0.1444244384765625,11989.46703004167,-1.02030716683903,1.416843787027424,-0.07084377724721198,-0.01279795728623867,0.1278878003358841,0.07945270091295242,-0.01884114742279053,-0.0006796568632125854,0.008280396461486816,2,-0.2940446292722756,-0.5805665495312833,0.3906938991950346,-0.6510288688631379,0.9856940507888794,0.07078453153371811,-0.152960479259491,38.73188018798828,4.777927398681641,-21.68878173828125,2,11989.18642104167,1,2,1580908273.427588,1580903939.50652,2649,0.4776885,0,0,3222.849,10,15,1580908272.535977,11986.219518,0,6.344208,97.12942
1580908273.69138,134,0,1580907286.99823,41.20781296037784,29.0754925099451,275.2123,0.1345286,-1,23.46983528137207,200,-9999,11989.48714104167,0.9755096435546875,0.06402587890625,-0.147796630859375,11989.47707004167,-1.020151152413083,1.418098887766013,-0.07015590955166376,-0.005145193077623844,0.1234116479754448,0.06998571753501892,-0.0166395902633667,-0.0007541254162788391,0.00498652458190918,2,-0.2944759517499723,-0.5808774600711185,0.3902677162426761,-0.6508121682326876,0.9859331250190735,0.07009837776422501,-0.1517305821180344,38.73188018798828,4.777927398681641,-21.68878173828125,2,11989.18642104167,1,2,1580908273.427588,1580903939.50652,2649,0.4776885,0,0,3222.849,10,15,1580908272.535977,11986.219518,0,6.344208,97.12942
1580908273.700927,135,0,1580907286.99823,41.20781296037784,29.0754925099451,275.2123,0.1345286,-1,23.46983528137207,200,-9999,11989.49718104167,0.9800262451171875,0.05621337890625,-0.1497039794921875,11989.48714104167,-1.019787189272666,1.419397710391451,-0.06969201356813379,-0.0003501717001199722,0.128816545009613,0.04788441583514214,-0.01421356201171875,-0.00508107990026474,0.0001204609870910645,2,-0.2947796131973071,-0.5812723888560154,0.3898291903006459,-0.6505848104139668,0.9861613512039185,0.06963561475276947,-0.1504547744989395,38.94813537597656,4.725154876708984,-21.51788330078125,2,11989.18642104167,1,2,1580908273.427588,1580903939.50652,2649,0.4776885,0,0,3222.849,10,15,1580908272.535977,11986.219518,0,6.344208,97.12942
1580908273.711289,136,0,1580907286.99823,41.20781296037784,29.0754925099451,275.2123,0.1345286,-1,23.46983528137207,200,-9999,11989.50722104167,0.9880523681640625,0.0446319580078125,-0.1408843994140625,11989.49718104167,-1.019829745459879,1.420742557234895,-0.06969908492980063,0.004368024878203869,0.1359451711177826,0.000486498698592186,-0.01031047105789185,-0.01296167820692062,-0.003666877746582031,2,-0.2950516368125136,-0.5817046975477869,0.3896466923759924,-0.6501844232706455,0.9863624572753906,0.06964266300201416,-0.1491283476352692,38.94813537597656,4.725154876708984,-21.51788330078125,2,11989.18642104167,1,2,1580908273.427588,1580903939.50652,2649,0.4776885,0,0,3222.849,10,15,1580908272.535977,11986.219518,0,6.344208,97.12942
1580908273.721134,137,0,1580907286.99823,41.20781296037784,29.0754925099451,275.2123,0.1345286,-1,23.46983528137207,200,-9999,11989.51726204167,0.9911346435546875,0.0420684814453125,-0.130584716796875,11989.50722104167,-1.01967075250594,1.421944206437052,-0.07034780527454239,0.002836707048118114,0.124366007745266,-0.06323735415935516,-0.002692997455596924,-0.02481091767549515,0.00290381908416748,2,-0.295021441773767,-0.5822321095089612,0.3895981193516518,-0.6497549311620114,0.9864959716796875,0.07028979808092117,-0.1479362398386002,38.85224151611328,4.771112442016602,-21.49560546875,2,11989.18642104167,1,2,1580908273.427588,1580903939.50652,2649,0.4776885,0,0,3222.849,10,15,1580908272.535977,11986.219518,0,6.344208,97.12942
1580908273.752135,138,0,1580907286.99823,41.20781296037784,29.0754925099451,275.2123,0.1345286,-1,23.46983528137207,200,-9999,11989.52730204167,0.9687347412109375,0.0717620849609375,-0.124176025390625,11989.51726204167,-1.019825245365221,1.422749603607937,-0.07153493004562719,-0.001758810132741928,0.08389124274253845,-0.1242151036858559,0.001925349235534668,-0.0305156335234642,0.01265335083007812,2,-0.294824398485438,-0.5826782444733932,0.3898596902908589,-0.6492874851613383,0.986531674861908,0.07147393375635147,-0.1471292823553085,38.85224151611328,4.771112442016602,-21.49560546875,2,11989.18642104167,1,2,1580908273.427588,1580903939.50652,2649,0.4776885,0,0,3222.849,10,15,1580908272.535977,11986.219518,0,6.344208,97.12942
1580908273.753409,139,0,1580907286.99823,41.20781296037784,29.0754925099451,275.2123,0.1345286,-1,23.46983528137207,200,-9999,11989.53734204167,0.9365692138671875,0.10638427734375,-0.1411895751953125,11989.52730204167,-1.019488342682733,1.423243872510499,-0.0723525029075047,-0.02047177776694298,0.04517021030187607,-0.08125299215316772,-0.01821547746658325,-0.004722505807876587,0.01980012655258179,2,-0.2945478250059932,-0.5830309395398915,0.3899049029525401,-0.64906921402536,0.9865461587905884,0.07228939235210419,-0.1466329991817474,38.90851593017578,4.736656188964844,-21.51190185546875,2,11989.18642104167,1,2,1580908273.427588,1580903939.50652,2649,0.4776885,0,0,3222.849,10,15,1580908272.535977,11986.219518,0,6.344208,97.12942
1580908273.754539,140,0,1580907286.99823,41.20781296037784,29.0754925099451,275.2123,0.1345286,-1,23.46983528137207,200,-9999,11989.54738304167,0.919921875,0.1028594970703125,-0.147216796875,11989.53734204167,-1.019382438994644,1.423854579860879,-0.07229204591446742,-0.007910926826298237,0.06082214042544365,0.006614895537495613,-0.05052089691162109,0.03217268735170364,0.003586232662200928,2,-0.2946563468200071,-0.5832341599380477,0.3897637522369274,-0.6489220053101915,0.986639678478241,0.07222909480333328,-0.1460310965776443,38.90851593017578,4.736656188964844,-21.51190185546875,2,11989.18642104167,1,2,1580908273.427588,1580903939.50652,2649,0.4776885,0,0,3222.849,10,15,1580908272.535977,11986.219518,0,6.344208,97.12942
1580908273.761343,141,0,1580907286.99823,41.20781296037784,29.0754925099451,275.2123,0.1345286,-1,23.46983528137207,200,-9999,11989.55742304167,0.9203948974609375,0.0887603759765625,-0.1515655517578125,11989.54738304167,-1.01895048092884,1.424799959104328,-0.07138404229136196,-0.0008436962962150574,0.09170041978359222,0.09332848340272903,-0.06920194625854492,0.03269994258880615,-0.004603385925292969,2,-0.2950194819529427,-0.583446332590286,0.389231436173971,-0.648885749368239,0.9868417382240295,0.07132343202829361,-0.1451077610254288,39.00723266601562,4.693094253540039,-21.29071044921875,2,11989.18642104167,1,2,1580908273.427588,1580903939.50652,2649,0.4776885,0,0,3222.849,10,15,1580908272.535977,11986.219518,0,6.344208,97.12942
1580908273.771242,142,0,1580907286.99823,41.20781296037784,29.0754925099451,275.2123,0.1345286,-1,23.46983528137207,200,-9999,11989.56746304167,0.941375732421875,0.0790863037109375,-0.1454010009765625,11989.55742304167,-1.018768731907385,1.426204871027721,-0.06984376322816981,0.003974549472332001,0.1419113278388977,0.156746581196785,-0.07140558958053589,0.01968467235565186,-0.01058703660964966,2,-0.2957566467354352,-0.5836604978782483,0.3885356214822299,-0.6487745929887593,0.9871521592140198,0.06978699564933777,-0.1437368541955948,39.00723266601562,4.693094253540039,-21.29071044921875,2,11989.18642104167,1,2,1580908273.427588,1580903939.50652,2649,0.4776885,0,0,3222.849,10,15,1580908272.535977,11986.219518,0,6.344208,97.12942
1580908273.781277,143,0,1580907286.99823,41.20781296037784,29.0754925099451,275.2123,0.1345286,-1,23.46983528137207,200,-9999,11989.57750304167,0.948211669921875,0.061309814453125,-0.13616943359375,11989.56746304167,-1.018337063088977,1.427790572473416,-0.06809958981473151,0.01134005468338728,0.1580836325883865,0.1755623519420624,-0.05154973268508911,0.01209215074777603,-0.007181525230407715,2,-0.296523298971038,-0.5839346657982485,0.3876738525008128,-0.648693438654585,0.9874978065490723,0.06804696470499039,-0.1421884745359421,38.87595367431641,4.698600769042969,-21.09539794921875,2,11989.18642104167,1,2,1580908273.427588,1580903939.50652,2649,0.4776885,0,0,3222.849,10,15,1580908272.535977,11987.163618,0,6.31778,97.12971
1580908273.814881,144,0,1580907286.99823,41.20781296037784,29.0754925099451,275.2123,0.1345286,-1,23.46983528137207,200,-9999,11989.58757404167,0.9539947509765625,0.0485992431640625,-0.1409759521484375,11989.57750304167,-1.018248171748756,1.429426529093927,-0.06650694257003051,0.0145370177924633,0.1609338819980621,0.1602698564529419,-0.042976975440979,-0.003464318811893463,0.001039385795593262,2,-0.2973477370695449,-0.5842006329293314,0.3869567695184146,-0.6485047748303975,0.9878352284431458,0.06645792722702026,-0.1405878812074661,38.87595367431641,4.698600769042969,-21.09539794921875,2,11989.18642104167,1,2,1580908273.427588,1580903939.50652,2649,0.4776885,0,0,3222.849,10,15,1580908272.535977,11987.163618,0,6.31778,97.12971
1580908273.816091,145,0,1580907286.99823,41.20781296037784,29.0754925099451,275.2123,0.1345286,-1,23.46983528137207,200,-9999,11989.59761404167,0.9886474609375,0.0457611083984375,-0.1387481689453125,11989.58757404167,-1.017959695120407,1.431301845712215,-0.06538624351819634,0.01593837328255177,0.1870070099830627,0.1114639714360237,-0.03884255886077881,-0.01642618328332901,-0.003937602043151855,2,-0.2980010409257258,-0.584656028264945,0.3862702488051214,-0.6482037713029081,0.9881703853607178,0.06533966213464737,-0.1387454122304916,38.92925262451172,4.568355560302734,-21.0638427734375,2,11989.18642104167,1,2,1580908273.427588,1580903939.50652,2649,0.4776885,0,0,3222.849,10,15,1580908272.535977,11987.163618,0,6.31778,97.12971
1580908273.817098,146,0,1580907286.99823,41.20781296037784,29.0754925099451,275.2123,0.1345286,-1,23.46983528137207,200,-9999,11989.60765504167,1.01513671875,0.04132080078125,-0.1149139404296875,11989.59761404167,-1.018090356264091,1.433201325002205,-0.06494048810158547,0.01962919719517231,0.195378452539444,0.04065293446183205,-0.00759422779083252,-0.01871120929718018,-0.0068092942237854,2,-0.2985550672289357,-0.585174177376206,0.3859042544167903,-0.6476988656435629,0.9884606599807739,0.06489485502243042,-0.1368721127510071,38.92925262451172,4.568355560302734,-21.0638427734375,2,11989.18642104167,1,2,1580908273.427588,1580903939.50652,2649,0.4776885,0,0,3222.849,10,15,1580908272.535977,11987.163618,0,6.31778,97.12971
1580908273.821543,147,0,1580907286.99823,41.20781296037784,29.0754925099451,275.2123,0.1345286,-1,23.46983528137207,200,-9999,11989.61769504167,1.004592895507812,0.045501708984375,-0.110626220703125,11989.60765504167,-1.017903377135505,1.434542367382083,-0.06514095246792995,0.009753929451107979,0.1339308172464371,-0.02285972982645035,0.02284455299377441,-0.02358110249042511,0.01601356267929077,2,-0.2986919959293223,-0.5856712035854846,0.3856997771430061,-0.6473082936172107,0.9886305332183838,0.06509489566087723,-0.1355446726083755,39.11457061767578,4.611433029174805,-20.79840087890625,2,11989.18642104167,1,2,1580908273.427588,1580903939.50652,2649,0.4776885,0,0,3222.849,10,15,1580908272.535977,11987.163618,0,6.31778,97.12971
1580908273.83183,148,0,1580907286.99823,41.20781296037784,29.0754925099451,275.2123,0.1345286,-1,23.46983528137207,200,-9999,11989.62773504167,0.9924774169921875,0.067962646484375,-0.116302490234375,11989.61769504167,-1.017977466004349,1.43530446421108,-0.06573013761613486,-0.0002913046628236771,0.07668061554431915,-0.05908939987421036,0.01389861106872559,-0.02185170352458954,0.02158451080322266,2,-0.2986638778912718,-0.5860092964982766,0.3857754450960116,-0.6469700653168149,0.9886953234672546,0.06568281352519989,-0.1347859799861908,39.11457061767578,4.611433029174805,-20.79840087890625,2,11989.18642104167,1,2,1580908273.427588,1580903939.50652,2649,0.4776885,0,0,3222.849,10,15,1580908272.535977,11987.163618,0,6.31778,97.12971
1580908273.841942,149,0,1580907286.99823,41.20781296037784,29.0754925099451,275.2123,0.1345286,-1,23.46983528137207,200,-9999,11989.63777604167,0.958709716796875,0.0780487060546875,-0.131072998046875,11989.62773504167,-1.017729304476692,1.435616946543031,-0.06631210792934771,-0.002287077717483044,0.02807180024683475,-0.05739109963178635,0.002175688743591309,-0.0007668659090995789,0.01588302850723267,2,-0.2984569764456327,-0.5862486618764504,0.3858120449211535,-0.6468270152654573,0.9886995553970337,0.06626351922750473,-0.1344718784093857,39.23469543457031,4.359525680541992,-20.75146484375,2,11989.18642104167,1,2,1580908273.427588,1580903939.50652,2649,0.4776885,0,0,3222.849,10,15,1580908272.535977,11987.163618,0,6.31778,97.12971
1580908273.86858,150,0,1580907286.99823,41.20781296037784,29.0754925099451,275.2123,0.1345286,-1,23.46983528137207,200,-9999,11989.64781604167,0.9355010986328125,0.084808349609375,-0.1437530517578125,11989.63777604167,-1.017729728398812,1.4359629946466,-0.06662076996618194,-0.003940269351005554,0.03493572771549225,-0.02949878200888634,-0.02887153625488281,0.01102434098720551,0.002124488353729248,2,-0.2984207993629194,-0.5864141424268405,0.3858472635556202,-0.6466725594324048,0.9887255430221558,0.06657149642705917,-0.1341269612312317,39.23469543457031,4.359525680541992,-20.75146484375,2,11989.18642104167,1,2,1580908273.427588,1580903939.50652,2649,0.4776885,0,0,3222.849,10,15,1580908272.535977,11987.163618,0,6.31778,97.12971
1580908273.869875,151,0,1580907286.99823,41.20781296037784,29.0754925099451,275.2123,0.1345286,-1,23.46983528137207,200,-9999,11989.65785604167,0.951751708984375,0.0835113525390625,-0.1389007568359375,11989.64781604167,-1.017432418279395,1.436570697133198,-0.06657386930363712,-0.0009487406350672245,0.0621204748749733,0.007292523048818111,-0.05662047863006592,0.01719006150960922,-0.01285189390182495,2,-0.2984664947290388,-0.5866468300037605,0.3856472746009241,-0.6465596736832517,0.9888099431991577,0.06652470678091049,-0.1335265040397644,39.32584381103516,4.134672164916992,-20.5238037109375,2,11989.18642104167,1,2,1580908273.427588,1580903939.50652,2649,0.4776885,0,0,3222.849,10,15,1580908272.535977,11987.163618,0,6.31778,97.12971
1580908273.871693,152,0,1580907286.99823,41.20781296037784,29.0754925099451,275.2123,0.1345286,-1,23.46983528137207,200,-9999,11989.66789604167,0.98748779296875,0.06866455078125,-0.1218414306640625,11989.65785604167,-1.017166471114408,1.437280966649295,-0.06637821429237425,0.005961363203823566,0.07815191149711609,0.02214071154594421,-0.04294979572296143,0.01827091723680496,-0.009618401527404785,2,-0.2985907265620582,-0.5868821390054061,0.3854002692833107,-0.6464359973863909,0.988917350769043,0.0663294792175293,-0.1328258663415909,39.39116668701172,4.128345489501953,-20.2603759765625,2,11989.18642104167,1,2,1580908273.427588,1580903939.50652,2649,0.4776885,0,0,3222.849,10,15,1580908272.535977,11987.163618,0,6.31778,97.12971
1580908273.881771,153,0,1580907286.99823,41.20781296037784,29.0754925099451,275.2123,0.1345286,-1,23.46983528137207,200,-9999,11989.67796704167,1.01275634765625,0.06494140625,-0.098876953125,11989.66789604167,-1.017195002826643,1.437509619853045,-0.06631342557402019,0.00351871270686388,0.02562318742275238,0.004988888278603554,-0.008728623390197754,0.003229610621929169,0.004819095134735107,2,-0.2986647333846577,-0.5869405493613886,0.3853571339857332,-0.6463746440648614,0.9889521598815918,0.06626483798027039,-0.132600337266922,39.39116668701172,4.128345489501953,-20.2603759765625,2,11989.18642104167,1,2,1580908273.427588,1580903939.50652,2649,0.4776885,0,0,3222.849,10,15,1580908272.535977,11987.163618,0,6.31778,97.12971
1580908273.8916,154,0,1580907286.99823,41.20781296037784,29.0754925099451,275.2123,0.1345286,-1,23.46983528137207,200,-9999,11989.68800804167,0.9963226318359375,0.0556488037109375,-0.1150054931640625,11989.67796704167,-1.016940101313187,1.437037849079351,-0.06639235016929192,0.00359430443495512,-0.04849783331155777,-0.00876197125762701,0.01993453502655029,-0.001198165118694305,0.0304940938949585,2,-0.2984727162208747,-0.5868398021147858,0.3853673646939723,-0.646548595252399,0.9888842105865479,0.06634358316659927,-0.1330661624670029,39.35694885253906,4.340972900390625,-20.24383544921875,2,11989.18642104167,1,2,1580908273.427588,1580903939.50652,2649,0.4776885,0,0,3222.849,10,15,1580908272.535977,11987.163618,0,6.31778,97.12971
1580908273.901778,155,0,1580907286.99823,41.20781296037784,29.0754925099451,275.2123,0.1345286,-1,23.46983528137207,200,-9999,11989.69804804167,0.96881103515625,0.0505218505859375,-0.135711669921875,11989.68800804167,-1.017014556969506,1.436424411544977,-0.06674704345055459,0.0006128950044512749,-0.06531915813684464,-0.03639919310808182,0.00749737024307251,-0.009991385042667389,0.01848053932189941,2,-0.2982578838707247,-0.5866919433225098,0.3855826829588835,-0.6466535087089713,0.9887789487838745,0.06669749319553375,-0.1336695998907089,39.35694885253906,4.340972900390625,-20.24383544921875,2,11989.18642104167,1,2,1580908273.427588,1580903939.50652,2649,0.4776885,0,0,3222.849,10,15,1580908272.535977,11987.163618,0,6.31778,97.12971
1580908273.932614,156,0,1580907286.99823,41.20781296037784,29.0754925099451,275.2123,0.1345286,-1,23.46983528137207,200,-9999,11989.70808804167,0.9711761474609375,0.0489349365234375,-0.133087158203125,11989.69804804167,-1.016910847836922,1.436191987876391,-0.06751554415806037,0.006350352428853512,-0.02250588871538639,-0.07873447239398956,-0.02170175313949585,-0.01727624237537384,-0.003756701946258545,2,-0.2979258649984205,-0.5867656470966166,0.3857997969062897,-0.6466103108398195,0.9886969327926636,0.06746426224708557,-0.1338925063610077,39.37649536132812,3.964832305908203,-20.5987548828125,2,11989.18642104167,1,2,1580908273.427588,1580903939.50652,2649,0.4776885,0,0,3222.849,10,15,1580908272.535977,11987.163618,0,6.31778,97.12971
1580908273.93391,157,0,1580907286.99823,41.20781296037784,29.0754925099451,275.2123,0.1345286,-1,23.46983528137207,200,-9999,11989.71812804167,0.996612548828125,0.0429229736328125,-0.1166839599609375,11989.70808804167,-1.017168327460947,1.436221499940871,-0.06875801097040288,0.008183672092854977,0.006871707737445831,-0.1260034441947937,-0.0223081111907959,-0.01938972622156143,-0.003385305404663086,2,-0.2975919818514706,-0.5869523236385773,0.386227683220448,-0.646339030261571,0.988616943359375,0.06870384514331818,-0.1338519603013992,39.37649536132812,3.964832305908203,-20.5987548828125,2,11989.18642104167,1,2,1580908273.427588,1580903939.50652,2649,0.4776885,0,0,3222.849,10,15,1580908272.535977,11987.163618,0,6.31778,97.12971
1580908273.934764,158,0,1580907286.99823,41.20781296037784,29.0754925099451,275.2123,0.1345286,-1,23.46983528137207,200,-9999,11989.72816904167,0.9967041015625,0.053375244140625,-0.1164398193359375,11989.71812804167,-1.017187471563747,1.436182229226606,-0.07047744945749515,0.006243972107768059,-0.003483999520540237,-0.1747990250587463,0.002260446548461914,-0.02750419825315475,0.01259803771972656,2,-0.2970152944221443,-0.5872346609979113,0.3867224988649406,-0.646051901565826,0.9884931445121765,0.07041911780834198,-0.1338747292757034,39.2978515625,4.099418640136719,-20.454345703125,2,11989.18642104167,1,2,1580908273.427588,1580903939.50652,2649,0.4776885,0,0,3222.849,10,15,1580908272.535977,11987.163618,0,6.31778,97.12971
1580908273.941917,159,0,1580907286.99823,41.20781296037784,29.0754925099451,275.2123,0.1345286,-1,23.46983528137207,200,-9999,11989.73820904167,0.9665374755859375,0.0746307373046875,-0.137481689453125,11989.72816904167,-1.017501566810252,1.436147799703533,-0.07247587565604781,0.002075858414173126,-0.003223810344934464,-0.2006263583898544,0.007091104984283447,-0.02146288007497787,0.01606124639511108,2,-0.29643261753909,-0.587522672866459,0.3873897704613646,-0.6456578686665648,0.9883471727371216,0.07241244614124298,-0.1338896304368973,39.2978515625,4.099418640136719,-20.454345703125,2,11989.18642104167,1,2,1580908273.427588,1580903939.50652,2649,0.4776885,0,0,3222.849,10,15,1580908272.535977,11987.163618,0,6.31778,97.12971
1580908273.951982,160,0,1580907286.99823,41.20781296037784,29.0754925099451,275.2123,0.1345286,-1,23.46983528137207,200,-9999,11989.74824904167,0.942230224609375,0.06982421875,-0.1487274169921875,11989.73820904167,-1.017693521858559,1.436525555631247,-0.07464943473143189,0.018296018242836,0.04173192381858826,-0.2164690941572189,-0.02192997932434082,-0.001558423042297363,-0.004797101020812988,2,-0.2958352425200595,-0.5879915590951688,0.3880052228682033,-0.6451352207082243,0.9882393479347229,0.0745801255106926,-0.1334948688745499,39.48055267333984,4.295825958251953,-20.3768310546875,2,11989.18642104167,1,2,1580908273.427588,1580903939.50652,2649,0.4776885,0,0,3222.849,10,15,1580908272.535977,11987.163618,0,6.31778,97.12971
1580908273.962191,161,0,1580907286.99823,41.20781296037784,29.0754925099451,275.2123,0.1345286,-1,23.46983528137207,200,-9999,11989.75829004167,0.9506683349609375,0.070648193359375,-0.138824462890625,11989.74824904167,-1.018321163555963,1.437439610283061,-0.07719439512467799,0.028934545814991,0.09627453237771988,-0.264110654592514,-0.04796797037124634,-0.006393387913703918,-0.01918768882751465,2,-0.2953460241508071,-0.5886321507548616,0.3887856355615695,-0.6443047597988434,0.9881695508956909,0.07711774855852127,-0.1325658410787582,39.48055267333984,4.295825958251953,-20.3768310546875,2,11989.18642104167,1,2,1580908273.427588,1580903939.50652,2649,0.4776885,0,0,3222.849,10,15,1580908272.535977,11987.163618,0,6.31778,97.12971
