loggingTime,loggingSample,identifierForVendor,locationTimestamp_since1970,locationLatitude,locationLongitude,locationAltitude,locationSpeed,locationCourse,locationVerticalAccuracy,locationHorizontalAccuracy,locationFloor,accelerometerTimestamp_sinceReboot,accelerometerAccelerationX,accelerometerAccelerationY,accelerometerAccelerationZ,motionTimestamp_sinceReboot,motionYaw,motionRoll,motionPitch,motionRotationRateX,motionRotationRateY,motionRotationRateZ,motionUserAccelerationX,motionUserAccelerationY,motionUserAccelerationZ,motionAttitudeReferenceFrame,motionQuaternionX,motionQuaternionY,motionQuaternionZ,motionQuaternionW,motionGravityX,motionGravityY,motionGravityZ,motionMagneticFieldX,motionMagneticFieldY,motionMagneticFieldZ,motionMagneticFieldCalibrationAccuracy,activityTimestamp_sinceReboot,activity,activityActivityConfidence,activityActivityStartDate,pedometerStartDate,pedometerNumberofSteps,pedometerAverageActivePace,pedometerCurrentPace,pedometerCurrentCadence,pedometerDistance,pedometerFloorAscended,pedometerFloorDescended,pedometerEndDate,altimeterTimestamp_sinceReboot,altimeterReset,altimeterRelativeAltitude,altimeterPressure
1580904648.788864,1,0,1580904337.000819,41.20701635159924,29.07533761282497,172.748,-1,-1,5.74967098236084,48.00724964208526,-9999,8364.518696666668,0.985687255859375,0.06915283203125,-0.1180419921875,8364.513660666667,-3.130270629134397,1.430430170261932,-0.05695462602581085,0.004672813229262829,0.004551434889435768,0.005651224404573441,-0.007996618747711182,0.006041727960109711,0.02086639404296875,2,0.6553817311700723,0.02520661280765258,-0.7547397292489432,-0.0143999855517806,0.9885593056678772,0.05692384019494057,-0.1396788209676743,42.85751342773438,-8.109367370605469,-35.42999267578125,2,8363.909412666668,2,0,1580904648.150579,1580903939.50652,226,0.6966805,0,0,212.7492,1,0,1580904562.426208,8361.365309000001,0,4.750885,97.14793
1580904648.790174,2,0,1580904337.000819,41.20701635159924,29.07533761282497,172.748,-1,-1,5.74967098236084,48.00724964208526,-9999,8364.528736666667,0.9726104736328125,0.0591583251953125,-0.1349029541015625,8364.523701666667,-3.130249360473446,1.430425080899408,-0.05694300239346024,-0.001298513263463974,0.0004996303468942642,0.0005912287160754204,-0.003266394138336182,0.01221788674592972,0.02129876613616943,2,0.6553796722568682,0.02520923394057058,-0.7547417087496908,-0.01438808264842291,0.9885593056678772,0.05691223591566086,-0.1396839618682861,42.99191284179688,-8.101840972900391,-35.36798095703125,2,8363.909412666668,2,0,1580904648.150579,1580903939.50652,226,0.6966805,0,0,212.7492,1,0,1580904562.426208,8361.365309000001,0,4.750885,97.14793
1580904648.791549,3,0,1580904337.000819,41.20701635159924,29.07533761282497,172.748,-1,-1,5.74967098236084,48.00724964208526,-9999,8364.538776666666,0.9696044921875,0.0608673095703125,-0.13427734375,8364.533741666668,-3.130231244033247,1.430432022750281,-0.05694344472359147,-0.004369936883449554,-0.0007294192910194397,0.000745958648622036,-0.01634407043457031,0.002222947776317596,0.004430949687957764,2,0.6553820606069349,0.02521528738023021,-0.7547395274401837,-0.01438147987655981,0.9885601997375488,0.05691267549991608,-0.1396770924329758,42.99191284179688,-8.101840972900391,-35.36798095703125,2,8363.909412666668,2,0,1580904648.150579,1580903939.50652,226,0.6966805,0,0,212.7492,1,0,1580904562.426208,8361.365309000001,0,4.750885,97.14793
1580904648.81363,4,0,1580904337.000819,41.20701635159924,29.07533761282497,172.748,-1,-1,5.74967098236084,48.00724964208526,-9999,8364.548817666668,0.966583251953125,0.06134033203125,-0.1347198486328125,8364.543781666667,-3.130230906158504,1.430494199822429,-0.05696448782794247,-0.0002396535128355026,0.007662806659936905,-0.002777680289000273,-0.01935756206512451,0.003910928964614868,0.004994869232177734,2,0.6554052755403561,0.02522288968862135,-0.7547190083985016,-0.01438903308690444,0.9885677695274353,0.0569336861371994,-0.139615461230278,42.98912811279297,-8.069267272949219,-35.46624755859375,2,8363.909412666668,2,0,1580904648.150579,1580903939.50652,226,0.6966805,0,0,212.7492,1,0,1580904562.426208,8361.365309000001,0,4.750885,97.14793
1580904648.81465,5,0,1580904337.000819,41.20701635159924,29.07533761282497,172.748,-1,-1,5.74967098236084,48.00724964208526,-9999,8364.558857666667,0.970794677734375,0.0634307861328125,-0.13287353515625,8364.553822666667,-3.130214206912302,1.430568849936549,-0.0569792331019761,-0.00199920404702425,0.008096635341644287,-0.001473263837397099,-0.02238845825195312,0.00436922162771225,0.004478514194488525,2,0.655433062806713,0.02523338783826475,-0.7546945678590266,-0.01438850581392173,0.9885774254798889,0.05694840475916862,-0.1395415514707565,42.98912811279297,-8.069267272949219,-35.46624755859375,2,8363.909412666668,2,0,1580904648.150579,1580903939.50652,226,0.6966805,0,0,212.7492,1,0,1580904562.426208,8361.365309000001,0,4.750885,97.14793
1580904648.81543,6,0,1580904337.000819,41.20701635159924,29.07533761282497,172.748,-1,-1,5.74967098236084,48.00724964208526,-9999,8364.568897666668,0.9723052978515625,0.0627899169921875,-0.132965087890625,8364.563862666668,-3.130201177726369,1.430644930710794,-0.05699304449681055,-0.00146814389154315,0.008258933201432228,-0.001627973280847073,-0.01818722486495972,0.006445847451686859,0.006248891353607178,2,0.6554614601749718,0.02524232007414155,-0.7546694208524206,-0.01438908487283,0.9885870218276978,0.05696219578385353,-0.1394661962985992,42.87354278564453,-8.045459747314453,-35.32708740234375,2,8363.909412666668,2,0,1580904648.150579,1580903939.50652,226,0.6966805,0,0,212.7492,1,0,1580904562.426208,8361.365309000001,0,4.750885,97.14793
1580904648.816153,7,0,1580904337.000819,41.20701635159924,29.07533761282497,172.748,-1,-1,5.74967098236084,48.00724964208526,-9999,8364.578938666667,0.9715118408203125,0.062591552734375,-0.1328125,8364.573902666667,-3.130202085615108,1.430697184325901,-0.0569998875463559,0.000713784247636795,0.004333168268203735,-0.0004625739529728889,-0.01668334007263184,0.005798138678073883,0.00610584020614624,2,0.6554811024291898,0.02524422822523057,-0.7546523418086889,-0.01439232594054181,0.9885940551757812,0.05696902796626091,-0.1394145041704178,42.87354278564453,-8.045459747314453,-35.32708740234375,2,8363.909412666668,2,0,1580904648.150579,1580903939.50652,226,0.6966805,0,0,212.7492,1,0,1580904562.426208,8361.365309000001,0,4.750885,97.14793
1580904648.817022,8,0,1580904337.000819,41.20701635159924,29.07533761282497,172.748,-1,-1,5.74967098236084,48.00724964208526,-9999,8364.589008666668,0.9702301025390625,0.06292724609375,-0.1329345703125,8364.583942666668,-3.130206913930659,1.430735971394598,-0.05701742870778266,0.0007970891892910004,0.00275687500834465,-0.002735355403274298,-0.01748126745223999,0.005582265555858612,0.006219923496246338,2,0.6554955962972709,0.02524898342211408,-0.7546394496227252,-0.01440038812451033,0.9885984659194946,0.05698654055595398,-0.1393760293722153,43.03170013427734,-8.184860229492188,-35.530029296875,2,8363.909412666668,2,0,1580904648.150579,1580903939.50652,226,0.6966805,0,0,212.7492,1,0,1580904562.426208,8361.365309000001,0,4.750885,97.14793
1580904648.827093,9,0,1580904337.000819,41.20701635159924,29.07533761282497,172.748,-1,-1,5.74967098236084,48.00724964208526,-9999,8364.599049666667,0.970855712890625,0.062957763671875,-0.1331329345703125,8364.593983666668,-3.130207964248914,1.43078248428268,-0.05702916164475415,-0.0001781606115400791,0.004212027415633202,-0.001040786039084196,-0.01876860857009888,0.005906246602535248,0.006051719188690186,2,0.6555130344027508,0.02525272957883933,-0.7546239449082048,-0.01440522457513879,0.9886041283607483,0.05699825286865234,-0.1393299251794815,43.03170013427734,-8.184860229492188,-35.530029296875,2,8363.909412666668,2,0,1580904648.150579,1580903939.50652,226,0.6966805,0,0,212.7492,1,0,1580904562.426208,8361.365309000001,0,4.750885,97.14793
1580904648.836689,10,0,1580904337.000819,41.20701635159924,29.07533761282497,172.748,-1,-1,5.74967098236084,48.00724964208526,-9999,8364.609089666666,0.9713897705078125,0.06243896484375,-0.13446044921875,8364.604023666667,-3.130204296417486,1.43083857192268,-0.05703416689628589,-0.0009797718375921249,0.005139606073498726,0.0006793495267629623,-0.01815050840377808,0.005931764841079712,0.005798101425170898,2,0.6555340833222805,0.02525541615620906,-0.7546056886985802,-0.01440618418196442,0.9886118173599243,0.05700325220823288,-0.139274463057518,42.99275207519531,-8.099597930908203,-35.461669921875,2,8363.909412666668,2,0,1580904648.150579,1580903939.50652,226,0.6966805,0,0,212.7492,1,0,1580904562.426208,8361.365309000001,0,4.750885,97.14793
1580904648.846741,11,0,1580904337.000819,41.20701635159924,29.07533761282497,172.748,-1,-1,5.74967098236084,48.00724964208526,-9999,8364.619129666668,0.9701690673828125,0.06231689453125,-0.1309661865234375,8364.614063666668,-3.130202837645578,1.430889746802585,-0.0570296384274703,0.0004735966213047504,0.005518754944205284,0.0004114946350455284,-0.01762378215789795,0.005417503416538239,0.004419982433319092,2,0.6555534301836429,0.02525381738336468,-0.7545888893529714,-0.01440479821286522,0.9886190891265869,0.05699872970581055,-0.1392238885164261,42.99275207519531,-8.099597930908203,-35.461669921875,2,8363.909412666668,2,0,1580904648.150579,1580903939.50652,226,0.6966805,0,0,212.7492,1,0,1580904562.426208,8361.365309000001,0,4.750885,97.14793
1580904648.872977,12,0,1580904337.000819,41.20701635159924,29.07533761282497,172.748,-1,-1,5.74967098236084,48.00724964208526,-9999,8364.629170666667,0.971466064453125,0.0632476806640625,-0.130340576171875,8364.624104666667,-3.130195864034405,1.430922631572068,-0.05702724994752064,-0.0005520163103938103,0.00394248403608799,-0.0007272921502590179,-0.01884919404983521,0.005297809839248657,0.007881700992584229,2,0.6555657795485661,0.02525496534739555,-0.7545781389452239,-0.01440180091126629,0.9886237978935242,0.05699634552001953,-0.1391913890838623,42.80340576171875,-8.153202056884766,-35.43450927734375,2,8363.909412666668,2,0,1580904648.150579,1580903939.50652,226,0.6966805,0,0,212.7492,1,0,1580904562.426208,8361.365309000001,0,4.750885,97.14793
1580904648.874282,13,0,1580904337.000819,41.20701635159924,29.07533761282497,172.748,-1,-1,5.74967098236084,48.00724964208526,-9999,8364.639210666668,0.970947265625,0.0632781982421875,-0.132843017578125,8364.634144666667,-3.130189224861215,1.430931703883753,-0.05701352340688093,-0.000939506571739912,3.536045551300049e-05,0.002029878087341785,-0.01755428314208984,0.0062422975897789,0.008498489856719971,2,0.6555692733738342,0.02525189897805446,-0.7545753820566098,-0.01439490766352117,0.9886258840560913,0.05698264017701149,-0.1391825377941132,42.80340576171875,-8.153202056884766,-35.43450927734375,2,8363.909412666668,2,0,1580904648.150579,1580903939.50652,226,0.6966805,0,0,212.7492,1,0,1580904562.426208,8361.365309000001,0,4.750885,97.14793
1580904648.876987,14,0,1580904337.000819,41.20701635159924,29.07533761282497,172.748,-1,-1,5.74967098236084,48.00724964208526,-9999,8364.649250666667,0.970703125,0.0626678466796875,-0.132904052734375,8364.644184666668,-3.130188008785919,1.430943267431718,-0.05699927525786901,0.0001872708089649677,0.0009623132646083832,0.002211499959230423,-0.01807540655136108,0.006287053227424622,0.005984723567962646,2,0.6555737892624893,0.02524684005660511,-0.7545716560188854,-0.01438992561638566,0.9886282086372375,0.05696841701865196,-0.1391712129116058,42.77147674560547,-8.221725463867188,-35.3870849609375,2,8363.909412666668,2,0,1580904648.150579,1580903939.50652,226,0.6966805,0,0,212.7492,1,0,1580904562.426208,8361.365309000001,0,4.750885,97.14793
1580904648.886828,15,0,1580904337.000819,41.20701635159924,29.07533761282497,172.748,-1,-1,5.74967098236084,48.00724964208526,-9999,8364.659290666666,0.970703125,0.061798095703125,-0.1315155029296875,8364.654255666666,-3.13018212869563,1.430954257311733,-0.05699834271268991,-0.001134189777076244,0.0008414052426815033,-0.0001802844926714897,-0.01832109689712524,0.005677640438079834,0.00591278076171875,2,0.655577870747187,0.02524833673499081,-0.7545681245423054,-0.0143875392716422,0.9886298179626465,0.05696748569607735,-0.1391603499650955,42.77147674560547,-8.221725463867188,-35.3870849609375,2,8363.909412666668,2,0,1580904648.150579,1580903939.50652,226,0.6966805,0,0,212.7492,1,0,1580904562.426208,8361.365309000001,0,4.750885,97.14793
1580904648.896945,16,0,1580904337.000819,41.20701635159924,29.07533761282497,172.748,-1,-1,5.74967098236084,48.00724964208526,-9999,8364.669331666668,0.9720916748046875,0.06268310546875,-0.13232421875,8364.664295666667,-3.130175498370196,1.430964147934555,-0.05698275361500661,-0.001278383657336235,0.001204609870910645,0.00191127136349678,-0.01832354068756104,0.004823453724384308,0.007291734218597412,2,0.6555816909158537,0.02524455941213408,-0.7545651748950701,-0.0143800464646469,0.9886322021484375,0.05695192143321037,-0.1391507238149643,42.86209106445312,-8.045566558837891,-35.2867431640625,2,8363.909412666668,2,0,1580904648.150579,1580903939.50652,226,0.6966805,0,0,212.7492,1,0,1580904562.426208,8361.365309000001,0,4.750885,97.14793
1580904648.90691,17,0,1580904337.000819,41.20701635159924,29.07533761282497,172.748,-1,-1,5.74967098236084,48.00724964208526,-9999,8364.679371666667,0.9728240966796875,0.0618896484375,-0.1337738037109375,8364.674336666667,-3.130175533422061,1.430990536442805,-0.05697157335383063,0.000289419200271368,0.003364432603120804,0.001068913377821445,-0.01693934202194214,0.005719617009162903,0.006457030773162842,2,0.6555917729611068,0.02524014143000219,-0.7545566667286654,-0.01437672482954398,0.9886365532875061,0.05694076046347618,-0.139124721288681,42.86209106445312,-8.045566558837891,-35.2867431640625,2,8363.909412666668,2,0,1580904648.150579,1580903939.50652,226,0.6966805,0,0,212.7492,1,0,1580904562.426208,8361.365309000001,0,4.750885,97.14793
1580904648.935828,18,0,1580904337.000819,41.20701635159924,29.07533761282497,172.748,-1,-1,5.74967098236084,48.00724964208526,-9999,8364.689411666666,0.9711151123046875,0.0614166259765625,-0.1329193115234375,8364.684376666668,-3.130176900856735,1.431038138567826,-0.05699460568930285,-0.0005813306197524071,0.004475360736250877,-0.003309240564703941,-0.0162123441696167,0.004903174936771393,0.004960060119628906,2,0.6556094885256282,0.02524803777699371,-0.7545407863826515,-0.01438539689804323,0.9886417984962463,0.05696375295519829,-0.1390774697065353,42.84772491455078,-8.008514404296875,-35.4241943359375,2,8363.909412666668,2,0,1580904648.150579,1580903939.50652,226,0.6966805,0,0,212.7492,1,0,1580904562.426208,8361.365309000001,0,4.750885,97.14793
1580904648.937459,19,0,1580904337.000819,41.20701635159924,29.07533761282497,172.748,-1,-1,5.74967098236084,48.00724964208526,-9999,8364.699451666667,0.9694366455078125,0.0625,-0.1327056884765625,8364.694416666667,-3.13017105123353,1.431085724395441,-0.05702995016138038,-0.001663106493651867,0.004492670297622681,-0.003874629735946655,-0.01792603731155396,0.004394836723804474,0.005767166614532471,2,0.6556269548192546,0.02526294370941988,-0.7545250046620693,-0.01439537791244455,0.9886465072631836,0.05699904263019562,-0.1390301585197449,42.84772491455078,-8.008514404296875,-35.4241943359375,2,8363.909412666668,2,0,1580904648.150579,1580903939.50652,226,0.6966805,0,0,212.7492,1,0,1580904562.426208,8361.365309000001,0,4.750885,97.14793
1580904648.938567,20,0,1580904337.000819,41.20701635159924,29.07533761282497,172.748,-1,-1,5.74967098236084,48.00724964208526,-9999,8364.709492666667,0.9714508056640625,0.0632781982421875,-0.13275146484375,8364.704456666666,-3.130176956988114,1.431134011190352,-0.05704747020903705,0.00113876536488533,0.004491299390792847,-0.001103908289223909,-0.01961022615432739,0.0054607093334198,0.005932927131652832,2,0.6556450433607213,0.02526726780033656,-0.7545089934210105,-0.01440396077593205,0.9886522889137268,0.0570165328681469,-0.138982281088829,42.94686889648438,-8.299873352050781,-35.3214111328125,2,8363.909412666668,2,0,1580904648.150579,1580903939.50652,226,0.6966805,0,0,212.7492,1,0,1580904562.426208,8361.365309000001,0,4.750885,97.14793
1580904648.947078,21,0,1580904337.000819,41.20701635159924,29.07533761282497,172.748,-1,-1,5.74967098236084,48.00724964208526,-9999,8364.719524791668,0.9724884033203125,0.06298828125,-0.1305999755859375,8364.714497666668,-3.130160079160312,1.431173583815597,-0.05706530652990891,-0.003190469229593873,0.004084367305040359,-0.001200314611196518,-0.0176006555557251,0.006221070885658264,0.005847573280334473,2,0.6556595627459855,0.02527924226202852,-0.7544958429937284,-0.01440394873505949,0.9886565804481506,0.05703433975577354,-0.1389430016279221,42.94686889648438,-8.299873352050781,-35.3214111328125,2,8363.909412666668,2,0,1580904648.150579,1580903939.50652,226,0.6966805,0,0,212.7492,1,0,1580904562.426208,8362.304732000001,0,4.737671,97.14806
1580904648.957101,22,0,1580904337.000819,41.20701635159924,29.07533761282497,172.748,-1,-1,5.74967098236084,48.00724964208526,-9999,8364.729564791667,0.9710540771484375,0.06207275390625,-0.130584716796875,8364.724529791667,-3.130152771845104,1.431183890188862,-0.05706899423638232,-0.0004250844940543175,0.0004794560372829437,-1.550745218992233e-05,-0.01656430959701538,0.005927473306655884,0.007988810539245605,2,0.6556633156388172,0.02528295439766399,-0.7544924890363635,-0.01440253154767372,0.9886578321456909,0.05703802034258842,-0.1389327794313431,43.13291168212891,-8.128620147705078,-35.3643798828125,2,8363.909412666668,2,0,1580904648.150579,1580903939.50652,226,0.6966805,0,0,212.7492,1,0,1580904562.426208,8362.304732000001,0,4.737671,97.14806
1580904648.967177,23,0,1580904337.000819,41.20701635159924,29.07533761282497,172.748,-1,-1,5.74967098236084,48.00724964208526,-9999,8364.739635791668,0.970916748046875,0.0630340576171875,-0.1327362060546875,8364.734569791668,-3.130153454048511,1.431172461211268,-0.0570708225854992,-0.0004107034765183926,-0.002801824361085892,-0.0004184436984360218,-0.01799702644348145,0.005010120570659637,0.00801539421081543,2,0.6556589862515281,0.02528350283461998,-0.7544962975354128,-0.01440324069164509,0.988656222820282,0.05703984573483467,-0.138944074511528,43.13291168212891,-8.128620147705078,-35.3643798828125,2,8363.909412666668,2,0,1580904648.150579,1580903939.50652,226,0.6966805,0,0,212.7492,1,0,1580904562.426208,8362.304732000001,0,4.737671,97.14806
1580904649.000839,24,0,1580904337.000819,41.20701635159924,29.07533761282497,172.748,-1,-1,5.74967098236084,48.00724964208526,-9999,8364.749675791667,0.9716339111328125,0.063232421875,-0.1322479248046875,8364.744610791668,-3.130157328301685,1.431174731713323,-0.05706456998386811,-8.521601557731628e-05,0.000685201957821846,0.001150462776422501,-0.0181349515914917,0.00597766786813736,0.00586169958114624,2,0.6556599684267678,0.02527985807387948,-0.7544955094754044,-0.01440268327248663,0.9886568188667297,0.05703360587358475,-0.1389418691396713,42.8919677734375,-8.274559020996094,-35.5380859375,2,8363.909412666668,2,0,1580904648.150579,1580903939.50652,226,0.6966805,0,0,212.7492,1,0,1580904562.426208,8362.304732000001,0,4.737671,97.14806
1580904649.002317,25,0,1580904337.000819,41.20701635159924,29.07533761282497,172.748,-1,-1,5.74967098236084,48.00724964208526,-9999,8364.759716791667,0.9706573486328125,0.062744140625,-0.13201904296875,8364.754650791667,-3.130168973762622,1.43118193380198,-0.0570630692639463,0.001788318157196045,2.500414848327637e-05,-0.001172346062958241,-0.01741886138916016,0.006177529692649841,0.006342887878417969,2,0.6556628476813363,0.02527542257506091,-0.7544931112537168,-0.01440667400098929,0.9886579513549805,0.05703210458159447,-0.1389347612857819,42.8919677734375,-8.274559020996094,-35.5380859375,2,8363.909412666668,2,0,1580904648.150579,1580903939.50652,226,0.6966805,0,0,212.7492,1,0,1580904562.426208,8362.304732000001,0,4.737671,97.14806
1580904649.003537,26,0,1580904337.000819,41.20701635159924,29.07533761282497,172.748,-1,-1,5.74967098236084,48.00724964208526,-9999,8364.769756791668,0.969146728515625,0.06231689453125,-0.1329345703125,8364.764690791668,-3.130169030867322,1.431200333144552,-0.05703970855726113,-0.0003621848300099373,0.001231417059898376,0.002784312702715397,-0.01839929819107056,0.005712583661079407,0.006553709506988525,2,0.6556700581350932,0.02526646114616758,-0.7544872899939631,-0.01439926660281607,0.9886618256568909,0.0570087842643261,-0.1389167606830597,42.88310241699219,-8.110427856445312,-35.46319580078125,2,8363.909412666668,2,0,1580904648.150579,1580903939.50652,226,0.6966805,0,0,212.7492,1,0,1580904562.426208,8362.304732000001,0,4.737671,97.14806
1580904649.007483,27,0,1580904337.000819,41.20701635159924,29.07533761282497,172.748,-1,-1,5.74967098236084,48.00724964208526,-9999,8364.779796791667,0.97021484375,0.0627593994140625,-0.133026123046875,8364.774730791667,-3.130174891432584,1.431247403476561,-0.05703016527664362,0.0004317550919950008,0.006242655217647552,0.0003302488476037979,-0.01991701126098633,0.005294866859912872,0.005591690540313721,2,0.6556880001406999,0.02526060179134942,-0.7544718802881133,-0.01439894302526311,0.9886688590049744,0.05699925497174263,-0.1388702988624573,42.88310241699219,-8.110427856445312,-35.46319580078125,2,8363.909412666668,2,0,1580904648.150579,1580903939.50652,226,0.6966805,0,0,212.7492,1,0,1580904562.426208,8362.304732000001,0,4.737671,97.14806
1580904649.017599,28,0,1580904337.000819,41.20701635159924,29.07533761282497,172.748,-1,-1,5.74967098236084,48.00724964208526,-9999,8364.789837791666,0.973175048828125,0.0628204345703125,-0.131439208984375,8364.784771791667,-3.130182218050603,1.431284832433077,-0.05700871924880966,0.001590477302670479,0.003760835155844688,0.001500960439443588,-0.01885539293289185,0.005758807063102722,0.005463361740112305,2,0.6557024532896985,0.02524984272483527,-0.7544598316887754,-0.01439514243111768,0.9886753559112549,0.05697784572839737,-0.1388334780931473,42.84711456298828,-8.187511444091797,-35.41082763671875,2,8363.909412666668,2,0,1580904648.150579,1580903939.50652,226,0.6966805,0,0,212.7492,1,0,1580904562.426208,8362.304732000001,0,4.737671,97.14806
1580904649.027518,29,0,1580904337.000819,41.20701635159924,29.07533761282497,172.748,-1,-1,5.74967098236084,48.00724964208526,-9999,8364.799877791667,0.9722900390625,0.0627288818359375,-0.1296539306640625,8364.794841791667,-3.130192149200229,1.431285966954069,-0.05697753126345134,0.001646136865019798,-0.0004067458212375641,0.002466356381773949,-0.01589715480804443,0.005850963294506073,0.007049202919006348,2,0.655703374105912,0.02523481651909085,-0.754459528628171,-0.01438867973424175,0.9886771440505981,0.05694670602679253,-0.1388325840234756,42.84711456298828,-8.187511444091797,-35.41082763671875,2,8363.909412666668,2,0,1580904648.150579,1580903939.50652,226,0.6966805,0,0,212.7492,1,0,1580904562.426208,8362.304732000001,0,4.737671,97.14806
1580904649.055773,30,0,1580904337.000819,41.20701635159924,29.07533761282497,172.748,-1,-1,5.74967098236084,48.00724964208526,-9999,8364.809917791667,0.9695587158203125,0.0626373291015625,-0.131866455078125,8364.804882791666,-3.130187159933262,1.431268041829377,-0.05695309744465254,-0.001286575570702553,-0.002682192251086235,0.002186160534620285,-0.01678109169006348,0.005783826112747192,0.008852362632751465,2,0.6556968320993176,0.02522736647706469,-0.7544656268353837,-0.01437855912989179,0.9886759519577026,0.0569223128259182,-0.1388504952192307,42.79989624023438,-8.201156616210938,-35.35955810546875,2,8363.909412666668,2,0,1580904648.150579,1580903939.50652,226,0.6966805,0,0,212.7492,1,0,1580904562.426208,8362.304732000001,0,4.737671,97.14806
1580904649.057225,31,0,1580904337.000819,41.20701635159924,29.07533761282497,172.748,-1,-1,5.74967098236084,48.00724964208526,-9999,8364.819957791668,0.9690704345703125,0.0630950927734375,-0.1336212158203125,8364.814922791667,-3.130205037553819,1.431282467270593,-0.05691946139024259,0.003625624813139439,0.001695511862635612,0.002053801901638508,-0.0195162296295166,0.005725860595703125,0.00662606954574585,2,0.655702875305722,0.02520871704706339,-0.7544612257082716,-0.01437444695230262,0.9886800646781921,0.05688873305916786,-0.1388365179300308,42.79989624023438,-8.201156616210938,-35.35955810546875,2,8363.909412666668,2,0,1580904648.150579,1580903939.50652,226,0.6966805,0,0,212.7492,1,0,1580904562.426208,8362.304732000001,0,4.737671,97.14806
1580904649.058334,32,0,1580904337.000819,41.20701635159924,29.07533761282497,172.748,-1,-1,5.74967098236084,48.00724964208526,-9999,8364.829998791667,0.972015380859375,0.063232421875,-0.132965087890625,8364.824962791667,-3.130222390438932,1.431305488793,-0.05686415114302551,0.003662222065031528,0.001227445900440216,0.005558336153626442,-0.02001076936721802,0.006238870322704315,0.004848957061767578,2,0.655712417740282,0.025182003493619,-0.7544539717615198,-0.014363145445503,0.9886862635612488,0.05683350935578346,-0.1388141810894012,43.02290344238281,-8.263141632080078,-35.50250244140625,2,8363.909412666668,2,0,1580904648.150579,1580903939.50652,226,0.6966805,0,0,212.7492,1,0,1580904562.426208,8362.304732000001,0,4.737671,97.14806
1580904649.067732,33,0,1580904337.000819,41.20701635159924,29.07533761282497,172.748,-1,-1,5.74967098236084,48.00724964208526,-9999,8364.840038791666,0.9721221923828125,0.0623779296875,-0.130889892578125,8364.835003791668,-3.130222826412809,1.431323540094591,-0.05682052512242182,0.0007029175758361816,0.0004183761775493622,0.004603859037160873,-0.01707065105438232,0.00641980767250061,0.005487740039825439,2,0.6557197286430962,0.02516527893800454,-0.7544485019140567,-0.01434922603782923,0.9886913299560547,0.05678995698690414,-0.1387966871261597,43.02290344238281,-8.263141632080078,-35.50250244140625,2,8363.909412666668,2,0,1580904648.150579,1580903939.50652,226,0.6966805,0,0,212.7492,1,0,1580904562.426208,8362.304732000001,0,4.737671,97.14806
1580904649.077679,34,0,1580904337.000819,41.20701635159924,29.07533761282497,172.748,-1,-1,5.74967098236084,48.00724964208526,-9999,8364.850078791667,0.9701385498046875,0.0629730224609375,-0.1316986083984375,8364.845043791667,-3.130230494823886,1.431333366851175,-0.0567797189258169,0.001535801216959953,0.00135883130133152,0.003985892049968243,-0.0169677734375,0.005606047809123993,0.007553219795227051,2,0.6557240088032329,0.02514730515360156,-0.754445444668624,-0.01433886430780992,0.9886947870254517,0.05674921348690987,-0.1387872695922852,42.99356842041016,-8.381439208984375,-35.4503173828125,2,8363.909412666668,2,0,1580904648.150579,1580903939.50652,226,0.6966805,0,0,212.7492,1,0,1580904562.426208,8362.304732000001,0,4.737671,97.14806
1580904649.087676,35,0,1580904337.000819,41.20701635159924,29.07533761282497,172.748,-1,-1,5.74967098236084,48.00724964208526,-9999,8364.860119791667,0.9700164794921875,0.0624847412109375,-0.133087158203125,8364.855083791666,-3.130243912518013,1.431338739672506,-0.05673316577633431,0.0008995719254016876,0.0007612183690071106,0.004919064231216908,-0.01895475387573242,0.006247632205486298,0.006739556789398193,2,0.655726734832803,0.02512531161919634,-0.7544440352620655,-0.01432872311842201,0.9886982440948486,0.05670273676514626,-0.13878233730793,42.99356842041016,-8.381439208984375,-35.4503173828125,2,8363.909412666668,2,0,1580904648.150579,1580903939.50652,226,0.6966805,0,0,212.7492,1,0,1580904562.426208,8362.304732000001,0,4.737671,97.14806
1580904649.11699,36,0,1580904337.000819,41.20701635159924,29.07533761282497,172.748,-1,-1,5.74967098236084,48.00724964208526,-9999,8364.870159791668,0.969757080078125,0.06109619140625,-0.1337127685546875,8364.865123791667,-3.130264772496822,1.431388707030626,-0.05669860638375933,0.001091606914997101,0.006245225667953491,0.002683091908693314,-0.01908582448959351,0.005793869495391846,0.005301833152770996,2,0.6557462386765872,0.0251050816554297,-0.7544278401765585,-0.01432588296069999,0.9887071251869202,0.0566682331264019,-0.1387332081794739,43.01686096191406,-8.248870849609375,-35.40618896484375,2,8363.909412666668,2,0,1580904648.150579,1580903939.50652,226,0.6966805,0,0,212.7492,1,0,1580904562.426208,8362.304732000001,0,4.737671,97.14806
1580904649.118509,37,0,1580904337.000819,41.20701635159924,29.07533761282497,172.748,-1,-1,5.74967098236084,48.00724964208526,-9999,8364.880230791667,0.968414306640625,0.062774658203125,-0.132049560546875,8364.875164791667,-3.130288350087658,1.431442286790849,-0.05667723931770835,0.002447422593832016,0.004114963114261627,0.0005110176280140877,-0.01935380697250366,0.004426650702953339,0.0046234130859375,2,0.655766991827648,0.02508890954303868,-0.7544102581714897,-0.01432844198886055,0.9887157082557678,0.05664689838886261,-0.1386803984642029,43.01686096191406,-8.248870849609375,-35.40618896484375,2,8363.909412666668,2,0,1580904648.150579,1580903939.50652,226,0.6966805,0,0,212.7492,1,0,1580904562.426208,8362.304732000001,0,4.737671,97.14806
1580904649.119495,38,0,1580904337.000819,41.20701635159924,29.07533761282497,172.748,-1,-1,5.74967098236084,48.00724964208526,-9999,8364.890270791668,0.9647369384765625,0.061065673828125,-0.13525390625,8364.885204791668,-3.130296253277148,1.4315611161612,-0.05665422923984894,0.001272168941795826,0.01202907972037792,0.002141138538718224,-0.02071434259414673,0.006128102540969849,0.006169319152832031,2,0.6558121707042477,0.02507679023676329,-0.754371518726871,-0.01432536256215838,0.9887335896492004,0.05662392824888229,-0.1385630965232849,42.98381805419922,-8.285438537597656,-35.468017578125,2,8363.909412666668,2,0,1580904648.150579,1580903939.50652,226,0.6966805,0,0,212.7492,1,0,1580904562.426208,8362.304732000001,0,4.737671,97.14806
1580904649.128085,39,0,1580904337.000819,41.20701635159924,29.07533761282497,172.748,-1,-1,5.74967098236084,48.00724964208526,-9999,8364.900310791667,0.96417236328125,0.0607147216796875,-0.137298583984375,8364.895244791667,-3.130293351053594,1.431809487483212,-0.05663851584113104,-0.000498566310852766,0.02457256801426411,0.002199461683630943,-0.02442705631256104,0.004434816539287567,0.002719283103942871,2,0.6559059925996765,0.02507003817666337,-0.7542902035635477,-0.01432222797579084,0.9887688159942627,0.05660823732614517,-0.1383176445960999,42.98381805419922,-8.285438537597656,-35.468017578125,2,8363.909412666668,2,0,1580904648.150579,1580903939.50652,226,0.6966805,0,0,212.7492,1,0,1580904562.426208,8362.304732000001,0,4.737671,97.14806
1580904649.137937,40,0,1580904337.000819,41.20701635159924,29.07533761282497,172.748,-1,-1,5.74967098236084,48.00724964208526,-9999,8364.910350791668,0.9655303955078125,0.0606689453125,-0.1353607177734375,8364.905285791667,-3.130297237510625,1.432204671436518,-0.05663730293217692,0.0005539064295589924,0.04043905064463615,-0.0004429337568581104,-0.02504616975784302,0.004085086286067963,0.0002837777137756348,2,0.6560550869833363,0.02506547550105028,-0.7541605246723475,-0.0143282506389549,0.988823413848877,0.05660702660679817,-0.1379268914461136,42.94434356689453,-8.338417053222656,-35.45953369140625,2,8363.909412666668,2,0,1580904648.150579,1580903939.50652,226,0.6966805,0,0,212.7492,1,0,1580904562.426208,8362.304732000001,0,4.737671,97.14806
1580904649.148031,41,0,1580904337.000819,41.20701635159924,29.07533761282497,172.748,-1,-1,5.74967098236084,48.00724964208526,-9999,8364.920391791667,0.96856689453125,0.061676025390625,-0.1313629150390625,8364.915325791668,-3.130297747726191,1.43266444306416,-0.05662785477017303,0.0002146195620298386,0.04583301767706871,0.001301703043282032,-0.02375203371047974,0.004048720002174377,0.001766860485076904,2,0.6562285560206642,0.02505845250286862,-0.7540097475248302,-0.01433110436232074,0.9888872504234314,0.05659759417176247,-0.1374723166227341,42.94434356689453,-8.338417053222656,-35.45953369140625,2,8363.909412666668,2,0,1580904648.150579,1580903939.50652,226,0.6966805,0,0,212.7492,1,0,1580904562.426208,8362.304732000001,0,4.737671,97.14806
1580904649.175726,42,0,1580904337.000819,41.20701635159924,29.07533761282497,172.748,-1,-1,5.74967098236084,48.00724964208526,-9999,8364.930431791667,0.9693756103515625,0.0618133544921875,-0.131500244140625,8364.925365791667,-3.130306418001217,1.43316090733229,-0.05662282745865675,0.0009137615561485291,0.04978735744953156,-6.977841258049011e-05,-0.02078402042388916,0.005060844123363495,0.005273640155792236,2,0.6564158689641595,0.02505015435613064,-0.7538468456137595,-0.01433894020776638,0.9889556765556335,0.05659257620573044,-0.1369813978672028,42.99040985107422,-8.376316070556641,-35.47149658203125,2,8363.909412666668,2,0,1580904648.150579,1580903939.50652,226,0.6966805,0,0,212.7492,1,0,1580904562.426208,8362.304732000001,0,4.737671,97.14806
1580904649.177131,43,0,1580904337.000819,41.20701635159924,29.07533761282497,172.748,-1,-1,5.74967098236084,48.00724964208526,-9999,8364.940471791668,0.9696807861328125,0.061279296875,-0.132293701171875,8364.935436791668,-3.13031116106501,1.433680259191232,-0.05661349874042874,0.0003254693001508713,0.05177993327379227,0.0006223777309060097,-0.0200468897819519,0.005207479000091553,0.004622519016265869,2,0.6566117680597739,0.0250413584470364,-0.7536764226285816,-0.01434416783403623,0.989027202129364,0.05658326297998428,-0.1364678293466568,42.99040985107422,-8.376316070556641,-35.47149658203125,2,8363.909412666668,2,0,1580904648.150579,1580903939.50652,226,0.6966805,0,0,212.7492,1,0,1580904562.426208,8362.304732000001,0,4.737671,97.14806
1580904649.178708,44,0,1580904337.000819,41.20701635159924,29.07533761282497,172.748,-1,-1,5.74967098236084,48.00724964208526,-9999,8364.950512791667,0.9720611572265625,0.0614013671875,-0.128936767578125,8364.945476791667,-3.130311033686386,1.434204666016727,-0.05660036763304542,0.0005211643874645233,0.05272414535284042,0.001961379311978817,-0.01981407403945923,0.004686519503593445,0.003310024738311768,2,0.6568095126793952,0.02503269243273793,-0.753504312343575,-0.01434637278858224,0.9890993237495422,0.0565701499581337,-0.1359492540359497,42.988525390625,-8.154815673828125,-35.5035400390625,2,8363.909412666668,2,0,1580904648.150579,1580903939.50652,226,0.6966805,0,0,212.7492,1,0,1580904562.426208,8362.304732000001,0,4.737671,97.14806
1580904649.188111,45,0,1580904337.000819,41.20701635159924,29.07533761282497,172.748,-1,-1,5.74967098236084,48.00724964208526,-9999,8364.960552791666,0.9716949462890625,0.062744140625,-0.1279449462890625,8364.955516791668,-3.130313300528442,1.434698764421543,-0.05658507824075747,0.001304666511714458,0.04919333010911942,0.001426616683602333,-0.0175015926361084,0.004823885858058929,0.006178438663482666,2,0.6569958367491374,0.02502264580709275,-0.7533423248742169,-0.01434837888777399,0.9891674518585205,0.0565548874437809,-0.1354606747627258,43.14579010009766,-8.360763549804688,-35.33538818359375,2,8363.909412666668,2,0,1580904648.150579,1580903939.50652,226,0.6966805,0,0,212.7492,1,0,1580904562.426208,8362.304732000001,0,4.737671,97.14806
1580904649.198727,46,0,1580904337.000819,41.20701635159924,29.07533761282497,172.748,-1,-1,5.74967098236084,48.00724964208526,-9999,8364.970592791668,0.97125244140625,0.063873291015625,-0.128753662109375,8364.965557791667,-3.130313610184801,1.435176188028083,-0.05654273849478445,0.0008613285608589649,0.04691082239151001,0.003654941916465759,-0.01793491840362549,0.006208918988704681,0.006697475910186768,2,0.6571761580895684,0.02500317686923342,-0.753185511282255,-0.01434056405497489,0.9892340302467346,0.05651261284947395,-0.1349886804819107,43.14579010009766,-8.360763549804688,-35.33538818359375,2,8363.909412666668,2,0,1580904648.150579,1580903939.50652,226,0.6966805,0,0,212.7492,1,0,1580904562.426208,8362.304732000001,0,4.737671,97.14806
1580904649.208122,47,0,1580904337.000819,41.20701635159924,29.07533761282497,172.748,-1,-1,5.74967098236084,48.00724964208526,-9999,8364.980632791667,0.9701080322265625,0.0630950927734375,-0.128997802734375,8364.975597791667,-3.130309754048594,1.43567633962038,-0.05645134279037173,0.0003606542013585567,0.05047386884689331,0.009981546550989151,-0.01844990253448486,0.007429368793964386,0.005394816398620605,2,0.6573654753795241,0.0249664558829126,-0.7530221403249182,-0.0143153066472869,0.9893066883087158,0.05642136558890343,-0.1344946175813675,43.22953796386719,-8.291118621826172,-35.343017578125,2,8363.909412666668,2,0,1580904648.150579,1580903939.50652,226,0.6966805,0,0,212.7492,1,0,1580904562.426208,8362.304732000001,0,4.737671,97.14806
1580904649.237967,48,0,1580904337.000819,41.20701635159924,29.07533761282497,172.748,-1,-1,5.74967098236084,48.00724964208526,-9999,8364.990673791666,0.969940185546875,0.0616607666015625,-0.1281585693359375,8364.985637791668,-3.130327407942682,1.436188840375628,-0.0563460402765842,0.004703385755419731,0.05237676948308945,0.01116872206330299,-0.01966923475265503,0.006756328046321869,0.00464397668838501,2,0.6575598357574589,0.02491735484375017,-0.7528544704826639,-0.01429371498177248,0.9893813729286194,0.05631623044610023,-0.1339883804321289,43.22953796386719,-8.291118621826172,-35.343017578125,2,8363.909412666668,2,0,1580904648.150579,1580903939.50652,226,0.6966805,0,0,212.7492,1,0,1580904562.426208,8362.304732000001,0,4.737671,97.14806
1580904649.239567,49,0,1580904337.000819,41.20701635159924,29.07533761282497,172.748,-1,-1,5.74967098236084,48.00724964208526,-9999,8365.000713791667,0.972015380859375,0.0631256103515625,-0.1268157958984375,8364.995678791667,-3.13035483113956,1.436702973107572,-0.05625483007643028,0.004932683892548084,0.05146809667348862,0.008570542559027672,-0.01991099119186401,0.00541311502456665,0.00497514009475708,2,0.6577547232901745,0.02487034408659892,-0.7526860664146646,-0.01428043042180385,0.9894552826881409,0.05622516572475433,-0.1334803849458694,43.09788513183594,-8.345672607421875,-35.16314697265625,2,8363.909412666668,2,0,1580904648.150579,1580903939.50652,226,0.6966805,0,0,212.7492,1,0,1580904562.426208,8362.304732000001,0,4.737671,97.14806
1580904649.24068,50,0,1580904337.000819,41.20701635159924,29.07533761282497,172.748,-1,-1,5.74967098236084,48.00724964208526,-9999,8365.010753791667,0.97381591796875,0.0611419677734375,-0.1256866455078125,8365.005718791666,-3.130382898805707,1.437237578313919,-0.05616357964585512,0.003918339498341084,0.05472006648778915,0.008842223323881626,-0.01791214942932129,0.006969094276428223,0.005789339542388916,2,0.6579572802637075,0.02482296836248542,-0.7525108136909905,-0.01426760828400256,0.9895316362380981,0.05613405629992485,-0.1329520791769028,43.09788513183594,-8.345672607421875,-35.16314697265625,2,8363.909412666668,2,0,1580904648.150579,1580903939.50652,226,0.6966805,0,0,212.7492,1,0,1580904562.426208,8362.304732000001,0,4.737671,97.14806
1580904649.248461,51,0,1580904337.000819,41.20701635159924,29.07533761282497,172.748,-1,-1,5.74967098236084,48.00724964208526,-9999,8365.020824791667,0.9760894775390625,0.0611572265625,-0.1230010986328125,8365.015758791667,-3.130423930085645,1.437696130697369,-0.05608648335779708,0.005589473061263561,0.04567117244005203,0.006607832387089729,-0.01617676019668579,0.005062460899353027,0.00646507740020752,2,0.6581311829608065,0.02477720022038981,-0.7523602561618028,-0.01426335805851804,0.9895966649055481,0.05605708435177803,-0.1324988752603531,43.06932830810547,-8.311447143554688,-35.24920654296875,2,8363.909412666668,2,0,1580904648.150579,1580903939.50652,226,0.6966805,0,0,212.7492,1,0,1580904562.426208,8362.304732000001,0,4.737671,97.14806
1580904649.258667,52,0,1580904337.000819,41.20701635159924,29.07533761282497,172.748,-1,-1,5.74967098236084,48.00724964208526,-9999,8365.030864791666,0.975982666015625,0.06304931640625,-0.12237548828125,8365.025798791667,-3.130454002314561,1.438047752058659,-0.05601820390570089,0.002938030287623405,0.03560575842857361,0.007385474629700184,-0.0139535665512085,0.005145914852619171,0.008803069591522217,2,0.65826458673354,0.02473912026502299,-0.7522449917563937,-0.01425654087622087,0.9896470904350281,0.05598891153931618,-0.1321514248847961,43.06932830810547,-8.311447143554688,-35.24920654296875,2,8363.909412666668,2,0,1580904648.150579,1580903939.50652,226,0.6966805,0,0,212.7492,1,0,1580904562.426208,8362.304732000001,0,4.737671,97.14806
1580904649.268481,53,0,1580904337.000819,41.20701635159924,29.07533761282497,172.748,-1,-1,5.74967098236084,48.00724964208526,-9999,8365.040905791668,0.9770660400390625,0.06182861328125,-0.1225128173828125,8365.035839791668,-3.130496814556631,1.438307939715617,-0.0559666797362216,0.004839527420699596,0.02634674683213234,0.005687976256012917,-0.01409763097763062,0.007089473307132721,0.009171545505523682,2,0.6583635526541501,0.0247038005887296,-0.7521595381971666,-0.01425889133190632,0.9896843433380127,0.05593746900558472,-0.1318943053483963,43.07876586914062,-8.311779022216797,-35.24884033203125,2,8363.909412666668,2,0,1580904648.150579,1580903939.50652,226,0.6966805,0,0,212.7492,1,0,1580904562.426208,8362.304732000001,0,4.737671,97.14806
1580904649.296826,54,0,1580904337.000819,41.20701635159924,29.07533761282497,172.748,-1,-1,5.74967098236084,48.00724964208526,-9999,8365.050945791667,0.97552490234375,0.0619049072265625,-0.1235504150390625,8365.045879791667,-3.130548470607634,1.438494582728727,-0.05591470014929312,0.006636126898229122,0.01793110556900501,0.004640843719244003,-0.01304179430007935,0.005920685827732086,0.008849620819091797,2,0.6584349697500841,0.02466592206100378,-0.7520981351913653,-0.01426350498528432,0.9897117614746094,0.05588556826114655,-0.1317099630832672,43.07876586914062,-8.311779022216797,-35.24884033203125,2,8363.909412666668,2,0,1580904648.150579,1580903939.50652,226,0.6966805,0,0,212.7492,1,0,1580904562.426208,8362.304732000001,0,4.737671,97.14806
1580904649.298257,55,0,1580904337.000819,41.20701635159924,29.07533761282497,172.748,-1,-1,5.74967098236084,48.00724964208526,-9999,8365.060985791668,0.970489501953125,0.061767578125,-0.125946044921875,8365.055919791666,-3.130591209007687,1.438682786583652,-0.05585795505247849,0.005463803187012672,0.01861553825438023,0.004973739385604858,-0.01461082696914673,0.006053656339645386,0.007626116275787354,2,0.658506909970904,0.0246291764243387,-0.7520363170649808,-0.01426320807488408,0.9897396564483643,0.05582891404628754,-0.1315241008996964,43.27629089355469,-8.634548187255859,-35.07989501953125,2,8363.909412666668,2,0,1580904648.150579,1580903939.50652,226,0.6966805,0,0,212.7492,1,0,1580904562.426208,8362.304732000001,0,4.737671,97.14806
1580904649.299376,56,0,1580904337.000819,41.20701635159924,29.07533761282497,172.748,-1,-1,5.74967098236084,48.00724964208526,-9999,8365.071026791667,0.9688720703125,0.0596923828125,-0.1256256103515625,8365.065960791668,-3.13064040496073,1.438916159027787,-0.05582028240127971,0.005374775268137455,0.02360620908439159,0.002504398114979267,-0.01967906951904297,0.005953952670097351,0.004999637603759766,2,0.6585956898531059,0.0245971513668431,-0.7519594102388871,-0.01427217023780904,0.9897723197937012,0.05579129979014397,-0.1312934011220932,43.27629089355469,-8.634548187255859,-35.07989501953125,2,8363.909412666668,2,0,1580904648.150579,1580903939.50652,226,0.6966805,0,0,212.7492,1,0,1580904562.426208,8362.304732000001,0,4.737671,97.14806
1580904649.309219,57,0,1580904337.000819,41.20701635159924,29.07533761282497,172.748,-1,-1,5.74967098236084,48.00724964208526,-9999,8365.081066791667,0.9688720703125,0.0607757568359375,-0.1278533935546875,8365.076030791668,-3.130690222409005,1.439217350284067,-0.05578755914694268,0.004790477454662323,0.02983986772596836,0.003128376789391041,-0.02133786678314209,0.003911443054676056,0.005021929740905762,2,0.6587099054251822,0.02456629574010125,-0.7518601338925562,-0.01428382144986694,0.9898136258125305,0.05575862526893616,-0.130995512008667,43.14081573486328,-8.366363525390625,-35.11737060546875,2,8363.909412666668,2,0,1580904648.150579,1580903939.50652,226,0.6966805,0,0,212.7492,1,0,1580904562.426208,8362.304732000001,0,4.737671,97.14806
1580904649.318658,58,0,1580904337.000819,41.20701635159924,29.07533761282497,172.748,-1,-1,5.74967098236084,48.00724964208526,-9999,8365.091106791668,0.97076416015625,0.060760498046875,-0.1265106201171875,8365.086071791668,-3.130737004699133,1.439626872674628,-0.05577124386369115,0.00436735525727272,0.0432714968919754,0.001110008917748928,-0.02139246463775635,0.005011104047298431,0.002388834953308105,2,0.6588645947519236,0.02454182847820226,-0.7517251493393674,-0.01430105445588252,0.9898682236671448,0.05574233457446098,-0.1305902898311615,43.14081573486328,-8.366363525390625,-35.11737060546875,2,8363.909412666668,2,0,1580904648.150579,1580903939.50652,226,0.6966805,0,0,212.7492,1,0,1580904562.426208,8362.304732000001,0,4.737671,97.14806
1580904649.328754,59,0,1580904337.000819,41.20701635159924,29.07533761282497,172.748,-1,-1,5.74967098236084,48.00724964208526,-9999,8365.101146791667,0.974761962890625,0.0623626708984375,-0.1213836669921875,8365.096111791667,-3.130775814715821,1.440007650882532,-0.05574472866776385,0.004289590753614902,0.03871003538370132,0.002817627973854542,-0.01955151557922363,0.005022324621677399,0.003354668617248535,2,0.659008478552465,0.0245163553610639,-0.7515996178567003,-0.01431157279169229,0.9899193048477173,0.05571586266160011,-0.1302135437726974,43.00272369384766,-8.285415649414062,-35.18853759765625,2,8363.909412666668,2,0,1580904648.150579,1580903939.50652,226,0.6966805,0,0,212.7492,1,0,1580904562.426208,8362.304732000001,0,4.737671,97.14806
1580904649.360065,60,0,1580904337.000819,41.20701635159924,29.07533761282497,172.748,-1,-1,5.74967098236084,48.00724964208526,-9999,8365.111187791666,0.97686767578125,0.0618133544921875,-0.1200103759765625,8365.106151791668,-3.13080290581422,1.440292561605628,-0.05571398996136596,0.002718052826821804,0.02653796225786209,0.004489554092288017,-0.01559233665466309,0.006655208766460419,0.008199751377105713,2,0.6591162192836038,0.02449384109842365,-0.7515057825643328,-0.01431511187319376,0.9899580478668213,0.05568516999483109,-0.1299317181110382,43.00272369384766,-8.285415649414062,-35.18853759765625,2,8363.909412666668,2,0,1580904648.150579,1580903939.50652,226,0.6966805,0,0,212.7492,1,0,1580904562.426208,8362.304732000001,0,4.737671,97.14806
1580904649.361463,61,0,1580904337.000819,41.20701635159924,29.07533761282497,172.748,-1,-1,5.74967098236084,48.00724964208526,-9999,8365.121227791667,0.97430419921875,0.06048583984375,-0.1231536865234375,8365.116192791667,-3.130837608906013,1.440544979041918,-0.05570548637726959,0.003734049387276173,0.02405589446425438,0.001419727690517902,-0.0135200023651123,0.006114386022090912,0.0093231201171875,2,0.6592115756506294,0.02447740205843987,-0.7514224995768124,-0.01432843438172299,0.9899913668632507,0.05567668005824089,-0.1296819150447845,43.15695953369141,-8.396251678466797,-35.00860595703125,2,8363.909412666668,2,0,1580904648.150579,1580903939.50652,226,0.6966805,0,0,212.7492,1,0,1580904562.426208,8362.304732000001,0,4.737671,97.14806
1580904649.362428,62,0,1580904337.000819,41.20701635159924,29.07533761282497,172.748,-1,-1,5.74967098236084,48.00724964208526,-9999,8365.131267791667,0.9717254638671875,0.0607147216796875,-0.1246490478515625,8365.126232791667,-3.130881770728435,1.440830096609212,-0.05569743955046156,0.005017731338739395,0.02823203802108765,0.0005270643159747124,-0.01612085103988647,0.004794903099536896,0.005897402763366699,2,0.6593193262300149,0.02445777846007866,-0.7513281864951414,-0.01434586331310016,0.9900286793708801,0.05566864833235741,-0.1293996870517731,43.15695953369141,-8.396251678466797,-35.00860595703125,2,8363.909412666668,2,0,1580904648.150579,1580903939.50652,226,0.6966805,0,0,212.7492,1,0,1580904562.426208,8362.304732000001,0,4.737671,97.14806
1580904649.3689,63,0,1580904337.000819,41.20701635159924,29.07533761282497,172.748,-1,-1,5.74967098236084,48.00724964208526,-9999,8365.141308791668,0.97076416015625,0.0606231689453125,-0.125091552734375,8365.136272791668,-3.130923398433428,1.441175424002741,-0.0557003740212221,0.003232082352042198,0.03467795252799988,-0.00121650705114007,-0.01874423027038574,0.005020834505558014,0.004059731960296631,2,0.6594495243203967,0.02444267710835075,-0.7512139317229476,-0.01436669268549905,0.990073025226593,0.055671576410532,-0.129057765007019,43.20236968994141,-8.508075714111328,-35.267333984375,2,8363.909412666668,2,0,1580904648.150579,1580903939.50652,226,0.6966805,0,0,212.7492,1,0,1580904562.426208,8362.304732000001,0,4.737671,97.14806
1580904649.37931,64,0,1580904337.000819,41.20701635159924,29.07533761282497,172.748,-1,-1,5.74967098236084,48.00724964208526,-9999,8365.151348791667,0.9715576171875,0.0616455078125,-0.1229400634765625,8365.146312791667,-3.130969648449273,1.441517732045182,-0.05570402047841489,0.004229416139423847,0.03218600898981094,-0.0005845525301992893,-0.01974946260452271,0.004925638437271118,0.003278195858001709,2,0.6595786120536511,0.0244263341575222,-0.7511006909449524,-0.01438944804201651,0.9901169538497925,0.05567521601915359,-0.1287188231945038,43.20236968994141,-8.508075714111328,-35.267333984375,2,8363.909412666668,2,0,1580904648.150579,1580903939.50652,226,0.6966805,0,0,212.7492,1,0,1580904562.426208,8362.304732000001,0,4.737671,97.14806
1580904649.388951,65,0,1580904337.000819,41.20701635159924,29.07533761282497,172.748,-1,-1,5.74967098236084,48.00724964208526,-9999,8365.161419791668,0.9713134765625,0.0624542236328125,-0.1228179931640625,8365.156353791666,-3.131023795136738,1.441887718995674,-0.05569600610347191,0.005385228432714939,0.03718715906143188,0.0001579364761710167,-0.01900380849838257,0.005956009030342102,0.005063533782958984,2,0.6597182978032132,0.02440280258665548,-0.750978377194387,-0.01441165207017973,0.9901649951934814,0.0556672140955925,-0.1283525377511978,43.21465301513672,-8.310348510742188,-35.309326171875,2,8363.909412666668,2,0,1580904648.150579,1580903939.50652,226,0.6966805,0,0,212.7492,1,0,1580904562.426208,8362.304732000001,0,4.737671,97.14806
1580904649.41975,66,0,1580904337.000819,41.20701635159924,29.07533761282497,172.748,-1,-1,5.74967098236084,48.00724964208526,-9999,8365.171459791667,0.971282958984375,0.0621490478515625,-0.122589111328125,8365.166393791667,-3.131090424211373,1.442263173294791,-0.05567406011652277,0.007247867994010448,0.03749886900186539,0.001487136818468571,-0.01929730176925659,0.006786629557609558,0.004813730716705322,2,0.6598603231146021,0.02436987675976059,-0.7508542201613017,-0.01443400448407657,0.9902142882347107,0.05564530193805695,-0.1279809325933456,43.21465301513672,-8.310348510742188,-35.309326171875,2,8363.909412666668,2,0,1580904648.150579,1580903939.50652,226,0.6966805,0,0,212.7492,1,0,1580904562.426208,8362.304732000001,0,4.737671,97.14806
1580904649.421069,67,0,1580904337.000819,41.20701635159924,29.07533761282497,172.748,-1,-1,5.74967098236084,48.00724964208526,-9999,8365.181499791666,0.9703216552734375,0.060882568359375,-0.123443603515625,8365.176433791667,-3.131157720401183,1.442675955445838,-0.05565207912047804,0.007063843309879303,0.04112929105758667,0.00136116985231638,-0.0193818211555481,0.006503432989120483,0.004633903503417969,2,0.6600163398091327,0.0243364404203761,-0.7507177769673578,-0.01445703563580042,0.990268349647522,0.05562335625290871,-0.1275723427534103,43.15776824951172,-8.510410308837891,-35.1923828125,2,8363.909412666668,2,0,1580904648.150579,1580903939.50652,226,0.6966805,0,0,212.7492,1,0,1580904562.426208,8362.304732000001,0,4.737671,97.14806
1580904649.422203,68,0,1580904337.000819,41.20701635159924,29.07533761282497,172.748,-1,-1,5.74967098236084,48.00724964208526,-9999,8365.191539791667,0.9711151123046875,0.0604705810546875,-0.123077392578125,8365.186474791668,-3.131222805180237,1.443165069116123,-0.0556358688537661,0.006539102643728256,0.04877111315727234,0.001662036404013634,-0.02040642499923706,0.005253121256828308,0.003294706344604492,2,0.6602008933149031,0.02430533745760081,-0.7505558783642634,-0.0144820641717892,0.9903313517570496,0.05560716986656189,-0.1270880550146103,43.15776824951172,-8.510410308837891,-35.1923828125,2,8363.909412666668,2,0,1580904648.150579,1580903939.50652,226,0.6966805,0,0,212.7492,1,0,1580904562.426208,8362.304732000001,0,4.737671,97.14806
1580904649.429284,69,0,1580904337.000819,41.20701635159924,29.07533761282497,172.748,-1,-1,5.74967098236084,48.00724964208526,-9999,8365.201580791667,0.974853515625,0.0600738525390625,-0.12200927734375,8365.196514791667,-3.131297763758678,1.443716967357631,-0.05563907662461834,0.007463219575583935,0.0555906742811203,-0.000855183694511652,-0.01968294382095337,0.004837922751903534,0.003114104270935059,2,0.660408851839414,0.02427779207041822,-0.7503732007389481,-0.01451794966384762,0.9904012680053711,0.05561037361621857,-0.12654148042202,43.11716461181641,-8.522327423095703,-35.0064697265625,2,8363.909412666668,2,0,1580904648.150579,1580903939.50652,226,0.6966805,0,0,212.7492,1,0,1580904562.426208,8362.304732000001,0,4.737671,97.14806
1580904649.439271,70,0,1580904337.000819,41.20701635159924,29.07533761282497,172.748,-1,-1,5.74967098236084,48.00724964208526,-9999,8365.211620791668,0.975860595703125,0.0600433349609375,-0.1178131103515625,8365.206554791666,-3.131382655270726,1.444248597086966,-0.05566291946874821,0.008456584997475147,0.0534202978014946,-0.004455507732927799,-0.01601022481918335,0.004417397081851959,0.003655552864074707,2,0.6606090494561987,0.02425483344964565,-0.7501968733447441,-0.01456412044025587,0.9904671907424927,0.05563417822122574,-0.126014769077301,43.11716461181641,-8.522327423095703,-35.0064697265625,2,8363.909412666668,2,0,1580904648.150579,1580903939.50652,226,0.6966805,0,0,212.7492,1,0,1580904562.426208,8362.304732000001,0,4.737671,97.14806
1580904649.44925,71,0,1580904337.000819,41.20701635159924,29.07533761282497,172.748,-1,-1,5.74967098236084,48.00724964208526,-9999,8365.221660791667,0.97796630859375,0.0616607666015625,-0.1169281005859375,8365.216594791667,-3.131453530360995,1.444725664022572,-0.05568533760660745,0.006199290044605732,0.04880823194980621,-0.003517009317874908,-0.01506209373474121,0.004364475607872009,0.007378637790679932,2,0.660788591251728,0.02423634700166577,-0.750038503587108,-0.01460389657053587,0.9905259013175964,0.0556565634906292,-0.1255420744419098,43.1810302734375,-8.419490814208984,-35.17449951171875,2,8363.909412666668,2,0,1580904648.150579,1580903939.50652,226,0.6966805,0,0,212.7492,1,0,1580904562.426208,8362.304732000001,0,4.737671,97.14806
1580904649.480085,72,0,1580904337.000819,41.20701635159924,29.07533761282497,172.748,-1,-1,5.74967098236084,48.00724964208526,-9999,8365.231701791667,0.982879638671875,0.0622711181640625,-0.1127471923828125,8365.226665791668,-3.131515831993076,1.445084062431035,-0.05567982904056516,0.005921576172113419,0.03672091662883759,0.0002644546329975128,-0.01300162076950073,0.005987420678138733,0.00790858268737793,2,0.6609238046269346,0.02421107623686958,-0.7499196379411549,-0.01462978042482296,0.9905710816383362,0.05565106496214867,-0.12518709897995,43.1810302734375,-8.419490814208984,-35.17449951171875,2,8363.909412666668,2,0,1580904648.150579,1580903939.50652,226,0.6966805,0,0,212.7492,1,0,1580904562.426208,8362.304732000001,0,4.737671,97.14806
1580904649.481345,73,0,1580904337.000819,41.20701635159924,29.07533761282497,172.748,-1,-1,5.74967098236084,48.00724964208526,-9999,8365.241741791668,0.982391357421875,0.06219482421875,-0.111053466796875,8365.236705791667,-3.131575613585543,1.445246662754904,-0.05566037360711735,0.006384166888892651,0.01725373975932598,0.001021591946482658,-0.008109748363494873,0.006617188453674316,0.01192831993103027,2,0.6609857076100858,0.024182836798132,-0.7498656753717512,-0.01464772938159298,0.9905925393104553,0.05563163757324219,-0.1250261664390564,43.16781616210938,-8.477886199951172,-35.08367919921875,2,8363.909412666668,2,0,1580904648.150579,1580903939.50652,226,0.6966805,0,0,212.7492,1,0,1580904562.426208,8362.304732000001,0,4.737671,97.14806
1580904649.482382,74,0,1580904337.000819,41.20701635159924,29.07533761282497,172.748,-1,-1,5.74967098236084,48.00724964208526,-9999,8365.251781791667,0.975921630859375,0.0602569580078125,-0.112945556640625,8365.246746791667,-3.13162373194824,1.445247474732692,-0.05563300252703494,0.004858388565480709,-0.0002567805349826813,0.001806915737688541,-0.008599579334259033,0.006568223237991333,0.01362150907516479,2,0.6609868983371402,0.02415666818826725,-0.7498652656962665,-0.01465673264742172,0.9905940890312195,0.05560430884361267,-0.1250255554914474,43.16781616210938,-8.477886199951172,-35.08367919921875,2,8363.909412666668,2,0,1580904648.150579,1580903939.50652,226,0.6966805,0,0,212.7492,1,0,1580904562.426208,8362.304732000001,0,4.737671,97.14806
1580904649.489436,75,0,1580904337.000819,41.20701635159924,29.07533761282497,172.748,-1,-1,5.74967098236084,48.00724964208526,-9999,8365.261821791668,0.9734344482421875,0.062103271484375,-0.1171875,8365.256786791668,-3.131660931410456,1.445195834235084,-0.05560185064835572,0.003017079085111618,-0.005662731826305389,0.002089743502438068,-0.01506459712982178,0.004661485552787781,0.01178091764450073,2,0.6609683235146948,0.02413307580051095,-0.7498824433888948,-0.01465975390071685,0.9905894994735718,0.05557320639491081,-0.1250769346952438,43.13701629638672,-8.313053131103516,-35.01751708984375,2,8363.909412666668,2,0,1580904648.150579,1580903939.50652,226,0.6966805,0,0,212.7492,1,0,1580904562.426208,8362.304732000001,0,4.737671,97.14806
1580904649.499324,76,0,1580904337.000819,41.20701635159924,29.07533761282497,172.748,-1,-1,5.74967098236084,48.00724964208526,-9999,8365.271862791667,0.9721832275390625,0.061553955078125,-0.119659423828125,8365.266826791667,-3.131706186646364,1.445162405204689,-0.05558159025965061,0.004974822513759136,-0.003336755558848381,0.001207480207085609,-0.01754879951477051,0.00652804970741272,0.007572293281555176,2,0.6609565574482348,0.02411077031391,-0.749893365964564,-0.01466962003130864,0.9905864596366882,0.05555297806859016,-0.1251101940870285,43.13701629638672,-8.313053131103516,-35.01751708984375,2,8363.909412666668,2,0,1580904648.150579,1580903939.50652,226,0.6966805,0,0,212.7492,1,0,1580904562.426208,8362.304732000001,0,4.737671,97.14806
1580904649.509938,77,0,1580904337.000819,41.20701635159924,29.07533761282497,172.748,-1,-1,5.74967098236084,48.00724964208526,-9999,8365.281902791667,0.970367431640625,0.0587615966796875,-0.121429443359375,8365.276867791667,-3.13175310722147,1.445213275314443,-0.05560421549380637,0.005101854912936687,0.005020244047045708,-0.003339068032801151,-0.01880514621734619,0.005956120789051056,0.005049765110015869,2,0.6609759469226351,0.02410337149685587,-0.7498760055139582,-0.01469530549449274,0.9905915856361389,0.05557556822896004,-0.125059649348259,43.30065155029297,-8.512828826904297,-35.222900390625,2,8363.909412666668,2,0,1580904648.150579,1580903939.50652,226,0.6966805,0,0,212.7492,1,0,1580904562.426208,8362.304732000001,0,4.737671,97.14806
1580904649.540328,78,0,1580904337.000819,41.20701635159924,29.07533761282497,172.748,-1,-1,5.74967098236084,48.00724964208526,-9999,8365.291942791668,0.9706573486328125,0.060089111328125,-0.1215362548828125,8365.286907791668,-3.131797312319874,1.445385747489487,-0.05566356062685154,0.003213141113519669,0.01799543015658855,-0.006555634085088968,-0.02063930034637451,0.003104478120803833,0.00310814380645752,2,0.6610404999099941,0.02410973666524445,-0.7498179628938841,-0.014733585051519,0.9906096458435059,0.05563481897115707,-0.1248883530497551,43.30065155029297,-8.512828826904297,-35.222900390625,2,8363.909412666668,2,0,1580904648.150579,1580903939.50652,226,0.6966805,0,0,212.7492,1,0,1580904562.426208,8362.304732000001,0,4.737671,97.14806
1580904649.541651,79,0,1580904337.000819,41.20701635159924,29.07533761282497,172.748,-1,-1,5.74967098236084,48.00724964208526,-9999,8365.301983791667,0.9727630615234375,0.0603790283203125,-0.11834716796875,8365.296947791667,-3.131847052359801,1.44560030748974,-0.05574180206727886,0.004197978414595127,0.02088815532624722,-0.007623828016221523,-0.02037191390991211,0.004353851079940796,0.002788186073303223,2,0.6611206656446982,0.02412103768831977,-0.7497460992775136,-0.01478068482025405,0.9906322360038757,0.05571294203400612,-0.1246752813458443,43.22300720214844,-8.669612884521484,-35.03155517578125,2,8363.909412666668,2,0,1580904648.150579,1580903939.50652,226,0.6966805,0,0,212.7492,1,0,1580904562.426208,8362.304732000001,0,4.737671,97.14806
1580904649.542952,80,0,1580904337.000819,41.20701635159924,29.07533761282497,172.748,-1,-1,5.74967098236084,48.00724964208526,-9999,8365.312053791667,0.97369384765625,0.0614166259765625,-0.11859130859375,8365.306987791668,-3.131896191350206,1.445830466775846,-0.05582275069110339,0.005270712077617645,0.02341302670538425,-0.008693877607584,-0.01829040050506592,0.004562899470329285,0.005748510360717773,2,0.6612066436337261,0.02413342601601669,-0.7496688770544255,-0.01482865179127633,0.9906563758850098,0.05579376220703125,-0.1244467049837112,43.22300720214844,-8.669612884521484,-35.03155517578125,2,8363.909412666668,2,0,1580904648.150579,1580903939.50652,226,0.6966805,0,0,212.7492,1,0,1580904562.426208,8362.304732000001,0,4.737671,97.14806
1580904649.549721,81,0,1580904337.000819,41.20701635159924,29.07533761282497,172.748,-1,-1,5.74967098236084,48.00724964208526,-9999,8365.322094791667,0.97198486328125,0.060699462890625,-0.117401123046875,8365.317028791667,-3.131929194065914,1.446067429912663,-0.05589565633654323,0.002888781018555164,0.0232620257884264,-0.007972960360348225,-0.01738512516021729,0.005527682602405548,0.005269050598144531,2,0.6612950494384658,0.02414807497726212,-0.7495897084053468,-0.01486799115696624,0.9906818866729736,0.0558665543794632,-0.1242114529013634,43.32677459716797,-8.481479644775391,-34.9141845703125,2,8363.909412666668,2,0,1580904648.150579,1580903939.50652,226,0.6966805,0,0,212.7492,1,0,1580904562.426208,8362.304732000001,0,4.737671,97.14806
1580904649.559744,82,0,1580904337.000819,41.20701635159924,29.07533761282497,172.748,-1,-1,5.74967098236084,48.00724964208526,-9999,8365.332134791668,0.9710235595703125,0.0610198974609375,-0.1178741455078125,8365.327068791667,-3.131951684030163,1.446326506390633,-0.05598161069121127,0.0005137678235769272,0.02557861804962158,-0.009172985330224037,-0.01912170648574829,0.004724636673927307,0.006201624870300293,2,0.6613914684660661,0.0241709152008625,-0.7495030536625885,-0.01490798278998783,0.9907091856002808,0.05595237389206886,-0.1239541843533516,43.32677459716797,-8.481479644775391,-34.9141845703125,2,8363.909412666668,2,0,1580904648.150579,1580903939.50652,226,0.6966805,0,0,212.7492,1,0,1580904562.426208,8362.304732000001,0,4.737671,97.14806
1580904649.569779,83,0,1580904337.000819,41.20701635159924,29.07533761282497,172.748,-1,-1,5.74967098236084,48.00724964208526,-9999,8365.342174791667,0.9741363525390625,0.0611114501953125,-0.11749267578125,8365.337108791668,-3.13198420788978,1.446602780347169,-0.05606041613631241,0.002012328244745731,0.02777013182640076,-0.007799326442182064,-0.02011287212371826,0.004966370761394501,0.005454301834106445,2,0.6614945151839869,0.02418762033046561,-0.7494107695619769,-0.01494957992597913,0.9907390475273132,0.05603105574846268,-0.1236799284815788,43.41382598876953,-8.437122344970703,-34.9173583984375,2,8363.909412666668,2,0,1580904648.150579,1580903939.50652,226,0.6966805,0,0,212.7492,1,0,1580904562.426208,8362.304732000001,0,4.737671,97.14806
1580904649.600547,84,0,1580904337.000819,41.20701635159924,29.07533761282497,172.748,-1,-1,5.74967098236084,48.00724964208526,-9999,8365.352214791666,0.974029541015625,0.0617523193359375,-0.1162109375,8365.347149791667,-3.132015776183146,1.446888181510791,-0.05613748983166896,0.001815794035792351,0.02892124466598034,-0.007607041858136654,-0.01703107357025146,0.004980944097042084,0.005552411079406738,2,0.6616009741296066,0.02420391351676695,-0.7493155044668731,-0.01499036010532377,0.9907701015472412,0.056108009070158,-0.1233966425061226,43.41382598876953,-8.437122344970703,-34.9173583984375,2,8363.909412666668,2,0,1580904648.150579,1580903939.50652,226,0.6966805,0,0,212.7492,1,0,1580904562.426208,8362.304732000001,0,4.737671,97.14806
1580904649.601832,85,0,1580904337.000819,41.20701635159924,29.07533761282497,172.748,-1,-1,5.74967098236084,48.00724964208526,-9999,8365.362255791668,0.974212646484375,0.0606842041015625,-0.1150665283203125,8365.357189791666,-3.132035083044105,1.447188151787588,-0.05621926182716098,0.0005329488776624203,0.03037239797413349,-0.007702915463596582,-0.01717036962509155,0.005540110170841217,0.006535947322845459,2,0.6617126867642205,0.02422590198909186,-0.7492152707417179,-0.01502829021221766,0.9908023476600647,0.0561896525323391,-0.1230988502502441,43.33464813232422,-8.454315185546875,-35.031494140625,2,8363.909412666668,2,0,1580904648.150579,1580903939.50652,226,0.6966805,0,0,212.7492,1,0,1580904562.426208,8362.304732000001,0,4.737671,97.14806
1580904649.602852,86,0,1580904337.000819,41.20701635159924,29.07533761282497,172.748,-1,-1,5.74967098236084,48.00724964208526,-9999,8365.372295791667,0.974945068359375,0.06231689453125,-0.1159820556640625,8365.367260791667,-3.132039477716571,1.447478230014439,-0.05629412006939925,-0.0005304967053234577,0.02790990099310875,-0.007344754412770271,-0.01701867580413818,0.004397258162498474,0.007392525672912598,2,0.6618205648920172,0.02425030011485081,-0.7491186312017155,-0.01505822698857819,0.9908338785171509,0.05626439303159714,-0.122810922563076,43.33464813232422,-8.454315185546875,-35.031494140625,2,8363.909412666668,2,0,1580904648.150579,1580903939.50652,226,0.6966805,0,0,212.7492,1,0,1580904562.426208,8362.304732000001,0,4.737671,97.14806
1580904649.610122,87,0,1580904337.000819,41.20701635159924,29.07533761282497,172.748,-1,-1,5.74967098236084,48.00724964208526,-9999,8365.382335791666,0.97442626953125,0.06231689453125,-0.1144256591796875,8365.377300791668,-3.132017466043597,1.447767905168646,-0.05632944036220539,-0.002986996434628963,0.02944894134998322,-0.002122828271239996,-0.01631975173950195,0.005994662642478943,0.006189703941345215,2,0.6619283982216089,0.02426862867472828,-0.7490226289918748,-0.01506518839262974,0.9908674955368042,0.05629965662956238,-0.122523657977581,43.24980163574219,-8.413082122802734,-34.8511962890625,2,8363.909412666668,2,0,1580904648.150579,1580903939.50652,226,0.6966805,0,0,212.7492,1,0,1580904562.426208,8362.304732000001,0,4.737671,97.14806
1580904649.619989,88,0,1580904337.000819,41.20701635159924,29.07533761282497,172.748,-1,-1,5.74967098236084,48.00724964208526,-9999,8365.392376791668,0.97467041015625,0.0622711181640625,-0.1118011474609375,8365.387340791667,-3.131996569418865,1.447995188631635,-0.05634537276911995,-0.002455683890730143,0.02264369279146194,-0.0003827079199254513,-0.0168653130531311,0.005978763103485107,0.007520854473114014,2,0.6620130829595297,0.02427979826482993,-0.7489474228579122,-0.01506539607328058,0.9908944368362427,0.05631556361913681,-0.1222983375191689,43.24980163574219,-8.413082122802734,-34.8511962890625,2,8363.909412666668,2,0,1580904648.150579,1580903939.50652,226,0.6966805,0,0,212.7492,1,0,1580904562.426208,8362.304732000001,0,4.737671,97.14806
1580904649.630059,89,0,1580904337.000819,41.20701635159924,29.07533761282497,172.748,-1,-1,5.74967098236084,48.00724964208526,-9999,8365.402416791667,0.9740447998046875,0.0632171630859375,-0.1128387451171875,8365.397381791667,-3.131994019700432,1.448145538983919,-0.05636712174437771,-0.0008705700747668743,0.01525448635220528,-0.001931602135300636,-0.01663833856582642,0.005911260843276978,0.00999605655670166,2,0.66206910985816,0.02428765164724054,-0.7488974865962961,-0.01507346807041661,0.990911602973938,0.05633727833628654,-0.1221492066979408,43.43434906005859,-8.228645324707031,-34.83673095703125,2,8363.909412666668,2,0,1580904648.150579,1580903939.50652,226,0.6966805,0,0,212.7492,1,0,1580904562.426208,8362.304732000001,0,4.737671,97.14806
1580904649.659075,90,0,1580904337.000819,41.20701635159924,29.07533761282497,172.748,-1,-1,5.74967098236084,48.00724964208526,-9999,8365.412456791668,0.974090576171875,0.064208984375,-0.113311767578125,8365.407421791668,-3.131998859995968,1.448239823505376,-0.05637176437808698,-6.729690358042717e-05,0.009129369631409645,0.0001289304345846176,-0.01727521419525146,0.006852664053440094,0.008864998817443848,2,0.6621044236181199,0.02428707646071147,-0.7488661499061919,-0.01507796458368202,0.9909228086471558,0.05634191259741783,-0.1220557391643524,43.43434906005859,-8.228645324707031,-34.83673095703125,2,8363.909412666668,2,0,1580904648.150579,1580903939.50652,226,0.6966805,0,0,212.7492,1,0,1580904562.426208,8362.304732000001,0,4.737671,97.14806
1580904649.66083,91,0,1580904337.000819,41.20701635159924,29.07533761282497,172.748,-1,-1,5.74967098236084,48.00724964208526,-9999,8365.422496791667,0.9745025634765625,0.0634613037109375,-0.1140594482421875,8365.417461791667,-3.132021452637985,1.448306920611839,-0.0563613617040801,0.002217695116996765,0.00711442343890667,0.001306580379605293,-0.01723814010620117,0.007854878902435303,0.008325576782226562,2,0.6621299400582263,0.02427519677325257,-0.7488438010212159,-0.01508379577602306,0.9909314513206482,0.05633152648806572,-0.1219893172383308,43.57006072998047,-8.405681610107422,-34.85107421875,2,8363.909412666668,2,0,1580904648.150579,1580903939.50652,226,0.6966805,0,0,212.7492,1,0,1580904562.426208,8362.304732000001,0,4.737671,97.14806
1580904649.662001,92,0,1580904337.000819,41.20701635159924,29.07533761282497,172.748,-1,-1,5.74967098236084,48.00724964208526,-9999,8365.432537791667,0.9752349853515625,0.06011962890625,-0.114593505859375,8365.427501791668,-3.132050495906333,1.448356726259196,-0.05636435099275629,0.0031164875254035,0.004530509933829308,-0.0003986582159996033,-0.01683199405670166,0.007104203104972839,0.007528424263000488,2,0.662148907718207,0.02426632460533668,-0.7488270600161853,-0.01509626468912809,0.990937352180481,0.05633451044559479,-0.121939942240715,43.57006072998047,-8.405681610107422,-34.85107421875,2,8363.909412666668,2,0,1580904648.150579,1580903939.50652,226,0.6966805,0,0,212.7492,1,0,1580904562.426208,8362.304732000001,0,4.737671,97.14806
1580904649.670226,93,0,1580904337.000819,41.20701635159924,29.07533761282497,172.748,-1,-1,5.74967098236084,48.00724964208526,-9999,8365.442577791668,0.972747802734375,0.0601043701171875,-0.1168975830078125,8365.437542791668,-3.132082194220463,1.448430790909937,-0.05638913120652572,0.003228606656193733,0.006801920011639595,-0.002780057024210691,-0.01610738039016724,0.003737792372703552,0.006920814514160156,2,0.662176742110947,0.02426454634053291,-0.7488021632403415,-0.01511723484356657,0.9909451007843018,0.05635925382375717,-0.1218663901090622,43.50479125976562,-8.31060791015625,-34.79901123046875,2,8363.909412666668,2,0,1580904648.150579,1580903939.50652,226,0.6966805,0,0,212.7492,1,0,1580904562.426208,8362.304732000001,0,4.737671,97.14806
1580904649.680233,94,0,1580904337.000819,41.20701635159924,29.07533761282497,172.748,-1,-1,5.74967098236084,48.00724964208526,-9999,8365.452648791666,0.9730682373046875,0.0619049072265625,-0.1154937744140625,8365.447582791667,-3.132116566464757,1.448526027708216,-0.05642183560963684,0.002718097530305386,0.009085072204470634,-0.003930265083909035,-0.0186043381690979,0.003689855337142944,0.004522204399108887,2,0.6622124494479491,0.02426468681750051,-0.7487701121053768,-0.01514208928514868,0.9909549355506897,0.05639190599322319,-0.1217717900872231,43.50479125976562,-8.31060791015625,-34.79901123046875,2,8363.909412666668,2,0,1580904648.150579,1580903939.50652,226,0.6966805,0,0,212.7492,1,0,1580904562.426208,8362.304732000001,0,4.737671,97.14806
1580904649.690251,95,0,1580904337.000819,41.20701635159924,29.07533761282497,172.748,-1,-1,5.74967098236084,48.00724964208526,-9999,8365.462688791667,0.9730682373046875,0.062652587890625,-0.11395263671875,8365.457622791668,-3.13215237277021,1.448607293055831,-0.05643958318390807,0.003404393792152405,0.009824367240071297,-0.002239690627902746,-0.01829266548156738,0.005472674965858459,0.005845248699188232,2,0.6622431164734351,0.02425885766875444,-0.7487426691567965,-0.01516236239286632,0.9909636974334717,0.05640962347388268,-0.1216911226511002,43.56839752197266,-8.476364135742188,-34.87939453125,2,8363.909412666668,2,0,1580904648.150579,1580903939.50652,226,0.6966805,0,0,212.7492,1,0,1580904562.426208,8362.304732000001,0,4.737671,97.14806
1580904649.719233,96,0,1580904337.000819,41.20701635159924,29.07533761282497,172.748,-1,-1,5.74967098236084,48.00724964208526,-9999,8365.472728791667,0.9741058349609375,0.0633544921875,-0.11114501953125,8365.467662791667,-3.132189184496341,1.448608082451357,-0.05643128923735115,0.00364540982991457,0.0002612210810184479,-0.0003549717366695404,-0.01829326152801514,0.006228640675544739,0.007385671138763428,2,0.662243950326703,0.02424355824225133,-0.748742206595189,-0.01517340595668372,0.9909642934799194,0.05640134215354919,-0.1216903999447823,43.56839752197266,-8.476364135742188,-34.87939453125,2,8363.909412666668,2,0,1580904648.150579,1580903939.50652,226,0.6966805,0,0,212.7492,1,0,1580904562.426208,8362.304732000001,0,4.737671,97.14806
1580904649.720943,97,0,1580904337.000819,41.20701635159924,29.07533761282497,172.748,-1,-1,5.74967098236084,48.00724964208526,-9999,8365.482769791668,0.97442626953125,0.062835693359375,-0.1113128662109375,8365.477703791666,-3.132220292182828,1.448499367081475,-0.05638016438076197,0.003287709318101406,-0.0110724400728941,0.004658404737710953,-0.01724541187286377,0.006981603801250458,0.01030141115188599,2,0.6622041889770884,0.0242149472677568,-0.7487785109953389,-0.01516679874365556,0.9909539818763733,0.05635029822587967,-0.121798500418663,43.53759002685547,-8.300243377685547,-34.9539794921875,2,8363.909412666668,2,0,1580904648.150579,1580903939.50652,226,0.6966805,0,0,212.7492,1,0,1580904562.426208,8362.304732000001,0,4.737671,97.14806
1580904649.722126,98,0,1580904337.000819,41.20701635159924,29.07533761282497,172.748,-1,-1,5.74967098236084,48.00724964208526,-9999,8365.492809791667,0.974365234375,0.0628662109375,-0.1134796142578125,8365.487743791668,-3.132248155828268,1.448318841415689,-0.05631180170384686,0.003161197528243065,-0.0172871183604002,0.00582086481153965,-0.01690673828125,0.006531089544296265,0.01031297445297241,2,0.6621376951119231,0.0241815010223839,-0.7488386686628863,-0.01515240677345681,0.9909358024597168,0.05628204718232155,-0.1219778582453728,43.53759002685547,-8.300243377685547,-34.9539794921875,2,8363.909412666668,2,0,1580904648.150579,1580903939.50652,226,0.6966805,0,0,212.7492,1,0,1580904562.426208,8362.304732000001,0,4.737671,97.14806
1580904649.730484,99,0,1580904337.000819,41.20701635159924,29.07533761282497,172.748,-1,-1,5.74967098236084,48.00724964208526,-9999,8365.502849791666,0.9681243896484375,0.060821533203125,-0.1183624267578125,8365.497783791667,-3.132274269445324,1.448188736088328,-0.05623068111414873,0.00385601632297039,-0.01307879108935595,0.00750797800719738,-0.01695650815963745,0.006642617285251617,0.008275747299194336,2,0.6620901890585414,0.02414347422736356,-0.7488823380700551,-0.01513374668535356,0.9909245371818542,0.05620105192065239,-0.1221073493361473,43.37997436523438,-8.471561431884766,-34.77484130859375,2,8363.909412666668,2,0,1580904648.150579,1580903939.50652,226,0.6966805,0,0,212.7492,1,0,1580904562.426208,8362.304732000001,0,4.737671,97.14806
1580904649.740564,100,0,1580904337.000819,41.20701635159924,29.07533761282497,172.748,-1,-1,5.74967098236084,48.00724964208526,-9999,8365.512890791668,0.968292236328125,0.0614776611328125,-0.118255615234375,8365.507854791667,-3.132303534406019,1.448167892229383,-0.05616299159775315,0.004339085891842842,-0.001671522855758667,0.005913521163165569,-0.02319878339767456,0.004665553569793701,0.003413915634155273,2,0.6620834884943942,0.0241086037772759,-0.748889565011796,-0.01512204077102293,0.990925669670105,0.05613347142934799,-0.1221284568309784,43.3057861328125,-8.498855590820312,-34.96319580078125,2,8363.909412666668,2,0,1580904648.150579,1580903939.50652,226,0.6966805,0,0,212.7492,1,0,1580904562.426208,8362.304732000001,0,4.737671,97.14806
1580904649.750354,101,0,1580904337.000819,41.20701635159924,29.07533761282497,172.748,-1,-1,5.74967098236084,48.00724964208526,-9999,8365.522930791667,0.975189208984375,0.061767578125,-0.1158447265625,8365.517894791667,-3.132327740151764,1.448206721312587,-0.05609263043245369,0.003367298282682896,0.005278263241052628,0.006947093643248081,-0.02303934097290039,0.005391962826251984,0.0034828782081604,2,0.6620990960498414,0.02407395700710011,-0.7488771487844946,-0.01510827291101241,0.9909343123435974,0.0560632199048996,-0.1220904663205147,43.3057861328125,-8.498855590820312,-34.96319580078125,2,8363.909412666668,2,0,1580904648.150579,1580903939.50652,226,0.6966805,0,0,212.7492,1,0,1580904562.426208,8362.304732000001,0,4.737671,97.14806
1580904649.778341,102,0,1580904337.000819,41.20701635159924,29.07533761282497,172.748,-1,-1,5.74967098236084,48.00724964208526,-9999,8365.532970791668,0.9808349609375,0.06280517578125,-0.1112823486328125,8365.527935791668,-3.132349588907426,1.448195457694444,-0.05602137544994334,0.002648244611918926,-8.720718324184418e-05,0.007175593636929989,-0.01614487171173096,0.005753040313720703,0.005905389785766602,2,0.6620959309805363,0.02404013429115513,-0.7488812683054953,-0.01509272579199793,0.990936815738678,0.05599207803606987,-0.1221020966768265,43.281494140625,-8.562992095947266,-34.93463134765625,2,8363.909412666668,2,0,1580904648.150579,1580903939.50652,226,0.6966805,0,0,212.7492,1,0,1580904562.426208,8362.304732000001,0,4.737671,97.14806
1580904649.78006,103,0,1580904337.000819,41.20701635159924,29.07533761282497,172.748,-1,-1,5.74967098236084,48.00724964208526,-9999,8365.543010791667,0.98223876953125,0.061492919921875,-0.1095428466796875,8365.537975791667,-3.132366686295953,1.448059193013164,-0.05596870334164321,0.001314001157879829,-0.0119159035384655,0.004661036655306816,-0.01048535108566284,0.006843261420726776,0.01060336828231812,2,0.6620456863854058,0.02401578384243191,-0.7489268034376511,-0.01508004627975305,0.9909232258796692,0.05593948811292648,-0.122237503528595,43.281494140625,-8.562992095947266,-34.93463134765625,2,8363.909412666668,2,0,1580904648.150579,1580903939.50652,226,0.6966805,0,0,212.7492,1,0,1580904562.426208,8362.304732000001,0,4.737671,97.14806
1580904649.781377,104,0,1580904337.000819,41.20701635159924,29.07533761282497,172.748,-1,-1,5.74967098236084,48.00724964208526,-9999,8365.553051791667,0.9806060791015625,0.0615234375,-0.1091461181640625,8365.548015791666,-3.132381377330822,1.447744942600773,-0.05593580356345666,0.001551289111375809,-0.03184513747692108,0.002657273784279823,-0.009045004844665527,0.005563870072364807,0.01265448331832886,2,0.6619285406931738,0.02400097213509299,-0.7490310044819629,-0.01507088271413307,0.9908865690231323,0.05590663850307465,-0.1225491240620613,43.28644561767578,-8.351421356201172,-34.79180908203125,2,8363.909412666668,2,0,1580904648.150579,1580903939.50652,226,0.6966805,0,0,212.7492,1,0,1580904562.426208,8362.304732000001,0,4.737671,97.14806
1580904649.790691,105,0,1580904337.000819,41.20701635159924,29.07533761282497,172.748,-1,-1,5.74967098236084,48.00724964208526,-9999,8365.563091791668,0.97711181640625,0.06231689453125,-0.1132049560546875,8365.558056791668,-3.132386532915016,1.447335959366386,-0.05589853979103913,0.0007760426960885525,-0.04155555367469788,0.003487913869321346,-0.01062959432601929,0.005631610751152039,0.01345700025558472,2,0.6617758203404187,0.02398839264043943,-0.749166761860485,-0.01505556739993655,0.9908385872840881,0.05586943402886391,-0.1229546442627907,43.28644561767578,-8.351421356201172,-34.79180908203125,2,8363.909412666668,2,0,1580904648.150579,1580903939.50652,226,0.6966805,0,0,212.7492,1,0,1580904562.426208,8362.304732000001,0,4.737671,97.14806
1580904649.800609,106,0,1580904337.000819,41.20701635159924,29.07533761282497,172.748,-1,-1,5.74967098236084,48.00724964208526,-9999,8365.573131791667,0.974151611328125,0.0616912841796875,-0.1150970458984375,8365.568096791667,-3.132380345805307,1.44690010055447,-0.05584255407370183,4.527159035205841e-05,-0.04446559026837349,0.006531374529004097,-0.01407337188720703,0.006480976939201355,0.009830355644226074,2,0.6616130843216731,0.02397274906596703,-0.7493114227122941,-0.01502949873608869,0.9907878637313843,0.05581353604793549,-0.1233868673443794,43.31465148925781,-8.365020751953125,-34.892333984375,2,8363.909412666668,2,0,1580904648.150579,1580903939.50652,226,0.6966805,0,0,212.7492,1,0,1580904562.426208,8362.304732000001,0,4.737671,97.14806
1580904649.810621,107,0,1580904337.000819,41.20701635159924,29.07533761282497,172.748,-1,-1,5.74967098236084,48.00724964208526,-9999,8365.583172791667,0.970184326171875,0.0610504150390625,-0.11767578125,8365.578136791668,-3.132378608087715,1.446487035649602,-0.05579841432344555,0.000360589474439621,-0.04103624075651169,0.004514296539127827,-0.01698505878448486,0.00589945912361145,0.008347868919372559,2,0.6614587766487237,0.02395989085244252,-0.7494484486696976,-0.01500929391878231,0.9907392859458923,0.05576946586370468,-0.1237964183092117,43.31465148925781,-8.365020751953125,-34.892333984375,2,8363.909412666668,2,0,1580904648.150579,1580903939.50652,226,0.6966805,0,0,212.7492,1,0,1580904562.426208,8362.304732000001,0,4.737671,97.14806
1580904649.840871,108,0,1580904337.000819,41.20701635159924,29.07533761282497,172.748,-1,-1,5.74967098236084,48.00724964208526,-9999,8365.593242791667,0.9708709716796875,0.0607147216796875,-0.1197662353515625,8365.588176791667,-3.132384043340027,1.446144420036129,-0.05576671423267361,-0.000147008802741766,-0.03286033496260643,0.003333716653287411,-0.02091187238693237,0.005290225148200989,0.006108701229095459,2,0.6613307944774048,0.02394878650488493,-0.7495619656298765,-0.01499674206581098,0.990698516368866,0.05573781207203865,-0.1241360753774643,43.42984771728516,-8.464183807373047,-34.93389892578125,2,8363.909412666668,2,0,1580904648.150579,1580903939.50652,226,0.6966805,0,0,212.7492,1,0,1580904562.426208,8362.304732000001,0,4.737671,97.14806
1580904649.842247,109,0,1580904337.000819,41.20701635159924,29.07533761282497,172.748,-1,-1,5.74967098236084,48.00724964208526,-9999,8365.603283791666,0.972747802734375,0.0598602294921875,-0.1182708740234375,8365.598217791667,-3.132401978378499,1.445859555189513,-0.0557551000959754,0.001282588578760624,-0.02869255840778351,0.001572843641042709,-0.02019029855728149,0.004966139793395996,0.004300713539123535,2,0.6612243686651609,0.02394064038813647,-0.7496561057596174,-0.01499621311064529,0.9906637072563171,0.05572621896862984,-0.1244183629751205,43.42984771728516,-8.464183807373047,-34.93389892578125,2,8365.589306791668,1,2,1580904649.830473,1580903939.50652,226,0.6966805,0,0,212.7492,1,0,1580904562.426208,8362.304732000001,0,4.737671,97.14806
1580904649.843497,110,0,1580904337.000819,41.20701635159924,29.07533761282497,172.748,-1,-1,5.74967098236084,48.00724964208526,-9999,8365.613323791667,0.9716644287109375,0.0606689453125,-0.1199951171875,8365.608257791668,-3.132432718842922,1.44563955232733,-0.05576819601801139,0.003973753191530704,-0.02240559458732605,-0.001380304805934429,-0.01828527450561523,0.004098564386367798,0.006013989448547363,2,0.6611421292003564,0.02393703591376444,-0.7497284367580553,-0.01500943536700262,0.9906355738639832,0.05573929473757744,-0.1246362030506134,43.32929229736328,-8.384788513183594,-34.96746826171875,2,8365.589306791668,1,2,1580904649.830473,1580903939.50652,226,0.6966805,0,0,212.7492,1,0,1580904562.426208,8362.304732000001,0,4.737671,97.14806
1580904649.851259,111,0,1580904337.000819,41.20701635159924,29.07533761282497,172.748,-1,-1,5.74967098236084,48.00724964208526,-9999,8365.623363791667,0.96844482421875,0.0604705810546875,-0.12005615234375,8365.618297791667,-3.132460158706301,1.445486683294993,-0.05581520376146807,0.003001432865858078,-0.01549921836704016,-0.005006731487810612,-0.01934701204299927,0.004860326647758484,0.004440903663635254,2,0.661084635481597,0.02394673181779154,-0.7497783579302925,-0.01503343457120832,0.9906138777732849,0.05578622594475746,-0.1247873157262802,43.32929229736328,-8.384788513183594,-34.96746826171875,2,8365.589306791668,1,2,1580904649.830473,1580903939.50652,226,0.6966805,0,0,212.7492,1,0,1580904562.426208,8362.304732000001,0,4.737671,97.14806
1580904649.860993,112,0,1580904337.000819,41.20701635159924,29.07533761282497,172.748,-1,-1,5.74967098236084,48.00724964208526,-9999,8365.633403791668,0.9690704345703125,0.06134033203125,-0.1202392578125,8365.628338791666,-3.132484174366613,1.445396514276932,-0.05587091871015937,0.00189968291670084,-0.009082597680389881,-0.005742296576499939,-0.02255219221115112,0.004606336355209351,0.004469156265258789,2,0.6610505019528997,0.02396035511945926,-0.7498076085211629,-0.01505977428718065,0.9905996918678284,0.05584185570478439,-0.1248762682080269,43.15070343017578,-8.415199279785156,-35.13165283203125,2,8365.589306791668,1,2,1580904649.830473,1580903939.50652,226,0.6966805,0,0,212.7492,1,0,1580904562.426208,8362.304732000001,0,4.737671,97.14806
1580904649.871017,113,0,1580904337.000819,41.20701635159924,29.07533761282497,172.748,-1,-1,5.74967098236084,48.00724964208526,-9999,8365.643444791667,0.9647064208984375,0.061553955078125,-0.121185302734375,8365.638378791667,-3.13250177744779,1.445386197551187,-0.05590119577996533,0.001174758188426495,-0.0005918350070714951,-0.003075148910284042,-0.0219237208366394,0.005445823073387146,0.004295766353607178,2,0.6610465199503615,0.02396596283694589,-0.7498105080048223,-0.0150762643070273,0.9905965924263,0.05587208643555641,-0.1248862594366074,43.15070343017578,-8.415199279785156,-35.13165283203125,2,8365.589306791668,1,2,1580904649.830473,1580903939.50652,226,0.6966805,0,0,212.7492,1,0,1580904562.426208,8362.304732000001,0,4.737671,97.14806
1580904649.899349,114,0,1580904337.000819,41.20701635159924,29.07533761282497,172.748,-1,-1,5.74967098236084,48.00724964208526,-9999,8365.653484791666,0.964019775390625,0.060791015625,-0.121795654296875,8365.648449791666,-3.132515787134333,1.445474135546197,-0.05589910129774953,0.0006043151952326298,0.009160231798887253,0.0005486179143190384,-0.02629882097244263,0.005661524832248688,0.003262579441070557,2,0.6610796789059441,0.02395988412626443,-0.7497813481155708,-0.01508187789694858,0.9906076788902283,0.05586999282240868,-0.1247991621494293,43.21152496337891,-8.312049865722656,-34.9580078125,2,8365.589306791668,1,2,1580904649.830473,1580903939.50652,226,0.6966805,0,0,212.7492,1,0,1580904562.426208,8363.244054999999,0,4.695404,97.14857
1580904649.900593,115,0,1580904337.000819,41.20701635159924,29.07533761282497,172.748,-1,-1,5.74967098236084,48.00724964208526,-9999,8365.663524791667,0.9701385498046875,0.062042236328125,-0.118682861328125,8365.658489791667,-3.132520498396876,1.445617149292888,-0.05586864973185962,0.001143605448305607,0.01426630839705467,0.004090355709195137,-0.0270048975944519,0.004929028451442719,0.002510905265808105,2,0.6611336774897392,0.02394583562289185,-0.7497343775340373,-0.01507528564701895,0.9906272888183594,0.05583959072828293,-0.1246577128767967,43.21152496337891,-8.312049865722656,-34.9580078125,2,8365.589306791668,1,2,1580904649.830473,1580903939.50652,226,0.6966805,0,0,212.7492,1,0,1580904562.426208,8363.244054999999,0,4.695404,97.14857
1580904649.901713,116,0,1580904337.000819,41.20701635159924,29.07533761282497,172.748,-1,-1,5.74967098236084,48.00724964208526,-9999,8365.673565791667,0.9755096435546875,0.06304931640625,-0.1157989501953125,8365.668529791667,-3.132521593108281,1.445750781459018,-0.05582540176865317,0.002115612849593163,0.01454846188426018,0.004911906085908413,-0.0209052562713623,0.006223440170288086,0.005491375923156738,2,0.6611842611748697,0.02392825855184243,-0.74969049908695,-0.01506299744888319,0.9906462430953979,0.05579641088843346,-0.1245256215333939,43.30232238769531,-8.329086303710938,-35.0491943359375,2,8365.589306791668,1,2,1580904649.830473,1580903939.50652,226,0.6966805,0,0,212.7492,1,0,1580904562.426208,8363.244054999999,0,4.695404,97.14857
1580904649.911767,117,0,1580904337.000819,41.20701635159924,29.07533761282497,172.748,-1,-1,5.74967098236084,48.00724964208526,-9999,8365.683605791668,0.9771881103515625,0.061553955078125,-0.11529541015625,8365.678569791668,-3.132525038796167,1.445812345616005,-0.05579634166086301,0.000668451189994812,0.004172518849372864,0.002674584276974201,-0.01554358005523682,0.007259540259838104,0.00831449031829834,2,0.6612076904761122,0.02391576562231108,-0.749670486517896,-0.01505541148252995,0.9906556606292725,0.05576739460229874,-0.1244648545980453,43.30232238769531,-8.329086303710938,-35.0491943359375,2,8365.589306791668,1,2,1580904649.830473,1580903939.50652,226,0.6966805,0,0,212.7492,1,0,1580904562.426208,8363.244054999999,0,4.695404,97.14857
1580904649.921257,118,0,1580904337.000819,41.20701635159924,29.07533761282497,172.748,-1,-1,5.74967098236084,48.00724964208526,-9999,8365.693645791667,0.972900390625,0.0608978271484375,-0.118255615234375,8365.688610791667,-3.132543081937523,1.445882948116211,-0.05578017898922481,0.002395538613200188,0.007747925817966461,0.00163810420781374,-0.01387470960617065,0.005780316889286041,0.008748233318328857,2,0.661234549485897,0.02390321185633223,-0.7496471048036464,-0.01505767535287164,0.9906652569770813,0.0557512566447258,-0.1243950128555298,43.15665435791016,-8.260498046875,-34.9403076171875,2,8365.589306791668,1,2,1580904649.830473,1580903939.50652,226,0.6966805,0,0,212.7492,1,0,1580904562.426208,8363.244054999999,0,4.695404,97.14857
1580904649.931296,119,0,1580904337.000819,41.20701635159924,29.07533761282497,172.748,-1,-1,5.74967098236084,48.00724964208526,-9999,8365.703685791666,0.9715728759765625,0.0608367919921875,-0.1182861328125,8365.698650791666,-3.132560932702866,1.445972990924721,-0.05577418888514377,0.0013238824903965,0.009363666176795959,0.001256473362445831,-0.0181739330291748,0.005130186676979065,0.005698800086975098,2,0.6612685816830319,0.02389438705221155,-0.7496171855470833,-0.01506346354723398,0.9906767010688782,0.05574527755379677,-0.1243058443069458,43.15665435791016,-8.260498046875,-34.9403076171875,2,8365.589306791668,1,2,1580904649.830473,1580903939.50652,226,0.6966805,0,0,212.7492,1,0,1580904562.426208,8363.244054999999,0,4.695404,97.14857
1580904649.956294,120,0,1580904337.000819,41.20701635159924,29.07533761282497,172.748,-1,-1,5.74967098236084,48.00724964208526,-9999,8365.713726791668,0.9717559814453125,0.0605010986328125,-0.1177978515625,8365.708690791667,-3.132580156929056,1.446114876703501,-0.05578386628677615,0.001108773052692413,0.01468288153409958,-0.0007533631287515163,-0.01951867341995239,0.005059473216533661,0.005527496337890625,2,0.6613218782286318,0.02389058799808236,-0.7495701388482229,-0.01507556076448573,0.9906939268112183,0.05575493723154068,-0.1241652294993401,43.30621337890625,-8.345161437988281,-34.964111328125,2,8365.589306791668,1,2,1580904649.830473,1580903939.50652,226,0.6966805,0,0,212.7492,1,0,1580904562.426208,8363.244054999999,0,4.695404,97.14857
1580904649.957597,121,0,1580904337.000819,41.20701635159924,29.07533761282497,172.748,-1,-1,5.74967098236084,48.00724964208526,-9999,8365.723783375,0.973358154296875,0.0609283447265625,-0.1168670654296875,8365.718731791667,-3.132609359698431,1.446264657590727,-0.05579939707689362,0.003002546727657318,0.01514573767781258,-0.0006641470827162266,-0.01935338973999023,0.004708260297775269,0.005867063999176025,2,0.6613781983560489,0.02388562065639536,-0.7495201300133881,-0.01509343573841038,0.990711510181427,0.05577044561505318,-0.124016709625721,43.30621337890625,-8.345161437988281,-34.964111328125,2,8365.589306791668,1,2,1580904649.830473,1580903939.50652,226,0.6966805,0,0,212.7492,1,0,1580904562.426208,8363.244054999999,0,4.695404,97.14857
1580904649.961449,122,0,1580904337.000819,41.20701635159924,29.07533761282497,172.748,-1,-1,5.74967098236084,48.00724964208526,-9999,8365.733854375001,0.972686767578125,0.0605010986328125,-0.1154022216796875,8365.728788375001,-3.132637762415841,1.446390931320749,-0.05583795742287247,0.002221185714006424,0.01158421114087105,-0.003779505845159292,-0.01776474714279175,0.005096994340419769,0.006672501564025879,2,0.6614254338153462,0.02388972153489028,-0.749477878063221,-0.01511834088275413,0.9907251000404358,0.05580894649028778,-0.1238913536071777,43.42364501953125,-8.436004638671875,-35.0147705078125,2,8365.589306791668,1,2,1580904649.830473,1580903939.50652,226,0.6966805,0,0,212.7492,1,0,1580904562.426208,8363.244054999999,0,4.695404,97.14857
1580904649.971428,123,0,1580904337.000819,41.20701635159924,29.07533761282497,172.748,-1,-1,5.74967098236084,48.00724964208526,-9999,8365.743894375,0.9725799560546875,0.060791015625,-0.1154327392578125,8365.738828375001,-3.132655892087985,1.446508998076719,-0.05588749221613711,0.0006528501398861408,0.01197942718863487,-0.004001080524176359,-0.0184481143951416,0.004620276391506195,0.00802004337310791,2,0.6614693502530866,0.02390139052782634,-0.7494382897275416,-0.01514293065715354,0.9907370209693909,0.05585840344429016,-0.1237740442156792,43.42364501953125,-8.436004638671875,-35.0147705078125,2,8365.589306791668,1,2,1580904649.830473,1580903939.50652,226,0.6966805,0,0,212.7492,1,0,1580904562.426208,8363.244054999999,0,4.695404,97.14857
1580904649.981577,124,0,1580904337.000819,41.20701635159924,29.07533761282497,172.748,-1,-1,5.74967098236084,48.00724964208526,-9999,8365.753934375001,0.974456787109375,0.0602874755859375,-0.11639404296875,8365.748868375,-3.132682295203967,1.446597160606621,-0.05595083273191795,0.001658431254327297,0.009181568399071693,-0.005668505094945431,-0.01856237649917603,0.004846908152103424,0.007901310920715332,2,0.661502016912428,0.02391571860075378,-0.7494082343207255,-0.01517483815822235,0.9907442927360535,0.05592164397239685,-0.1236862391233444,43.40546417236328,-8.480403900146484,-34.9180908203125,2,8365.589306791668,1,2,1580904649.830473,1580903939.50652,226,0.6966805,0,0,212.7492,1,0,1580904562.426208,8363.244054999999,0,4.695404,97.14857
1580904649.991507,125,0,1580904337.000819,41.20701635159924,29.07533761282497,172.748,-1,-1,5.74967098236084,48.00724964208526,-9999,8365.763975375001,0.972412109375,0.06134033203125,-0.117340087890625,8365.758909375001,-3.132714014764362,1.446679637317615,-0.0560021899911592,0.003051530569791794,0.007529078051447868,-0.005210441537201405,-0.01669305562973022,0.004292070865631104,0.006857991218566895,2,0.6615327340780477,0.02392384004018558,-0.7493803323897854,-0.01520469840324604,0.9907517433166504,0.05597292259335518,-0.1236041858792305,43.40546417236328,-8.480403900146484,-34.9180908203125,2,8365.589306791668,1,2,1580904649.830473,1580903939.50652,226,0.6966805,0,0,212.7492,1,0,1580904562.426208,8363.244054999999,0,4.695404,97.14857
1580904650.019167,126,0,1580904337.000819,41.20701635159924,29.07533761282497,172.748,-1,-1,5.74967098236084,48.00724964208526,-9999,8365.774015375,0.97119140625,0.0619964599609375,-0.1168212890625,8365.768949375,-3.132733646559192,1.446777642092668,-0.0560407102983768,0.001723654568195343,0.00947892852127552,-0.004093527793884277,-0.01874774694442749,0.005306445062160492,0.005814552307128906,2,0.6615692679902334,0.02393103045197727,-0.7493474268366437,-0.0152259714016014,0.9907616972923279,0.0560113824903965,-0.1235068216919899,43.44303894042969,-8.274772644042969,-34.78179931640625,2,8365.589306791668,1,2,1580904649.830473,1580903939.50652,226,0.6966805,0,0,212.7492,1,0,1580904562.426208,8363.244054999999,0,4.695404,97.14857
1580904650.020696,127,0,1580904337.000819,41.20701635159924,29.07533761282497,172.748,-1,-1,5.74967098236084,48.00724964208526,-9999,8365.784055375001,0.9705810546875,0.0611572265625,-0.1175537109375,8365.778989375001,-3.13274311108602,1.446879932470539,-0.05607843167175845,-0.0007272525690495968,0.009448302909731865,-0.004159308038651943,-0.01997888088226318,0.005924902856349945,0.006231725215911865,2,0.6616072959695882,0.02394125016257573,-0.7493131334228245,-0.01524322477598834,0.9907721877098083,0.05604904517531395,-0.1234052032232285,43.44303894042969,-8.274772644042969,-34.78179931640625,2,8365.589306791668,1,2,1580904649.830473,1580903939.50652,226,0.6966805,0,0,212.7492,1,0,1580904562.426208,8363.244054999999,0,4.695404,97.14857
1580904650.021894,128,0,1580904337.000819,41.20701635159924,29.07533761282497,172.748,-1,-1,5.74967098236084,48.00724964208526,-9999,8365.794096375001,0.973968505859375,0.0621185302734375,-0.11602783203125,8365.789060375,-3.132751188366196,1.446999607509068,-0.0560992608947583,-0.0006822450086474419,0.01284622959792614,-0.001951280981302261,-0.02060294151306152,0.005064867436885834,0.005380511283874512,2,0.6616519955690219,0.02394546769132087,-0.7492733809579273,-0.01525457290086149,0.9907858967781067,0.05606983974575996,-0.1232865005731583,43.42771148681641,-8.14410400390625,-34.7408447265625,2,8365.589306791668,1,2,1580904649.830473,1580903939.50652,226,0.6966805,0,0,212.7492,1,0,1580904562.426208,8363.244054999999,0,4.695404,97.14857
1580904650.031675,129,0,1580904337.000819,41.20701635159924,29.07533761282497,172.748,-1,-1,5.74967098236084,48.00724964208526,-9999,8365.804136375,0.9744415283203125,0.06201171875,-0.115509033203125,8365.799100375001,-3.13275526696673,1.447105144042715,-0.05611853729386494,-0.0001237504184246063,0.01149169355630875,-0.00188042176887393,-0.0172274112701416,0.006006918847560883,0.006801724433898926,2,0.6616913688288738,0.02395053309621527,-0.7492382877934808,-0.01526374263915689,0.9907978773117065,0.05608908459544182,-0.1231818124651909,43.42771148681641,-8.14410400390625,-34.7408447265625,2,8365.589306791668,1,2,1580904649.830473,1580903939.50652,226,0.6966805,0,0,212.7492,1,0,1580904562.426208,8363.244054999999,0,4.695404,97.14857
1580904650.041837,130,0,1580904337.000819,41.20701635159924,29.07533761282497,172.748,-1,-1,5.74967098236084,48.00724964208526,-9999,8365.814176375001,0.9759521484375,0.060760498046875,-0.113983154296875,8365.809141375001,-3.132748995307759,1.447185123244598,-0.0561433696635849,-0.0006430833600461483,0.008446082472801208,-0.002227176446467638,-0.01676285266876221,0.005875296890735626,0.007240891456604004,2,0.6617209850326322,0.02396129797463836,-0.7492116167009368,-0.01527057057897649,0.9908062815666199,0.05611388012766838,-0.1231023892760277,43.39386749267578,-8.254169464111328,-34.894287109375,2,8365.589306791668,1,2,1580904649.830473,1580903939.50652,226,0.6966805,0,0,212.7492,1,0,1580904562.426208,8363.244054999999,0,4.695404,97.14857
1580904650.054786,131,0,1580904337.000819,41.20701635159924,29.07533761282497,172.748,-1,-1,5.74967098236084,48.00724964208526,-9999,8365.824216375,0.97784423828125,0.062164306640625,-0.1141204833984375,8365.819181375,-3.132741911897952,1.447212275650762,-0.05617771057250556,-0.0006108591333031654,0.003414304926991463,-0.004072480835020542,-0.01525366306304932,0.004589758813381195,0.008739709854125977,2,0.6617306949224995,0.02397629565349906,-0.7492023850864125,-0.01527960750728556,0.9908077120780945,0.05614816769957542,-0.1230752468109131,43.39386749267578,-8.254169464111328,-34.894287109375,2,8365.589306791668,1,2,1580904649.830473,1580903939.50652,226,0.6966805,0,0,212.7492,1,0,1580904562.426208,8363.244054999999,0,4.695404,97.14857
1580904650.079231,132,0,1580904337.000819,41.20701635159924,29.07533761282497,172.748,-1,-1,5.74967098236084,48.00724964208526,-9999,8365.834257375,0.9764556884765625,0.06182861328125,-0.1145782470703125,8365.829221375001,-3.132720692861904,1.447175935179144,-0.05619899931914558,-0.003074482083320618,-0.004876047372817993,-0.001391965430229902,-0.01335591077804565,0.005972303450107574,0.008638203144073486,2,0.6617165954366027,0.02399156688819385,-0.7492143511798869,-0.0152782695911962,0.9908020496368408,0.05616942048072815,-0.1231111064553261,43.54547119140625,-8.204418182373047,-34.94921875,2,8365.589306791668,1,2,1580904649.830473,1580903939.50652,226,0.6966805,0,0,212.7492,1,0,1580904562.426208,8363.244054999999,0,4.695404,97.14857
1580904650.08051,133,0,1580904337.000819,41.20701635159924,29.07533761282497,172.748,-1,-1,5.74967098236084,48.00724964208526,-9999,8365.844297375001,0.9738922119140625,0.061004638671875,-0.115814208984375,8365.839262375001,-3.132707322229996,1.447113234998848,-0.05621823305016716,-0.001133836805820465,-0.007087003439664841,-0.001073184888809919,-0.01473546028137207,0.005617439746856689,0.008242785930633545,2,0.6616927326607938,0.0240036732955821,-0.749235078257102,-0.01527887174301454,0.9907932877540588,0.05618862435221672,-0.1231731027364731,43.54547119140625,-8.204418182373047,-34.94921875,2,8365.589306791668,1,2,1580904649.830473,1580903939.50652,226,0.6966805,0,0,212.7492,1,0,1580904562.426208,8363.244054999999,0,4.695404,97.14857
1580904650.08195,134,0,1580904337.000819,41.20701635159924,29.07533761282497,172.748,-1,-1,5.74967098236084,48.00724964208526,-9999,8365.854337375,0.9732666015625,0.06103515625,-0.1166839599609375,8365.849302375,-3.132696494429678,1.447052373850202,-0.05626136006655955,-0.002109396737068892,-0.005490925163030624,-0.004065275657922029,-0.01728916168212891,0.004750356078147888,0.007066607475280762,2,0.6616693297709617,0.02402387343090239,-0.7492549007689732,-0.01528835702727856,0.9907833933830261,0.05623168498277664,-0.1232331022620201,43.59339141845703,-8.278347015380859,-34.7730712890625,2,8365.589306791668,1,2,1580904649.830473,1580903939.50652,226,0.6966805,0,0,212.7492,1,0,1580904562.426208,8363.244054999999,0,4.695404,97.14857
1580904650.091922,135,0,1580904337.000819,41.20701635159924,29.07533761282497,172.748,-1,-1,5.74967098236084,48.00724964208526,-9999,8365.864377375001,0.974395751953125,0.0612335205078125,-0.1174163818359375,8365.859342375001,-3.1326993246671,1.447013596962434,-0.05630946595031476,0.000399567186832428,-0.003568921238183975,-0.004412285517901182,-0.01790761947631836,0.004732809960842133,0.006234705448150635,2,0.6616543144609619,0.02404125141455182,-0.7492671699769765,-0.01530487457148752,0.9907758235931396,0.05627971515059471,-0.1232711747288704,43.59339141845703,-8.278347015380859,-34.7730712890625,2,8365.589306791668,1,2,1580904649.830473,1580903939.50652,226,0.6966805,0,0,212.7492,1,0,1580904562.426208,8363.244054999999,0,4.695404,97.14857
1580904650.101986,136,0,1580904337.000819,41.20701635159924,29.07533761282497,172.748,-1,-1,5.74967098236084,48.00724964208526,-9999,8365.874448375,0.9738311767578125,0.0618438720703125,-0.1163787841796875,8365.869382375,-3.132695219939297,1.446986463711264,-0.0563546894530638,-0.001173877622932196,-0.00217018835246563,-0.003895931411534548,-0.01677244901657104,0.004885993897914886,0.005528807640075684,2,0.6616436056685912,0.02405975558311062,-0.7492757230165951,-0.0153179774421088,0.9907698631286621,0.05632486566901207,-0.1232977360486984,43.61238098144531,-8.131629943847656,-34.9873046875,2,8365.589306791668,1,2,1580904649.830473,1580903939.50652,226,0.6966805,0,0,212.7492,1,0,1580904562.426208,8363.244054999999,0,4.695404,97.14857
1580904650.114719,137,0,1580904337.000819,41.20701635159924,29.07533761282497,172.748,-1,-1,5.74967098236084,48.00724964208526,-9999,8365.884489375001,0.9734649658203125,0.06158447265625,-0.1143646240234375,8365.879423375001,-3.13269895283972,1.446919109882742,-0.05641063109414751,-0.000790648628026247,-0.007255228236317635,-0.005730583332479,-0.01732552051544189,0.005440510809421539,0.006633102893829346,2,0.6616177969173761,0.02407999055985648,-0.749297551130656,-0.01533707383424091,0.9907585382461548,0.05638071894645691,-0.1233640909194946,43.61238098144531,-8.131629943847656,-34.9873046875,2,8365.589306791668,1,2,1580904649.830473,1580903939.50652,226,0.6966805,0,0,212.7492,1,0,1580904562.426208,8363.244054999999,0,4.695404,97.14857
1580904650.138,138,0,1580904337.000819,41.20701635159924,29.07533761282497,172.748,-1,-1,5.74967098236084,48.00724964208526,-9999,8365.894529375,0.9741058349609375,0.061737060546875,-0.1167144775390625,8365.889463375001,-3.132722622943955,1.446841633543207,-0.056452946794057,0.002706062979996204,-0.007490947842597961,-0.004069316200911999,-0.01767981052398682,0.0051388218998909,0.008723556995391846,2,0.6615885934779118,0.02408860514818641,-0.7493225458322811,-0.01535901358323806,0.9907465577125549,0.05642296746373177,-0.1234405413269997,43.61590576171875,-8.172534942626953,-35.10150146484375,2,8365.589306791668,1,2,1580904649.830473,1580903939.50652,226,0.6966805,0,0,212.7492,1,0,1580904562.426208,8363.244054999999,0,4.695404,97.14857
1580904650.139255,139,0,1580904337.000819,41.20701635159924,29.07533761282497,172.748,-1,-1,5.74967098236084,48.00724964208526,-9999,8365.904569375001,0.973663330078125,0.0615386962890625,-0.1161041259765625,8365.899503375,-3.132746493483971,1.44676684090732,-0.05648930084703796,0.00201683770865202,-0.007209183648228645,-0.003209115006029606,-0.01702743768692017,0.005255118012428284,0.006447911262512207,2,0.6615604515510672,0.02409490174115082,-0.7493468932242244,-0.01537908046624424,0.9907354116439819,0.05645926296710968,-0.1235144063830376,43.61590576171875,-8.172534942626953,-35.10150146484375,2,8365.589306791668,1,2,1580904649.830473,1580903939.50652,226,0.6966805,0,0,212.7492,1,0,1580904562.426208,8363.244054999999,0,4.695404,97.14857
1580904650.142193,140,0,1580904337.000819,41.20701635159924,29.07533761282497,172.748,-1,-1,5.74967098236084,48.00724964208526,-9999,8365.914609375001,0.9730377197265625,0.0618743896484375,-0.1158447265625,8365.909544375001,-3.132761846968829,1.446681516227334,-0.05652648087341997,0.001053590327501297,-0.007608896121382713,-0.003200846258550882,-0.01745730638504028,0.005019612610340118,0.007142543792724609,2,0.6615282581512961,0.02410440725057358,-0.7493746546205116,-0.01539610672264947,0.9907227754592896,0.05649638175964355,-0.1235986799001694,43.57138824462891,-8.314273834228516,-34.93902587890625,2,8365.589306791668,1,2,1580904649.830473,1580903939.50652,226,0.6966805,0,0,212.7492,1,0,1580904562.426208,8363.244054999999,0,4.695404,97.14857
1580904650.152269,141,0,1580904337.000819,41.20701635159924,29.07533761282497,172.748,-1,-1,5.74967098236084,48.00724964208526,-9999,8365.924650375,0.9704132080078125,0.06146240234375,-0.1178741455078125,8365.919584375,-3.132782603903655,1.446580747725016,-0.05657520381149371,0.001858663745224476,-0.009861131198704243,-0.005425917450338602,-0.01806783676147461,0.005306638777256012,0.007501304149627686,2,0.6614902188592868,0.02411657018457601,-0.7494073048682067,-0.01541879213139329,0.9907075166702271,0.05654502660036087,-0.1236981600522995,43.57138824462891,-8.314273834228516,-34.93902587890625,2,8365.589306791668,1,2,1580904649.830473,1580903939.50652,226,0.6966805,0,0,212.7492,1,0,1580904562.426208,8363.244054999999,0,4.695404,97.14857
1580904650.162389,142,0,1580904337.000819,41.20701635159924,29.07533761282497,172.748,-1,-1,5.74967098236084,48.00724964208526,-9999,8365.934690375001,0.97088623046875,0.0621795654296875,-0.1184539794921875,8365.929624375001,-3.132798305275793,1.446512052238237,-0.05662234713686738,0.0001347246579825878,-0.007340187206864357,-0.003922353498637676,-0.02068132162094116,0.004847563803195953,0.005539596080780029,2,0.6614641465599869,0.02412956830090154,-0.7494295014669627,-0.01543944244712528,0.9906963706016541,0.05659209564328194,-0.1237658932805061,43.51408386230469,-8.392391204833984,-34.9239501953125,2,8365.589306791668,1,2,1580904649.830473,1580903939.50652,226,0.6966805,0,0,212.7492,1,0,1580904562.426208,8363.244054999999,0,4.695404,97.14857
1580904650.174676,143,0,1580904337.000819,41.20701635159924,29.07533761282497,172.748,-1,-1,5.74967098236084,48.00724964208526,-9999,8365.944730375,0.970550537109375,0.06207275390625,-0.1189117431640625,8365.939695375,-3.132812127017392,1.446494401471956,-0.05665287116447565,0.0006649601273238659,-0.001924382522702217,-0.002013666089624166,-0.02020418643951416,0.005534261465072632,0.004977405071258545,2,0.6614573539024754,0.02413656900187135,-0.7494351093867611,-0.01545450090624494,0.990692675113678,0.05662257224321365,-0.1237831935286522,43.51408386230469,-8.392391204833984,-34.9239501953125,2,8365.589306791668,1,2,1580904649.830473,1580903939.50652,226,0.6966805,0,0,212.7492,1,0,1580904562.426208,8363.244054999999,0,4.695404,97.14857
1580904650.199325,144,0,1580904337.000819,41.20701635159924,29.07533761282497,172.748,-1,-1,5.74967098236084,48.00724964208526,-9999,8365.954771375,0.9713134765625,0.0611114501953125,-0.1176910400390625,8365.949735375001,-3.132816318220414,1.446496243702854,-0.05669192092267421,0.0001058313064277172,0.0006020478904247284,-0.004409881308674812,-0.0205380916595459,0.005388431251049042,0.004517197608947754,2,0.6614576716627899,0.02414979776565473,-0.7494339869892082,-0.01546901676734501,0.9906905889511108,0.05666155740618706,-0.1237810701131821,43.54930877685547,-8.222030639648438,-34.9649658203125,2,8365.589306791668,1,2,1580904649.830473,1580903939.50652,226,0.6966805,0,0,212.7492,1,0,1580904562.426208,8363.244054999999,0,4.695404,97.14857
1580904650.200631,145,0,1580904337.000819,41.20701635159924,29.07533761282497,172.748,-1,-1,5.74967098236084,48.00724964208526,-9999,8365.964811375001,0.9716339111328125,0.062347412109375,-0.1173858642578125,8365.959775375,-3.132819712746864,1.446485648873375,-0.05672260564358683,0.001042732037603855,-0.001895198598504066,-0.003357666544616222,-0.0197722315788269,0.004396483302116394,0.005748212337493896,2,0.6614534022967009,0.02416025272957076,-0.7494372172709934,-0.01548031067240323,0.9906875491142273,0.05669219419360161,-0.1237913593649864,43.54930877685547,-8.222030639648438,-34.9649658203125,2,8365.589306791668,1,2,1580904649.830473,1580903939.50652,226,0.6966805,0,0,212.7492,1,0,1580904562.426208,8363.244054999999,0,4.695404,97.14857
1580904650.202345,146,0,1580904337.000819,41.20701635159924,29.07533761282497,172.748,-1,-1,5.74967098236084,48.00724964208526,-9999,8365.974851375,0.97344970703125,0.06268310546875,-0.11676025390625,8365.969816375,-3.132822727527755,1.446479240562263,-0.05673879630541177,0.001045879907906055,-0.0007787682116031647,-0.001641289331018925,-0.01945018768310547,0.005616255104541779,0.006059467792510986,2,0.6614508605856697,0.02416537083188974,-0.74943913499725,-0.01548672024160044,0.9906858205795288,0.05670835822820663,-0.1237975880503654,43.69190979003906,-8.171176910400391,-35.02862548828125,2,8365.589306791668,1,2,1580904649.830473,1580903939.50652,226,0.6966805,0,0,212.7492,1,0,1580904562.426208,8363.244054999999,0,4.695404,97.14857
1580904650.212642,147,0,1580904337.000819,41.20701635159924,29.07533761282497,172.748,-1,-1,5.74967098236084,48.00724964208526,-9999,8365.984891375001,0.9734649658203125,0.0618743896484375,-0.1167449951171875,8365.979856375001,-3.132814278887921,1.446472456094356,-0.05674810731909518,-0.002078007906675339,-0.0007039345800876617,0.0002660667523741722,-0.01763308048248291,0.005942642688751221,0.006691694259643555,2,0.6614481113202011,0.02417170587232136,-0.7494413960666301,-0.01548655123346344,0.9906845092773438,0.0567176528275013,-0.1238042488694191,43.69190979003906,-8.171176910400391,-35.02862548828125,2,8365.589306791668,1,2,1580904649.830473,1580903939.50652,226,0.6966805,0,0,212.7492,1,0,1580904562.426208,8363.244054999999,0,4.695404,97.14857
1580904650.222477,148,0,1580904337.000819,41.20701635159924,29.07533761282497,172.748,-1,-1,5.74967098236084,48.00724964208526,-9999,8365.994932375001,0.97613525390625,0.0616912841796875,-0.1158294677734375,8365.989896375,-3.132819750689159,1.446440182547738,-0.05677136741118556,7.889186963438988e-05,-0.003675654530525208,-0.002257275860756636,-0.01761257648468018,0.005110681056976318,0.006738603115081787,2,0.6614358363286879,0.02417886007964244,-0.749451656994451,-0.0154959121680938,0.9906790256500244,0.05674087628722191,-0.1238360330462456,43.66384887695312,-8.347763061523438,-35.0850830078125,2,8365.589306791668,1,2,1580904649.830473,1580903939.50652,226,0.6966805,0,0,212.7492,1,0,1580904562.426208,8363.244054999999,0,4.695404,97.14857
1580904650.234749,149,0,1580904337.000819,41.20701635159924,29.07533761282497,172.748,-1,-1,5.74967098236084,48.00724964208526,-9999,8366.004972375,0.974853515625,0.06158447265625,-0.115631103515625,8365.999937375,-3.132832927182124,1.446389638015005,-0.05679906405376511,0.001220323145389557,-0.003862075507640839,-0.002143558580428362,-0.0149344801902771,0.004899926483631134,0.007704019546508789,2,0.6614167467511167,0.02418527080006659,-0.7494680619203775,-0.01550939916816248,0.9906712770462036,0.05676852911710739,-0.1238859221339226,43.66384887695312,-8.347763061523438,-35.0850830078125,2,8365.589306791668,1,2,1580904649.830473,1580903939.50652,226,0.6966805,0,0,212.7492,1,0,1580904562.426208,8363.244054999999,0,4.695404,97.14857
1580904650.258041,150,0,1580904337.000819,41.20701635159924,29.07533761282497,172.748,-1,-1,5.74967098236084,48.00724964208526,-9999,8366.015012375001,0.974609375,0.0620269775390625,-0.115966796875,8366.009977375001,-3.1328545233897,1.446313656002589,-0.05682550900268959,0.002550868317484856,-0.007821723818778992,-0.002529430668801069,-0.01620537042617798,0.004766695201396942,0.007977485656738281,2,0.6613882408435379,0.02418862629665744,-0.7494928073558078,-0.01552532000673533,0.9906603693962097,0.05679493024945259,-0.1239610090851784,43.53469848632812,-8.109249114990234,-35.08154296875,2,8365.589306791668,1,2,1580904649.830473,1580903939.50652,226,0.6966805,0,0,212.7492,1,0,1580904562.426208,8363.244054999999,0,4.695404,97.14857
1580904650.259452,151,0,1580904337.000819,41.20701635159924,29.07533761282497,172.748,-1,-1,5.74967098236084,48.00724964208526,-9999,8366.025083375,0.972412109375,0.0623931884765625,-0.1179656982421875,8366.020017375,-3.132874323287187,1.446252850166065,-0.05685835941213489,0.00296871829777956,-0.006623568013310432,-0.00363411009311676,-0.01644033193588257,0.005176372826099396,0.007701635360717773,2,0.661365330219479,0.02419485903604263,-0.7495124667358449,-0.01554287055236279,0.99065101146698,0.05682772770524025,-0.124021016061306,43.53469848632812,-8.109249114990234,-35.08154296875,2,8365.589306791668,1,2,1580904649.830473,1580903939.50652,226,0.6966805,0,0,212.7492,1,0,1580904562.426208,8363.244054999999,0,4.695404,97.14857
1580904650.26277,152,0,1580904337.000819,41.20701635159924,29.07533761282497,172.748,-1,-1,5.74967098236084,48.00724964208526,-9999,8366.035123375001,0.9708404541015625,0.0615081787109375,-0.116363525390625,8366.030057375001,-3.132877409603596,1.446232795830743,-0.05689043156944817,0.0002232771366834641,-0.001794265583157539,-0.003081230446696281,-0.01863342523574829,0.00551055371761322,0.005722403526306152,2,0.6613574939714397,0.02420601115386132,-0.7495188465585708,-0.015554390594371,0.9906467795372009,0.05685975030064583,-0.1240406706929207,43.52005004882812,-8.225227355957031,-34.92913818359375,2,8365.589306791668,1,2,1580904649.830473,1580903939.50652,226,0.6966805,0,0,212.7492,1,0,1580904562.426208,8363.244054999999,0,4.695404,97.14857
1580904650.272721,153,0,1580904337.000819,41.20701635159924,29.07533761282497,172.748,-1,-1,5.74967098236084,48.00724964208526,-9999,8366.045164375,0.9723358154296875,0.06201171875,-0.1162109375,8366.040098375001,-3.132880689991977,1.446216671330409,-0.05691280619442123,-0.0006875242106616497,-0.001727685332298279,-0.001980545930564404,-0.0202019214630127,0.004603177309036255,0.007340073585510254,2,0.6613512504417947,0.02421343491164214,-0.7495238322492952,-0.01556282991234723,0.9906433820724487,0.05688208714127541,-0.1240564659237862,43.61612701416016,-8.482490539550781,-34.918212890625,2,8365.589306791668,1,2,1580904649.830473,1580903939.50652,226,0.6966805,0,0,212.7492,1,0,1580904562.426208,8363.244054999999,0,4.695404,97.14857
1580904650.283239,154,0,1580904337.000819,41.20701635159924,29.07533761282497,172.748,-1,-1,5.74967098236084,48.00724964208526,-9999,8366.055204375001,0.973968505859375,0.0619354248046875,-0.1167144775390625,8366.050138375,-3.132892394239644,1.446188519875388,-0.056949167308044,0.0002977666445076466,-0.00297076441347599,-0.004156135022640228,-0.01870083808898926,0.005070418119430542,0.007520616054534912,2,0.6613404350017106,0.02422340784297759,-0.7495328048829927,-0.01557889897865639,0.9906379580497742,0.05691839009523392,-0.1240841075778008,43.61612701416016,-8.482490539550781,-34.918212890625,2,8365.589306791668,1,2,1580904649.830473,1580903939.50652,226,0.6966805,0,0,212.7492,1,0,1580904562.426208,8363.244054999999,0,4.695404,97.14857
1580904650.294841,155,0,1580904337.000819,41.20701635159924,29.07533761282497,172.748,-1,-1,5.74967098236084,48.00724964208526,-9999,8366.065244375,0.9717254638671875,0.0623626708984375,-0.1161041259765625,8366.060178375001,-3.132888646903848,1.446141482987859,-0.05697885168344938,-0.001758992671966553,-0.004748158156871796,-0.002567026764154434,-0.01706075668334961,0.004964463412761688,0.007063150405883789,2,0.6613224409643613,0.02423613557926294,-0.7495479860071299,-0.01558674787780999,0.9906302690505981,0.05694802477955818,-0.124130479991436,43.56425476074219,-8.295398712158203,-34.88421630859375,2,8365.589306791668,1,2,1580904649.830473,1580903939.50652,226,0.6966805,0,0,212.7492,1,0,1580904562.426208,8363.244054999999,0,4.695404,97.14857
1580904650.316985,156,0,1580904337.000819,41.20701635159924,29.07533761282497,172.748,-1,-1,5.74967098236084,48.00724964208526,-9999,8366.075284375,0.971435546875,0.0642242431640625,-0.117828369140625,8366.070219375,-3.132905037912784,1.446093295685408,-0.05699403179983105,0.002281107008457184,-0.004751617088913918,-0.001825810875743628,-0.01929700374603271,0.005376547574996948,0.007721185684204102,2,0.6613044106743885,0.02423677943260055,-0.7495636781711611,-0.01559732673426584,0.9906234741210938,0.05696317926049232,-0.1241781115531921,43.56425476074219,-8.295398712158203,-34.88421630859375,2,8365.589306791668,1,2,1580904649.830473,1580903939.50652,226,0.6966805,0,0,212.7492,1,0,1580904562.426208,8363.244054999999,0,4.695404,97.14857
1580904650.318365,157,0,1580904337.000819,41.20701635159924,29.07533761282497,172.748,-1,-1,5.74967098236084,48.00724964208526,-9999,8366.085325375001,0.97265625,0.06329345703125,-0.1185302734375,8366.080289375001,-3.132916930203889,1.446060132726948,-0.05698376204789267,0.001372169703245163,-0.003576897084712982,0.00224003754556179,-0.01958340406417847,0.007248379290103912,0.006029963493347168,2,0.6612922334750291,0.02422925797688262,-0.7495747450459316,-0.01559798160319588,0.9906200766563416,0.05695292726159096,-0.1242110505700111,43.73631286621094,-8.257747650146484,-34.7952880859375,2,8365.589306791668,1,2,1580904649.830473,1580903939.50652,226,0.6966805,0,0,212.7492,1,0,1580904562.426208,8363.244054999999,0,4.695404,97.14857
1580904650.322971,158,0,1580904337.000819,41.20701635159924,29.07533761282497,172.748,-1,-1,5.74967098236084,48.00724964208526,-9999,8366.095365375,0.9731903076171875,0.061798095703125,-0.1182403564453125,8366.090330375,-3.132939336769686,1.446034933700334,-0.05699658078413194,0.002464070916175842,-0.00193469226360321,-0.001409823074936867,-0.01835870742797852,0.006304800510406494,0.005353152751922607,2,0.6612829188990892,0.02422684926976363,-0.7495827843653342,-0.01561031367696429,0.9906162023544312,0.05696572735905647,-0.1242359206080437,43.73631286621094,-8.257747650146484,-34.7952880859375,2,8365.589306791668,1,2,1580904649.830473,1580903939.50652,226,0.6966805,0,0,212.7492,1,0,1580904562.426208,8363.244054999999,0,4.695404,97.14857
1580904650.332952,159,0,1580904337.000819,41.20701635159924,29.07533761282497,172.748,-1,-1,5.74967098236084,48.00724964208526,-9999,8366.105405375001,0.9723968505859375,0.06201171875,-0.1179656982421875,8366.100370375001,-3.132962414667168,1.446004168470876,-0.05702155745331053,0.002214265987277031,-0.003805562853813171,-0.002199184149503708,-0.01781940460205078,0.00478450208902359,0.005673348903656006,2,0.6612713925418114,0.02422881812571351,-0.7495925343001619,-0.01562685140501707,0.9906109571456909,0.05699066072702408,-0.1242662221193314,43.68997955322266,-8.211078643798828,-35.024658203125,2,8365.589306791668,1,2,1580904649.830473,1580903939.50652,226,0.6966805,0,0,212.7492,1,0,1580904562.426208,8363.244054999999,0,4.695404,97.14857
