loggingTime,loggingSample,identifierForVendor,locationTimestamp_since1970,locationLatitude,locationLongitude,locationAltitude,locationSpeed,locationCourse,locationVerticalAccuracy,locationHorizontalAccuracy,locationFloor,accelerometerTimestamp_sinceReboot,accelerometerAccelerationX,accelerometerAccelerationY,accelerometerAccelerationZ,motionTimestamp_sinceReboot,motionYaw,motionRoll,motionPitch,motionRotationRateX,motionRotationRateY,motionRotationRateZ,motionUserAccelerationX,motionUserAccelerationY,motionUserAccelerationZ,motionAttitudeReferenceFrame,motionQuaternionX,motionQuaternionY,motionQuaternionZ,motionQuaternionW,motionGravityX,motionGravityY,motionGravityZ,motionMagneticFieldX,motionMagneticFieldY,motionMagneticFieldZ,motionMagneticFieldCalibrationAccuracy,activityTimestamp_sinceReboot,activity,activityActivityConfidence,activityActivityStartDate,pedometerStartDate,pedometerNumberofSteps,pedometerAverageActivePace,pedometerCurrentPace,pedometerCurrentCadence,pedometerDistance,pedometerFloorAscended,pedometerFloorDescended,pedometerEndDate,altimeterTimestamp_sinceReboot,altimeterReset,altimeterRelativeAltitude,altimeterPressure
1582558994.805165,1,0,1582558993.101441,41.20590741257566,29.07253304895542,178.6271,0.2197934,6.127707628971531,3,6.000906205260658,-9999,106084.60747275,0.9709320068359375,0.1531982421875,-0.0937652587890625,106084.60143075,1.628279115140404,1.475797543951594,-0.1578519565818262,-0.01262726634740829,0.01604184880852699,0.01214467734098434,-0.01671600341796875,-0.004862338304519653,-0.001719176769256592,2,-0.5276932108796609,0.4179731489749986,0.4999083002103628,0.5449129481306065,0.9831144213676453,0.1571972370147705,-0.09367664158344269,24.88753509521484,16.14479064941406,-15.604736328125,2,106084.4003715,4,1,1582558994.572446,1582558685.643339,11,0.6387488,0,0,10.91,0,0,1582558765.788069,106081.650713,0,5.157806,99.30329
1582558994.806211,2,0,1582558993.101441,41.20590741257566,29.07253304895542,178.6271,0.2197934,6.127707628971531,3,6.000906205260658,-9999,106084.61751275,0.97637939453125,0.1522979736328125,-0.089599609375,106084.61147075,1.628396829485181,1.475875984279803,-0.1578041837899073,-0.01032363250851631,0.005556982010602951,0.005913411732763052,-0.0105661153793335,-0.004067450761795044,0.001347899436950684,2,-0.5277262483563624,0.4179771376431893,0.4999316805540928,0.5448564308681784,0.9831292033195496,0.1571500599384308,-0.09360023587942123,24.88753509521484,16.14479064941406,-15.604736328125,2,106084.4003715,4,1,1582558994.572446,1582558685.643339,11,0.6387488,0,0,10.91,0,0,1582558765.788069,106081.650713,0,5.157806,99.30329
1582558994.80694,3,0,1582558993.101441,41.20590741257566,29.07253304895542,178.6271,0.2197934,6.127707628971531,3,6.000906205260658,-9999,106084.62755375,0.972808837890625,0.15252685546875,-0.0921783447265625,106084.62151075,1.628509399274541,1.475843761563713,-0.1578014523778151,-0.01040833629667759,-0.005205953493714333,0.001868296414613724,-0.007282853126525879,-0.005148142576217651,0.00328671932220459,2,-0.5277411359075876,0.4179393793186603,0.4999714692725462,0.5448342464587159,0.9831264019012451,0.1571473628282547,-0.09363193809986115,25.06401824951172,16.11043548583984,-15.5054931640625,2,106084.4003715,4,1,1582558994.572446,1582558685.643339,11,0.6387488,0,0,10.91,0,0,1582558765.788069,106081.650713,0,5.157806,99.30329
1582558994.807733,4,0,1582558993.101441,41.20590741257566,29.07253304895542,178.6271,0.2197934,6.127707628971531,3,6.000906205260658,-9999,106084.63759375,0.967559814453125,0.1507568359375,-0.0958709716796875,106084.63155175,1.628632804334655,1.475746463276333,-0.1578560601420739,-0.01215377170592546,-0.01287239510565996,-0.00516271498054266,-0.01129353046417236,-0.004729032516479492,0.0009862184524536133,2,-0.5277553169176047,0.4178647230483473,0.5000170945101758,0.5448360984362208,0.9831089377403259,0.1572012901306152,-0.09372679889202118,25.06401824951172,16.11043548583984,-15.5054931640625,2,106084.4003715,4,1,1582558994.572446,1582558685.643339,11,0.6387488,0,0,10.91,0,0,1582558765.788069,106081.650713,0,5.157806,99.30329
1582558994.815183,5,0,1582558993.101441,41.20590741257566,29.07253304895542,178.6271,0.2197934,6.127707628971531,3,6.000906205260658,-9999,106084.64763375,0.958160400390625,0.153594970703125,-0.0980377197265625,106084.64159175,1.628746966346376,1.475693298573065,-0.1579177340093879,-0.01107643730938435,-0.005031537264585495,-0.003985471092164516,-0.01797753572463989,-0.006239593029022217,-0.003311395645141602,2,-0.5277803342894098,0.417802410346207,0.5000466770124293,0.5448323567903975,0.9830941557884216,0.1572621911764145,-0.09377812594175339,25.08553314208984,16.21879577636719,-15.6226806640625,2,106084.4003715,4,1,1582558994.572446,1582558685.643339,11,0.6387488,0,0,10.91,0,0,1582558765.788069,106081.650713,0,5.157806,99.30329
1582558994.82515,6,0,1582558993.101441,41.20590741257566,29.07253304895542,178.6271,0.2197934,6.127707628971531,3,6.000906205260658,-9999,106084.65767475,0.9553070068359375,0.1549835205078125,-0.0989227294921875,106084.65163175,1.628842636361966,1.475699680322906,-0.1579558642475369,-0.009399976581335068,-0.001285800710320473,-0.001424841582775116,-0.02587628364562988,-0.003255993127822876,-0.004432082176208496,2,-0.527810812703973,0.4177679975728713,0.5000614913484576,0.5448156901529833,0.9830888509750366,0.1572998464107513,-0.09377129375934601,25.08553314208984,16.21879577636719,-15.6226806640625,2,106084.65123475,2,0,1582558994.823309,1582558685.643339,11,0.6387488,0,0,10.91,0,0,1582558765.788069,106081.650713,0,5.157806,99.30329
1582558994.83541,7,0,1582558993.101441,41.20590741257566,29.07253304895542,178.6271,0.2197934,6.127707628971531,3,6.000906205260658,-9999,106084.66771475,0.960205078125,0.15533447265625,-0.0962371826171875,106084.66167175,1.628919355545085,1.475782490828649,-0.1579761908877224,-0.007334383204579353,0.008693316951394081,-0.001413807272911072,-0.02821564674377441,-0.00228428840637207,-0.005780577659606934,2,-0.5278523058254337,0.417764474134667,0.5000554132108801,0.5447837295276521,0.9830933809280396,0.1573199182748795,-0.09368957579135895,25.10643768310547,16.27500152587891,-15.67413330078125,2,106084.65123475,2,0,1582558994.823309,1582558685.643339,11,0.6387488,0,0,10.91,0,0,1582558765.788069,106081.650713,0,5.157806,99.30329
1582558994.866544,8,0,1582558993.101441,41.20590741257566,29.07253304895542,178.6271,0.2197934,6.127707628971531,3,6.000906205260658,-9999,106084.67775475,0.9606170654296875,0.1563568115234375,-0.0952606201171875,106084.67171275,1.628967848247284,1.47587839438711,-0.1579783463397657,-0.00434871343895793,0.008201697841286659,-0.0003229766152799129,-0.02189171314239502,-0.001645505428314209,-0.00201416015625,2,-0.52788690138585,0.4177771970570668,0.5000427867665133,0.54475210217141,0.9831020832061768,0.1573220491409302,-0.09359526634216309,25.10643768310547,16.27500152587891,-15.67413330078125,2,106084.65123475,2,0,1582558994.823309,1582558685.643339,11,0.6387488,0,0,10.91,0,0,1582558765.788069,106081.650713,0,5.157806,99.30329
1582558994.867909,9,0,1582558993.101441,41.20590741257566,29.07253304895542,178.6271,0.2197934,6.127707628971531,3,6.000906205260658,-9999,106084.68779475,0.9580535888671875,0.1536102294921875,-0.09844970703125,106084.68175275,1.629011873690388,1.476034988433667,-0.1579344315215735,-0.003758956212550402,0.01335814222693443,0.005158898420631886,-0.02360689640045166,-0.001129090785980225,-0.002564191818237305,2,-0.5279249943291591,0.4178207953048307,0.500024470447416,0.5446985202838264,0.9831235408782959,0.1572786867618561,-0.09344196319580078,25.09841156005859,16.13282775878906,-15.4990234375,2,106084.65123475,2,0,1582558994.823309,1582558685.643339,11,0.6387488,0,0,10.91,0,0,1582558765.788069,106081.650713,0,5.157806,99.30329
1582558994.868874,10,0,1582558993.101441,41.20590741257566,29.07253304895542,178.6271,0.2197934,6.127707628971531,3,6.000906205260658,-9999,106084.69783575,0.969757080078125,0.154937744140625,-0.09234619140625,106084.69179275,1.629041768650978,1.476237728169077,-0.1578906009400556,-0.001005780301056802,0.02673440426588058,0.003509069792926311,-0.02476173639297485,-0.004183262586593628,-0.005875468254089355,2,-0.5279716437160309,0.4178807100667258,0.4999901560155598,0.5446389849684163,0.983149528503418,0.157235398888588,-0.093243308365345,25.09841156005859,16.13282775878906,-15.4990234375,2,106084.65123475,2,0,1582558994.823309,1582558685.643339,11,0.6387488,0,0,10.91,0,0,1582558765.788069,106081.650713,0,5.157806,99.30329
1582558994.875491,11,0,1582558993.101441,41.20590741257566,29.07253304895542,178.6271,0.2197934,6.127707628971531,3,6.000906205260658,-9999,106084.70787575,0.9677734375,0.15460205078125,-0.0927734375,106084.70186375,1.629073661089673,1.476290661505586,-0.1578390589398204,-0.003777849022299051,0.00609680637717247,0.005441233981400728,-0.01163697242736816,-0.002011388540267944,0.002221405506134033,2,-0.5279794910055097,0.4179014708038228,0.4999978273325399,0.5446084185085185,0.983162522315979,0.1571844965219498,-0.09319203346967697,25.08110809326172,16.18174743652344,-15.378662109375,2,106084.65123475,2,0,1582558994.823309,1582558685.643339,11,0.6387488,0,0,10.91,0,0,1582558765.788069,106081.650713,0,5.157806,99.30329
1582558994.885491,12,0,1582558993.101441,41.20590741257566,29.07253304895542,178.6271,0.2197934,6.127707628971531,3,6.000906205260658,-9999,106084.71791575,0.9653778076171875,0.1541290283203125,-0.0945587158203125,106084.71190375,1.629077743607481,1.476320677620127,-0.1577637800679982,-9.629520354792476e-05,0.002180628478527069,0.007564572151750326,-0.01671743392944336,-0.002837300300598145,-0.0008285045623779297,2,-0.5279703058206012,0.4179300721916338,0.5000098765241981,0.5445841120430315,0.9831768870353699,0.1571101546287537,-0.0931636244058609,25.08110809326172,16.18174743652344,-15.378662109375,2,106084.65123475,2,0,1582558994.823309,1582558685.643339,11,0.6387488,0,0,10.91,0,0,1582558765.788069,106081.650713,0,5.157806,99.30329
1582558994.895593,13,0,1582558993.101441,41.20590741257566,29.07253304895542,178.6271,0.2197934,6.127707628971531,3,6.000906205260658,-9999,106084.72795675,0.963043212890625,0.154998779296875,-0.0939178466796875,106084.72194475,1.62906749804246,1.47634710256688,-0.1576875727539415,0.0006916362326592207,0.0001598820090293884,0.007294324226677418,-0.0181509256362915,-0.002563685178756714,-0.001204252243041992,2,-0.5279569560152477,0.4179618005972867,0.5000192711467778,0.5445640924610331,0.9831913113594055,0.1570348888635635,-0.09313876926898956,24.98291778564453,16.33395385742188,-15.6123046875,2,106084.65123475,2,0,1582558994.823309,1582558685.643339,11,0.6387488,0,0,10.91,0,0,1582558765.788069,106081.650713,0,5.157806,99.30329
1582558994.921479,14,0,1582558993.101441,41.20590741257566,29.07253304895542,178.6271,0.2197934,6.127707628971531,3,6.000906205260658,-9999,106084.73799675,0.9620208740234375,0.154571533203125,-0.0958099365234375,106084.73198475,1.62905814330119,1.476428387684573,-0.157602381182892,0.001661825808696449,0.008662823587656021,0.008795281872153282,-0.02134561538696289,-0.001884400844573975,-0.001862525939941406,2,-0.5279553662237936,0.4180108451361662,0.5000167337369885,0.5445304924734899,0.9832123517990112,0.1569507569074631,-0.09306012839078903,24.98291778564453,16.33395385742188,-15.6123046875,2,106084.65123475,2,0,1582558994.823309,1582558685.643339,11,0.6387488,0,0,10.91,0,0,1582558765.788069,106081.650713,0,5.157806,99.30329
1582558994.922888,15,0,1582558993.101441,41.20590741257566,29.07253304895542,178.6271,0.2197934,6.127707628971531,3,6.000906205260658,-9999,106084.74803675,0.9633636474609375,0.1548919677734375,-0.0961151123046875,106084.74202475,1.629049554787922,1.476529260725008,-0.1574972821974652,0.002543163718655705,0.01113950088620186,0.01022080890834332,-0.02088308334350586,-0.00216209888458252,-0.003028273582458496,2,-0.5279542268207512,0.4180706687101468,0.500014182881509,0.5444880042062213,0.9832381010055542,0.1568469554185867,-0.09296250343322754,24.89211273193359,16.41224670410156,-15.4779052734375,2,106084.65123475,2,0,1582558994.823309,1582558685.643339,11,0.6387488,0,0,10.91,0,0,1582558765.788069,106081.650713,0,5.157806,99.30329
1582558994.925753,16,0,1582558993.101441,41.20590741257566,29.07253304895542,178.6271,0.2197934,6.127707628971531,3,6.000906205260658,-9999,106084.75807675,0.9635772705078125,0.1537933349609375,-0.0955047607421875,106084.75206475,1.629044951486017,1.476641728923275,-0.157369752710599,0.001306125428527594,0.01237227767705917,0.01309302821755409,-0.02031850814819336,-0.002097189426422119,-0.00364077091217041,2,-0.5279515933837391,0.4181389961266936,0.500015273688861,0.5444370118450427,0.9832684397697449,0.1567210108041763,-0.09285379201173782,24.89211273193359,16.41224670410156,-15.4779052734375,2,106084.65123475,2,0,1582558994.823309,1582558685.643339,11,0.6387488,0,0,10.91,0,0,1582558765.788069,106081.650713,0,5.157806,99.30329
1582558994.936233,17,0,1582558993.101441,41.20590741257566,29.07253304895542,178.6271,0.2197934,6.127707628971531,3,6.000906205260658,-9999,106084.76811775,0.96795654296875,0.154449462890625,-0.0923919677734375,106084.76210575,1.629047061706659,1.476708058456545,-0.157235959342842,0.0009738492663018405,0.006673233583569527,0.01339036040008068,-0.01933854818344116,-0.002636373043060303,-0.002529144287109375,2,-0.5279373406909277,0.418194803889045,0.5000319731118005,0.5443926454094494,0.9832954406738281,0.1565888673067093,-0.09279054403305054,25.08789825439453,16.39505767822266,-15.4207763671875,2,106084.65123475,2,0,1582558994.823309,1582558685.643339,11,0.6387488,0,0,10.91,0,0,1582558765.788069,106081.650713,0,5.157806,99.30329
1582558994.945896,18,0,1582558993.101441,41.20590741257566,29.07253304895542,178.6271,0.2197934,6.127707628971531,3,6.000906205260658,-9999,106084.77815775,0.968719482421875,0.1522674560546875,-0.092742919921875,106084.77214575,1.629048218870457,1.476726570977432,-0.1571150470010564,0.0009070039377547801,0.001337325200438499,0.01212802156805992,-0.01522380113601685,-0.002288013696670532,0.0006589889526367188,2,-0.5279139298070742,0.4182341711390331,0.5000578129724823,0.544361439112771,0.9833160638809204,0.1564694494009018,-0.09277412295341492,25.08789825439453,16.39505767822266,-15.4207763671875,2,106084.65123475,2,0,1582558994.823309,1582558685.643339,11,0.6387488,0,0,10.91,0,0,1582558765.788069,106081.650713,0,5.157806,99.30329
1582558994.95579,19,0,1582558993.101441,41.20590741257566,29.07253304895542,178.6271,0.2197934,6.127707628971531,3,6.000906205260658,-9999,106084.78819775,0.966552734375,0.1511688232421875,-0.0948944091796875,106084.78218575,1.629033637604564,1.476740876615917,-0.1570299156535734,0.003241961589083076,0.001479646191000938,0.008577065542340279,-0.01497888565063477,-0.004645347595214844,-0.0006355643272399902,2,-0.5278945701575066,0.4182662699718198,0.5000714484442981,0.5443429723751627,0.9833306074142456,0.1563853621482849,-0.09276130050420761,25.04685211181641,16.30799102783203,-15.610595703125,2,106084.65123475,2,0,1582558994.823309,1582558685.643339,11,0.6387488,0,0,10.91,0,0,1582558765.788069,106081.650713,0,5.157806,99.30329
1582558994.966269,20,0,1582558993.101441,41.20590741257566,29.07253304895542,178.6271,0.2197934,6.127707628971531,3,6.000906205260658,-9999,106084.79823875,0.961181640625,0.15045166015625,-0.0998687744140625,106084.79222675,1.629029130326046,1.476825977976609,-0.1569896731574686,0.0003606876416597515,0.008663788437843323,0.003213725052773952,-0.01836526393890381,-0.005658447742462158,-0.003099024295806885,2,-0.5279054948766935,0.4183021443973,0.5000578772907935,0.5443172905006157,0.9833447933197021,0.1563456058502197,-0.09267821162939072,25.04685211181641,16.30799102783203,-15.610595703125,2,106084.65123475,2,0,1582558994.823309,1582558685.643339,11,0.6387488,0,0,10.91,0,0,1582558765.788069,106081.650713,0,5.157806,99.30329
1582558994.992942,21,0,1582558993.101441,41.20590741257566,29.07253304895542,178.6271,0.2197934,6.127707628971531,3,6.000906205260658,-9999,106084.80827875,0.9633636474609375,0.1534881591796875,-0.0965728759765625,106084.80226675,1.629039400637389,1.477016985287375,-0.1569458168098512,-0.0005354004679247737,0.02053640224039555,0.004334691911935806,-0.02267765998840332,-0.005447268486022949,-0.008031964302062988,2,-0.5279451829881089,0.4183639309287907,0.5000212336758814,0.5442648323355754,0.9833691716194153,0.1563022881746292,-0.09249100834131241,25.08834075927734,16.22232055664062,-15.4227294921875,2,106084.65123475,2,0,1582558994.823309,1582558685.643339,11,0.6387488,0,0,10.91,0,0,1582558765.788069,106081.650713,0,5.157806,99.30329
1582558994.994333,22,0,1582558993.101441,41.20590741257566,29.07253304895542,178.6271,0.2197934,6.127707628971531,3,6.000906205260658,-9999,106084.81831875,0.96478271484375,0.15478515625,-0.0933837890625,106084.81230675,1.629056536728819,1.477162997179979,-0.1568596461866016,0.0001876477326732129,0.01308568008244038,0.009694837033748627,-0.01937824487686157,-0.002340942621231079,-0.003016889095306396,2,-0.5279651054950263,0.4184238289635221,0.5000090413291728,0.5442107559385841,0.9833961725234985,0.1562171876430511,-0.09234869480133057,25.08834075927734,16.22232055664062,-15.4227294921875,2,106084.65123475,2,0,1582558994.823309,1582558685.643339,11,0.6387488,0,0,10.91,0,0,1582558765.788069,106081.650713,0,5.157806,99.30329
1582558994.99609,23,0,1582558993.101441,41.20590741257566,29.07253304895542,178.6271,0.2197934,6.127707628971531,3,6.000906205260658,-9999,106084.82835875,0.966552734375,0.153045654296875,-0.0942230224609375,106084.82234675,1.629089386140685,1.477301406399329,-0.1567458715575364,-0.002381467493250966,0.01508003659546375,0.01139858178794384,-0.0189509391784668,-0.001633346080780029,-0.001808643341064453,2,-0.5279799674352391,0.4184854000355184,0.5000100637805703,0.5441481333863318,0.9834266901016235,0.1561048030853271,-0.09221424907445908,25.25012969970703,16.2313232421875,-15.48779296875,2,106084.65123475,2,0,1582558994.823309,1582558685.643339,11,0.6387488,0,0,10.91,0,0,1582558765.788069,106081.650713,0,5.157806,99.30329
1582558995.00597,24,0,1582558993.101441,41.20590741257566,29.07253304895542,178.6271,0.2197934,6.127707628971531,3,6.000906205260658,-9999,106084.83839975,0.966827392578125,0.1535491943359375,-0.0924224853515625,106084.83238775,1.629142533837529,1.477412941076652,-0.1566005760794516,-0.003788948059082031,0.01095320098102093,0.0156340729445219,-0.01664924621582031,-0.002954632043838501,-0.001733064651489258,2,-0.5279850113897764,0.4185432948588733,0.5000316014610984,0.5440789265924265,0.9834595322608948,0.1559612900018692,-0.09210667759180069,25.25012969970703,16.2313232421875,-15.48779296875,2,106084.65123475,2,0,1582558994.823309,1582558685.643339,11,0.6387488,0,0,10.91,0,0,1582558765.788069,106081.650713,0,5.157806,99.30329
1582558995.016135,25,0,1582558993.101441,41.20590741257566,29.07253304895542,178.6271,0.2197934,6.127707628971531,3,6.000906205260658,-9999,106084.84846975,0.971405029296875,0.1529083251953125,-0.09185791015625,106084.84242775,1.629207005000209,1.477496618785339,-0.1564698498448247,-0.00534087372943759,0.008745282888412476,0.01392043195664883,-0.0170435905456543,-0.002398282289505005,-0.0005167126655578613,2,-0.5279889010190814,0.4185864132361172,0.500059869347616,0.5440158815041726,0.9834874272346497,0.1558321565389633,-0.09202627092599869,25.19692230224609,16.35511016845703,-15.46392822265625,2,106084.65123475,2,0,1582558994.823309,1582558685.643339,11,0.6387488,0,0,10.91,0,0,1582558765.788069,106081.650713,0,5.157806,99.30329
1582558995.049752,26,0,1582558993.101441,41.20590741257566,29.07253304895542,178.6271,0.2197934,6.127707628971531,3,6.000906205260658,-9999,106084.85851075,0.9717559814453125,0.1519775390625,-0.091400146484375,106084.85246775,1.629262681349537,1.477504025020104,-0.1563612095073897,-0.003752830903977156,-0.001225326210260391,0.01152012497186661,-0.01089680194854736,-0.003359109163284302,0.000392913818359375,2,-0.5279770223498714,0.4186048065665346,0.5001003507828385,0.5439760097799666,0.9835049510002136,0.1557248532772064,-0.09202055633068085,25.19692230224609,16.35511016845703,-15.46392822265625,2,106084.65123475,2,0,1582558994.823309,1582558685.643339,11,0.6387488,0,0,10.91,0,0,1582558765.788069,106081.650713,0,5.157806,99.30329
1582558995.051199,27,0,1582558993.101441,41.20590741257566,29.07253304895542,178.6271,0.2197934,6.127707628971531,3,6.000906205260658,-9999,106084.86855075,0.9730224609375,0.1513519287109375,-0.0906219482421875,106084.86250875,1.629321501976442,1.47747846515291,-0.1562927685302437,-0.005456971935927868,-0.001215701922774315,0.005984251853078604,-0.01229357719421387,-0.003550916910171509,0.0001138448715209961,2,-0.5279669389486639,0.4186019169440941,0.5001403029776967,0.5439513129597313,0.9835132360458374,0.1556572467088699,-0.09204669296741486,25.11222076416016,16.37023162841797,-15.60101318359375,2,106084.65123475,2,0,1582558994.823309,1582558685.643339,11,0.6387488,0,0,10.91,0,0,1582558765.788069,106081.650713,0,5.157806,99.30329
1582558995.05224,28,0,1582558993.101441,41.20590741257566,29.07253304895542,178.6271,0.2197934,6.127707628971531,3,6.000906205260658,-9999,106084.87859075,0.9672698974609375,0.1497650146484375,-0.095855712890625,106084.87254875,1.629392365602125,1.477446512515736,-0.1562351828840933,-0.009368356317281723,2.826191484928131e-05,0.007853258401155472,-0.01228427886962891,-0.005004584789276123,0.0005125999450683594,2,-0.5279602801504136,0.4185910393790698,0.5001825282115382,0.5439274756700313,0.9835193753242493,0.1556003540754318,-0.09207896888256073,25.11222076416016,16.37023162841797,-15.60101318359375,2,106084.65123475,2,0,1582558994.823309,1582558685.643339,11,0.6387488,0,0,10.91,0,0,1582558765.788069,106081.650713,0,5.157806,99.30329
1582558995.056335,29,0,1582558993.101441,41.20590741257566,29.07253304895542,178.6271,0.2197934,6.127707628971531,3,6.000906205260658,-9999,106084.88863175,0.9615936279296875,0.1512451171875,-0.0951995849609375,106084.88258875,1.629435783631639,1.477374454341479,-0.1562024101628486,-0.004188453778624535,-0.01210534572601318,0.003118195105344057,-0.01657044887542725,-0.005277425050735474,-0.003505706787109375,2,-0.5279437417335617,0.4185692995144908,0.500221525096744,0.5439241758484205,0.983517587184906,0.1555679887533188,-0.09215029329061508,24.87119293212891,16.02999877929688,-15.58831787109375,2,106084.65123475,2,0,1582558994.823309,1582558685.643339,11,0.6387488,0,0,10.91,0,0,1582558765.788069,106081.650713,0,5.157806,99.30329
1582558995.066381,30,0,1582558993.101441,41.20590741257566,29.07253304895542,178.6271,0.2197934,6.127707628971531,3,6.000906205260658,-9999,106084.89867175,0.956634521484375,0.1508331298828125,-0.09747314453125,106084.89262875,1.629464820995999,1.4774092052016,-0.1561549031779696,-4.856992018176243e-05,0.002402756363153458,0.004221543204039335,-0.02446973323822021,-0.004452258348464966,-0.004561305046081543,2,-0.5279473688224682,0.4185847183470786,0.5002322292930538,0.5438990903889834,0.9835282564163208,0.1555210500955582,-0.0921168178319931,24.87119293212891,16.02999877929688,-15.58831787109375,2,106084.65123475,2,0,1582558994.823309,1582558685.643339,11,0.6387488,0,0,10.91,0,0,1582558765.788069,106081.650713,0,5.157806,99.30329
1582558995.07637,31,0,1582558993.101441,41.20590741257566,29.07253304895542,178.6271,0.2197934,6.127707628971531,3,6.000906205260658,-9999,106084.90871175,0.9560546875,0.1503143310546875,-0.0972442626953125,106084.90266975,1.629495381835407,1.477552509610998,-0.1560887482763396,-0.0008973660878837109,0.0145485270768404,0.007125865668058395,-0.02733123302459717,-0.00479888916015625,-0.00540316104888916,2,-0.5279741486697443,0.4186345461653937,0.5002193274583482,0.5438465947102353,0.9835516810417175,0.1554557085037231,-0.0919768288731575,24.86554718017578,16.08083343505859,-15.408935546875,2,106084.65123475,2,0,1582558994.823309,1582558685.643339,11,0.6387488,0,0,10.91,0,0,1582558765.788069,106081.650713,0,5.157806,99.30329
1582558995.10903,32,0,1582558993.101441,41.20590741257566,29.07253304895542,178.6271,0.2197934,6.127707628971531,3,6.000906205260658,-9999,106084.91875175,0.9633636474609375,0.149993896484375,-0.0969085693359375,106084.91270975,1.629493538423415,1.477797738198288,-0.1560452033039179,0.002241968177258968,0.02417744882404804,0.004333807155489922,-0.02682632207870483,-0.00507625937461853,-0.005658864974975586,2,-0.528024903313861,0.4187141848880052,0.5001650428043265,0.5437859848121264,0.983581006526947,0.1554126888513565,-0.09173626452684402,24.86554718017578,16.08083343505859,-15.408935546875,2,106084.65123475,2,0,1582558994.823309,1582558685.643339,11,0.6387488,0,0,10.91,0,0,1582558765.788069,106081.650713,0,5.157806,99.30329
1582558995.110463,33,0,1582558993.101441,41.20590741257566,29.07253304895542,178.6271,0.2197934,6.127707628971531,3,6.000906205260658,-9999,106084.92879275,0.982513427734375,0.149505615234375,-0.0884552001953125,106084.92274975,1.629498738705029,1.478035736916349,-0.1560697642550395,-0.001368750585243106,0.02720025554299355,-0.002430971711874008,-0.01749056577682495,-0.005619317293167114,-0.005054116249084473,2,-0.528091266792612,0.4187704720588829,0.5000974225117902,0.5437403093807595,0.9835989475250244,0.1554369479417801,-0.09150180965662003,24.93761444091797,16.16572570800781,-15.51898193359375,2,106084.65123475,2,0,1582558994.823309,1582558685.643339,11,0.6387488,0,0,10.91,0,0,1582558765.788069,106081.650713,0,5.157806,99.30329
1582558995.111584,34,0,1582558993.101441,41.20590741257566,29.07253304895542,178.6271,0.2197934,6.127707628971531,3,6.000906205260658,-9999,106084.93883275,0.989898681640625,0.15093994140625,-0.08538818359375,106084.93279075,1.629508979680746,1.478046131773307,-0.1561801299650656,-0.001708037336356938,0.003240594640374184,-0.0115421786904335,0.00133967399597168,-0.005880951881408691,0.0046539306640625,2,-0.5281218088280363,0.4187390096322445,0.5000697128681177,0.5437603186963568,0.9835827350616455,0.1555459797382355,-0.0914899930357933,24.93761444091797,16.16572570800781,-15.51898193359375,2,106084.65123475,2,0,1582558994.823309,1582558685.643339,11,0.6387488,0,0,10.91,0,0,1582558765.788069,106081.650713,0,5.157806,99.30329
1582558995.116596,35,0,1582558993.101441,41.20590741257566,29.07253304895542,178.6271,0.2197934,6.127707628971531,3,6.000906205260658,-9999,106084.94887275,0.98345947265625,0.15484619140625,-0.0846405029296875,106084.94283075,1.629543215680854,1.477756244968686,-0.1563375096769729,-0.004946459550410509,-0.03093528561294079,-0.01667742431163788,0.006609082221984863,-0.004388511180877686,0.006416976451873779,2,-0.5280932302060856,0.4186061552565731,0.5001160553121635,0.5438478673180761,0.9835319519042969,0.1557014286518097,-0.09177285432815552,25.11188507080078,16.15840148925781,-15.40838623046875,2,106084.65123475,2,0,1582558994.823309,1582558685.643339,11,0.6387488,0,0,10.91,0,0,1582558765.788069,106081.650713,0,5.157806,99.30329
1582558995.126585,36,0,1582558993.101441,41.20590741257566,29.07253304895542,178.6271,0.2197934,6.127707628971531,3,6.000906205260658,-9999,106084.95891375,0.96356201171875,0.15655517578125,-0.092071533203125,106084.95290175,1.629579816690579,1.477274666610628,-0.1564630529084716,-0.00414085341617465,-0.05079234763979912,-0.01352450810372829,-0.003825247287750244,-0.000117957592010498,0.006446361541748047,2,-0.5280097907439814,0.4184295978934463,0.5002216120662436,0.5439676619174236,0.9834681749343872,0.1558254510164261,-0.09224466234445572,25.11188507080078,16.15840148925781,-15.40838623046875,2,106084.65123475,2,0,1582558994.823309,1582558685.643339,11,0.6387488,0,0,10.91,0,0,1582558765.788069,106081.650713,0,5.157806,99.30329
1582558995.13662,37,0,1582558993.101441,41.20590741257566,29.07253304895542,178.6271,0.2197934,6.127707628971531,3,6.000906205260658,-9999,106084.96895375,0.9557952880859375,0.1541900634765625,-0.09710693359375,106084.96294175,1.629636569001049,1.476853280657848,-0.1565191395197317,-0.005607897415757179,-0.04066440463066101,-0.005159581080079079,-0.02362918853759766,0.0003148913383483887,-0.001410245895385742,2,-0.5279293722430168,0.4182839357621543,0.5003341896996798,0.5440541730283452,0.9834204912185669,0.1558808535337448,-0.09265825152397156,25.04621124267578,16.07115173339844,-15.53857421875,2,106084.65123475,2,0,1582558994.823309,1582558685.643339,11,0.6387488,0,0,10.91,0,0,1582558765.788069,106081.650713,0,5.157806,99.30329
1582558995.165063,38,0,1582558994.101434,41.20591569358319,29.07253040041966,178.6357,0.1245307,8.787549777635517,3,6.000906205260658,-9999,106084.97899375,0.9549102783203125,0.153472900390625,-0.09771728515625,106084.97298175,1.629700858703047,1.476511664810964,-0.1565170616541237,-0.005803906358778477,-0.03555140271782875,0.0002983007580041885,-0.0281296968460083,-0.002307534217834473,-0.00446164608001709,2,-0.5278568562042906,0.4181746322773616,0.5004423740881144,0.5441090707086126,0.9833890795707703,0.1558787971735001,-0.09299423545598984,24.94493865966797,16.01976013183594,-15.48486328125,2,106084.65123475,2,0,1582558994.823309,1582558685.643339,11,0.6387488,0,0,10.91,0,0,1582558765.788069,106081.650713,0,5.157806,99.30329
1582558995.166636,39,0,1582558994.101434,41.20591569358319,29.07253040041966,178.6357,0.1245307,8.787549777635517,3,6.000906205260658,-9999,106084.98903375,0.9603118896484375,0.1551361083984375,-0.0953521728515625,106084.98302175,1.629756994070455,1.476266629975413,-0.1564559524933509,-0.005553641822189093,-0.02478811144828796,0.006678903475403786,-0.02854371070861816,-0.00195738673210144,-0.004845559597015381,2,-0.5277930327468404,0.4181106029228797,0.5005376069801214,0.5441324142705457,0.983375608921051,0.1558184325695038,-0.09323607385158539,24.94493865966797,16.01976013183594,-15.48486328125,2,106084.65123475,2,0,1582558994.823309,1582558685.643339,11,0.6387488,0,0,10.91,0,0,1582558765.788069,106082.586848,0,5.152512,99.30334
1582558995.167511,40,0,1582558994.101434,41.20591569358319,29.07253040041966,178.6357,0.1245307,8.787549777635517,3,6.000906205260658,-9999,106084.99907475,0.9673309326171875,0.1540374755859375,-0.0928955078125,106084.99306275,1.629795183126434,1.476030563050122,-0.1563805520512456,-0.003840430406853557,-0.02316171862185001,0.007775326259434223,-0.0213005542755127,-0.0005858540534973145,-0.001316189765930176,2,-0.5277242553139216,0.4180579363581425,0.5006292765807884,0.5441554294666724,0.9833654165267944,0.1557439565658569,-0.09346934407949448,25.08678436279297,16.17971038818359,-15.42510986328125,2,106084.65123475,2,0,1582558994.823309,1582558685.643339,11,0.6387488,0,0,10.91,0,0,1582558765.788069,106082.586848,0,5.152512,99.30334
1582558995.176753,41,0,1582558994.101434,41.20591569358319,29.07253040041966,178.6357,0.1245307,8.787549777635517,3,6.000906205260658,-9999,106085.00911475,0.97052001953125,0.1514892578125,-0.0935821533203125,106085.00310275,1.629804833610685,1.475777970730322,-0.1563218801189669,0.0002645475324243307,-0.02249865792691708,0.006257718428969383,-0.01571661233901978,-0.002084255218505859,0.0003826022148132324,2,-0.5276493747245591,0.4180034069952236,0.5007132108991111,0.5441924889021046,0.9833506345748901,0.1556859910488129,-0.09371858090162277,25.08678436279297,16.17971038818359,-15.42510986328125,2,106084.65123475,2,0,1582558994.823309,1582558685.643339,11,0.6387488,0,0,10.91,0,0,1582558765.788069,106082.586848,0,5.152512,99.30334
1582558995.186745,42,0,1582558994.101434,41.20591569358319,29.07253040041966,178.6357,0.1245307,8.787549777635517,3,6.000906205260658,-9999,106085.01915475,0.972076416015625,0.1511993408203125,-0.093017578125,106085.01314275,1.629826471649417,1.475449187128411,-0.1562902481175376,-0.002458801027387381,-0.03300216421484947,0.003282967954874039,-0.01212012767791748,-0.004769057035446167,0.0004470348358154297,2,-0.5275641666889017,0.4179173033577426,0.5008137850693537,0.5442487187284076,0.9833247065544128,0.1556547433137894,-0.09404235333204269,25.12052154541016,16.21190643310547,-15.55621337890625,2,106084.65123475,2,0,1582558994.823309,1582558685.643339,11,0.6387488,0,0,10.91,0,0,1582558765.788069,106082.586848,0,5.152512,99.30334
1582558995.19804,43,0,1582558994.101434,41.20591569358319,29.07253040041966,178.6357,0.1245307,8.787549777635517,3,6.000906205260658,-9999,106085.02919575,0.9691009521484375,0.1543121337890625,-0.0941619873046875,106085.02318375,1.629850228031151,1.475054250048237,-0.1562542767353581,-0.002317708218470216,-0.03808627277612686,0.003819470759481192,-0.01224124431610107,-0.003848493099212646,0.0009123086929321289,2,-0.5274617706360351,0.4178139015910342,0.5009334895976021,0.5443173333374836,0.9832932353019714,0.1556192189455032,-0.09443125128746033,25.12052154541016,16.21190643310547,-15.55621337890625,2,106084.65123475,2,0,1582558994.823309,1582558685.643339,11,0.6387488,0,0,10.91,0,0,1582558765.788069,106082.586848,0,5.152512,99.30334
1582558995.224226,44,0,1582558994.101434,41.20591569358319,29.07253040041966,178.6357,0.1245307,8.787549777635517,3,6.000906205260658,-9999,106085.03923575,0.9705810546875,0.1537017822265625,-0.0933990478515625,106085.03322375,1.629846919200436,1.474578125310078,-0.1562128175882757,0.0005513153737410903,-0.04748217016458511,0.004718287382274866,-0.01436936855316162,-0.001091539859771729,0.00066375732421875,2,-0.5273321448926257,0.4176970217032216,0.5010685018416979,0.5444082164880187,0.9832544326782227,0.1555782705545425,-0.09490001201629639,25.09597015380859,16.25567626953125,-15.46075439453125,2,106084.65123475,2,0,1582558994.823309,1582558685.643339,11,0.6387488,0,0,10.91,0,0,1582558765.788069,106082.586848,0,5.152512,99.30334
1582558995.225039,45,0,1582558994.101434,41.20591569358319,29.07253040041966,178.6357,0.1245307,8.787549777635517,3,6.000906205260658,-9999,106085.04927575,0.96734619140625,0.1525421142578125,-0.095855712890625,106085.04326375,1.629821703382213,1.474050234647744,-0.1561985954015509,0.002172116888687015,-0.05225498974323273,0.0003881794400513172,-0.01273441314697266,-0.002221971750259399,0.001701951026916504,2,-0.5271912865678736,0.417564026605629,0.5012043628584704,0.5445215547322266,0.9832063913345337,0.1555642187595367,-0.0954192653298378,25.09597015380859,16.25567626953125,-15.46075439453125,2,106084.65123475,2,0,1582558994.823309,1582558685.643339,11,0.6387488,0,0,10.91,0,0,1582558765.788069,106082.586848,0,5.152512,99.30334
1582558995.226592,46,0,1582558994.101434,41.20591569358319,29.07253040041966,178.6357,0.1245307,8.787549777635517,3,6.000906205260658,-9999,106085.05931575,0.958953857421875,0.1554107666015625,-0.0985565185546875,106085.05330375,1.629792616052078,1.473529140091018,-0.1561690690258187,0.004051776137202978,-0.05116682499647141,0.001875022426247597,-0.01778554916381836,-0.00260472297668457,-0.0006995201110839844,2,-0.5270476884122531,0.4174382749583857,0.5013411961227339,0.5446310343263512,0.9831610918045044,0.1555350422859192,-0.09593204408884048,24.89163970947266,15.88071441650391,-15.53790283203125,2,106084.65123475,2,0,1582558994.823309,1582558685.643339,11,0.6387488,0,0,10.91,0,0,1582558765.788069,106082.586848,0,5.152512,99.30334
1582558995.236802,47,0,1582558994.101434,41.20591569358319,29.07253040041966,178.6357,0.1245307,8.787549777635517,3,6.000906205260658,-9999,106085.06935675,0.956787109375,0.1548004150390625,-0.10150146484375,106085.06334475,1.62976956962042,1.473066583407509,-0.1560836278443241,0.004094632808119059,-0.04745961353182793,0.007650346495211124,-0.02526158094406128,0.0002873241901397705,-0.002898454666137695,2,-0.5269069089207227,0.4173428602576343,0.5014782124143514,0.544714197688255,0.9831298589706421,0.1554506421089172,-0.09638809412717819,24.89163970947266,15.88071441650391,-15.53790283203125,2,106084.65123475,2,0,1582558994.823309,1582558685.643339,11,0.6387488,0,0,10.91,0,0,1582558765.788069,106082.586848,0,5.152512,99.30334
1582558995.247251,48,0,1582558994.101434,41.20591569358319,29.07253040041966,178.6357,0.1245307,8.787549777635517,3,6.000906205260658,-9999,106085.07939675,0.961456298828125,0.151458740234375,-0.1015625,106085.07338475,1.629771763754107,1.472695085517654,-0.1559376412842864,0.001872757682576776,-0.03649058565497398,0.01527870539575815,-0.02634704113006592,-0.001018047332763672,-0.005216419696807861,2,-0.5267799635203001,0.4172829896193762,0.5016133110373672,0.5447586046956001,0.9831166863441467,0.1553064286708832,-0.09675555676221848,25.11576080322266,15.90132141113281,-15.573486328125,2,106084.65123475,2,0,1582558994.823309,1582558685.643339,11,0.6387488,0,0,10.91,0,0,1582558765.788069,106082.586848,0,5.152512,99.30334
1582558995.256889,49,0,1582558994.101434,41.20591569358319,29.07253040041966,178.6357,0.1245307,8.787549777635517,3,6.000906205260658,-9999,106085.08943675,0.9719085693359375,0.1502532958984375,-0.09912109375,106085.08342475,1.629822460066848,1.472320799692968,-0.1557789494794369,-0.003159387269988656,-0.03670002147555351,0.0177350826561451,-0.01985025405883789,-0.004355400800704956,-0.004220247268676758,2,-0.5266594635677101,0.4172131852881142,0.5017654599607037,0.5447884589342679,0.9831048846244812,0.1551496684551239,-0.09712593257427216,25.11576080322266,15.90132141113281,-15.573486328125,2,106084.65123475,2,0,1582558994.823309,1582558685.643339,11,0.6387488,0,0,10.91,0,0,1582558765.788069,106082.586848,0,5.152512,99.30334
1582558995.27181,50,0,1582558994.101434,41.20591569358319,29.07253040041966,178.6357,0.1245307,8.787549777635517,3,6.000906205260658,-9999,106085.09950775,0.9810943603515625,0.15167236328125,-0.0921478271484375,106085.09346575,1.629912812189735,1.471784328401654,-0.1556312089372509,-0.006232142448425293,-0.0531676784157753,0.01489189080893993,-0.009490609169006348,-0.004560381174087524,-0.0005929470062255859,2,-0.5265090488658695,0.4170856304778371,0.501968343649585,0.5448446495093436,0.9830754995346069,0.1550037115812302,-0.09765559434890747,25.23172760009766,16.15847015380859,-15.59039306640625,2,106084.65123475,2,0,1582558994.823309,1582558685.643339,11,0.6387488,0,0,10.91,0,0,1582558765.788069,106082.586848,0,5.152512,99.30334
1582558995.277147,51,0,1582558994.101434,41.20591569358319,29.07253040041966,178.6357,0.1245307,8.787549777635517,3,6.000906205260658,-9999,106085.10954775,0.978271484375,0.1600494384765625,-0.0888519287109375,106085.10350575,1.630032251499024,1.470928163865435,-0.1554487201404729,-0.010644456371665,-0.09024612605571747,0.01933080703020096,-0.001302123069763184,-0.002213448286056519,0.007712960243225098,2,-0.5262762240275349,0.4168732570546251,0.5022719002054565,0.5449522932545244,0.9830195903778076,0.1548234224319458,-0.09850005060434341,25.23172760009766,16.15847015380859,-15.59039306640625,2,106084.65123475,2,0,1582558994.823309,1582558685.643339,11,0.6387488,0,0,10.91,0,0,1582558765.788069,106082.586848,0,5.152512,99.30334
1582558995.287046,52,0,1582558994.101434,41.20591569358319,29.07253040041966,178.6357,0.1245307,8.787549777635517,3,6.000906205260658,-9999,106085.11958875,0.9692840576171875,0.1601715087890625,-0.0964508056640625,106085.11354575,1.630093575369878,1.469916484829125,-0.1552128192035729,-0.003421964356675744,-0.1024532541632652,0.02516206540167332,-0.006746649742126465,0.006946146488189697,0.009428560733795166,2,-0.5259794925116182,0.4166491169823863,0.5026137881539908,0.5450949645560206,0.9829557538032532,0.154590368270874,-0.09949817508459091,24.89859771728516,16.47458648681641,-15.466796875,2,106084.65123475,2,0,1582558994.823309,1582558685.643339,11,0.6387488,0,0,10.91,0,0,1582558765.788069,106082.586848,0,5.152512,99.30334
1582558995.297601,53,0,1582558994.101434,41.20591569358319,29.07253040041966,178.6357,0.1245307,8.787549777635517,3,6.000906205260658,-9999,106085.12962875,0.9612274169921875,0.1569976806640625,-0.1028289794921875,106085.12358575,1.630084119288056,1.468919046444671,-0.1549463444446729,0.00258049787953496,-0.0987500473856926,0.02698461152613163,-0.01582789421081543,0.004569768905639648,0.001929581165313721,2,-0.525664200247695,0.4164562071691926,0.5029401088892456,0.545245564425002,0.9828970432281494,0.1543270796537399,-0.1004827544093132,24.89859771728516,16.47458648681641,-15.466796875,2,106084.65123475,2,0,1582558994.823309,1582558685.643339,11,0.6387488,0,0,10.91,0,0,1582558765.788069,106082.586848,0,5.152512,99.30334
1582558995.307126,54,0,1582558994.101434,41.20591569358319,29.07253040041966,178.6357,0.1245307,8.787549777635517,3,6.000906205260658,-9999,106085.13966875,0.957244873046875,0.149322509765625,-0.10797119140625,106085.13362675,1.629987721903091,1.468053535718173,-0.154708330562985,0.01146267354488373,-0.08471331745386124,0.02240344136953354,-0.02279603481292725,0.002424567937850952,-0.002556443214416504,2,-0.5253705278999069,0.4163138478581168,0.503200712990147,0.5453967625403013,0.9828460812568665,0.1540919244289398,-0.1013371795415878,25.01129913330078,16.26549530029297,-15.61328125,2,106084.65123475,2,0,1582558994.823309,1582558685.643339,11,0.6387488,0,0,10.91,0,0,1582558765.788069,106082.586848,0,5.152512,99.30334
1582558995.317243,55,0,1582558994.101434,41.20591569358319,29.07253040041966,178.6357,0.1245307,8.787549777635517,3,6.000906205260658,-9999,106085.14970875,0.952178955078125,0.1384124755859375,-0.1160430908203125,106085.14366675,1.629932871081998,1.467438140601055,-0.1545225830902307,0.005892895627766848,-0.060336634516716,0.01815321668982506,-0.02694296836853027,-0.008179813623428345,-0.008128523826599121,2,-0.5251605894894172,0.4162137464814034,0.5033937805656121,0.5454971512522285,0.9828119874000549,0.1539083868265152,-0.1019449457526207,25.01129913330078,16.26549530029297,-15.61328125,2,106084.65123475,2,0,1582558994.823309,1582558685.643339,11,0.6387488,0,0,10.91,0,0,1582558765.788069,106082.586848,0,5.152512,99.30334
1582558995.333651,56,0,1582558994.101434,41.20591569358319,29.07253040041966,178.6357,0.1245307,8.787549777635517,3,6.000906205260658,-9999,106085.15974975,0.953826904296875,0.1446380615234375,-0.1120452880859375,106085.15370675,1.629957793836826,1.46703424733608,-0.1543394435193313,-0.0009548903326503932,-0.04120421782135963,0.01705918833613396,-0.03046965599060059,-0.01481950283050537,-0.01396924257278442,2,-0.5250209997555655,0.4161496614666968,0.5035524017444322,0.5455341324807368,0.9827988743782043,0.1537274271249771,-0.1023448184132576,25.05286407470703,16.26737976074219,-15.7196044921875,2,106084.65123475,2,0,1582558994.823309,1582558685.643339,11,0.6387488,0,0,10.91,0,0,1582558765.788069,106082.586848,0,5.152512,99.30334
1582558995.337378,57,0,1582558994.101434,41.20591569358319,29.07253040041966,178.6357,0.1245307,8.787549777635517,3,6.000906205260658,-9999,106085.16978975,0.9588623046875,0.152984619140625,-0.1041412353515625,106085.16374775,1.630031549934495,1.466728949434423,-0.1541016307568525,-0.006510405801236629,-0.03171906620264053,0.02369893901050091,-0.02899461984634399,-0.00712287425994873,-0.008065402507781982,2,-0.524903532463592,0.416115315612281,0.5037120300482245,0.5455259711973978,0.9828038811683655,0.1534924358129501,-0.1026486530900002,25.05286407470703,16.26737976074219,-15.7196044921875,2,106084.65123475,2,0,1582558994.823309,1582558685.643339,11,0.6387488,0,0,10.91,0,0,1582558765.788069,106082.586848,0,5.152512,99.30334
1582558995.347339,58,0,1582558994.101434,41.20591569358319,29.07253040041966,178.6357,0.1245307,8.787549777635517,3,6.000906205260658,-9999,106085.17982975,0.9720306396484375,0.155181884765625,-0.0986175537109375,106085.17378775,1.630059057463156,1.466370981143995,-0.153863558609603,0.0002233968989457935,-0.03592073172330856,0.02385579794645309,-0.02173101902008057,0.001123279333114624,-8.034706115722656e-05,2,-0.5247630675487336,0.4160788285391506,0.5038728991934966,0.5455403679386636,0.9828033447265625,0.1532571762800217,-0.1030042618513107,25.08841705322266,16.21305847167969,-15.5308837890625,2,106084.65123475,2,0,1582558994.823309,1582558685.643339,11,0.6387488,0,0,10.91,0,0,1582558765.788069,106082.586848,0,5.152512,99.30334
1582558995.357342,59,0,1582558994.101434,41.20591569358319,29.07253040041966,178.6357,0.1245307,8.787549777635517,3,6.000906205260658,-9999,106085.18987075,0.9650421142578125,0.1521148681640625,-0.1024322509765625,106085.18382775,1.630053428885958,1.465897139515569,-0.1536450072970083,0.003016309579834342,-0.04947078973054886,0.02073450013995171,-0.009584546089172363,0.001263022422790527,0.00487518310546875,2,-0.5245910461519723,0.4160138316882362,0.5040502216705109,0.5455916012335985,0.9827877879142761,0.1530412137508392,-0.1034734547138214,25.08841705322266,16.21305847167969,-15.5308837890625,2,106084.65123475,2,0,1582558994.823309,1582558685.643339,11,0.6387488,0,0,10.91,0,0,1582558765.788069,106082.586848,0,5.152512,99.30334
1582558995.367444,60,0,1582558994.101434,41.20591569358319,29.07253040041966,178.6357,0.1245307,8.787549777635517,3,6.000906205260658,-9999,106085.19991075,0.94244384765625,0.1505584716796875,-0.113922119140625,106085.19386775,1.630017180274611,1.465573394266196,-0.1534127641512384,0.007129029370844364,-0.03383456915616989,0.02301496267318726,-0.02307522296905518,-0.0008267760276794434,-0.001165986061096191,2,-0.5244472441555825,0.4160017046521612,0.5041831492541687,0.545616173631991,0.9827894568443298,0.1528116911649704,-0.1037953421473503,25.10962677001953,16.23100280761719,-15.7752685546875,2,106084.65123475,2,0,1582558994.823309,1582558685.643339,11,0.6387488,0,0,10.91,0,0,1582558765.788069,106082.586848,0,5.152512,99.30334
1582558995.377463,61,0,1582558994.101434,41.20591569358319,29.07253040041966,178.6357,0.1245307,8.787549777635517,3,6.000906205260658,-9999,106085.20995075,0.940582275390625,0.1425628662109375,-0.11785888671875,106085.20393875,1.629956124147972,1.465610003480547,-0.1531849117965646,0.009951370768249035,0.005018081516027451,0.02204328030347824,-0.04299569129943848,-0.003302335739135742,-0.0118182897567749,2,-0.5243900963971979,0.4160931598815742,0.5042137445248042,0.5455731355881026,0.98282790184021,0.1525865197181702,-0.1037630215287209,25.10962677001953,16.23100280761719,-15.7752685546875,2,106084.65123475,2,0,1582558994.823309,1582558685.643339,11,0.6387488,0,0,10.91,0,0,1582558765.788069,106082.586848,0,5.152512,99.30334
1582558995.391022,62,0,1582558994.101434,41.20591569358319,29.07253040041966,178.6357,0.1245307,8.787549777635517,3,6.000906205260658,-9999,106085.21999075,0.9468841552734375,0.1431732177734375,-0.1112060546875,106085.21397875,1.629897116006429,1.465913284094071,-0.152972643053852,0.007418171502649784,0.03267554193735123,0.02064192667603493,-0.04099941253662109,-0.01084399223327637,-0.01395928859710693,2,-0.524404263793863,0.4162523284294841,0.5041710934262735,0.5454775580494181,0.9828915596008301,0.152376726269722,-0.1034683361649513,25.00029754638672,16.06967926025391,-15.86370849609375,2,106084.65123475,2,0,1582558994.823309,1582558685.643339,11,0.6387488,0,0,10.91,0,0,1582558765.788069,106082.586848,0,5.152512,99.30334
1582558995.397819,63,0,1582558994.101434,41.20591569358319,29.07253040041966,178.6357,0.1245307,8.787549777635517,3,6.000906205260658,-9999,106085.23003175,0.945648193359375,0.151153564453125,-0.1075592041015625,106085.22401975,1.629780438124022,1.466410210888858,-0.1527525097383869,0.01256941724568605,0.05233244225382805,0.02062573842704296,-0.03664398193359375,-0.007330477237701416,-0.007211923599243164,2,-0.5244533969822922,0.4164816239586848,0.5040638712662344,0.5453543132933857,0.9829761385917664,0.1521591693162918,-0.1029833853244781,25.00029754638672,16.06967926025391,-15.86370849609375,2,106084.65123475,2,0,1582558994.823309,1582558685.643339,11,0.6387488,0,0,10.91,0,0,1582558765.788069,106082.586848,0,5.152512,99.30334
1582558995.407533,64,0,1582558994.101434,41.20591569358319,29.07253040041966,178.6357,0.1245307,8.787549777635517,3,6.000906205260658,-9999,106085.24007175,0.956085205078125,0.147552490234375,-0.097259521484375,106085.23405975,1.629563191071186,1.46700215682482,-0.1525393403853128,0.02356747351586819,0.06491614878177643,0.01865207031369209,-0.03589791059494019,-0.0004364550113677979,-0.004449129104614258,2,-0.5245071340266569,0.4167611369934204,0.5039025634156435,0.5452380413144522,0.9830690026283264,0.1519484668970108,-0.1024048402905464,25.02219390869141,16.22996520996094,-15.79522705078125,2,106084.65123475,2,0,1582558994.823309,1582558685.643339,11,0.6387488,0,0,10.91,0,0,1582558765.788069,106082.586848,0,5.152512,99.30334
1582558995.41744,65,0,1582558994.101434,41.20591569358319,29.07253040041966,178.6357,0.1245307,8.787549777635517,3,6.000906205260658,-9999,106085.25011175,0.9402313232421875,0.1433868408203125,-0.1015625,106085.24409975,1.629221171444817,1.467640223263039,-0.1523561376772206,0.03531370684504509,0.06766759604215622,0.01465590950101614,-0.02819359302520752,-0.005504369735717773,0.005988955497741699,2,-0.524553396501077,0.4170773529025235,0.5036877431114181,0.5451503138693565,0.9831619262695312,0.1517674028873444,-0.10178042948246,25.02219390869141,16.22996520996094,-15.79522705078125,2,106084.65123475,2,0,1582558994.823309,1582558685.643339,11,0.6387488,0,0,10.91,0,0,1582558765.788069,106082.586848,0,5.152512,99.30334
1582558995.427571,66,0,1582558994.101434,41.20591569358319,29.07253040041966,178.6357,0.1245307,8.787549777635517,3,6.000906205260658,-9999,106085.26015275,0.947296142578125,0.142547607421875,-0.113006591796875,106085.25414075,1.628797124994151,1.468559877512644,-0.1522037210214177,0.04236762225627899,0.09972193092107773,0.01057940814644098,-0.04588770866394043,-0.009061425924301147,-0.004297077655792236,2,-0.5246605449687153,0.4174829556684133,0.5033690314609419,0.5450311930563378,0.983278214931488,0.1516167372465134,-0.1008785888552666,25.23767852783203,16.05430603027344,-15.61199951171875,2,106084.65123475,2,0,1582558994.823309,1582558685.643339,11,0.6387488,0,0,10.91,0,0,1582558765.788069,106082.586848,0,5.152512,99.30334
1582558995.437631,67,0,1582558994.101434,41.20591569358319,29.07253040041966,178.6357,0.1245307,8.787549777635517,3,6.000906205260658,-9999,106085.27019275,0.9733123779296875,0.14447021484375,-0.102813720703125,106085.26418075,1.628358418259928,1.469572287604281,-0.1520701445248065,0.04420384019613266,0.1073280200362206,0.009539574384689331,-0.03024697303771973,-0.008135885000228882,-0.01253843307495117,2,-0.5247921861194682,0.417912203064047,0.5030172541252045,0.5449002697305261,0.9833999872207642,0.1514847129583359,-0.09988510608673096,25.23767852783203,16.05430603027344,-15.61199951171875,2,106084.65123475,2,0,1582558994.823309,1582558685.643339,11,0.6387488,0,0,10.91,0,0,1582558765.788069,106082.586848,0,5.152512,99.30334
1582558995.453252,68,0,1582558994.101434,41.20591569358319,29.07253040041966,178.6357,0.1245307,8.787549777635517,3,6.000906205260658,-9999,106085.28023275,0.99151611328125,0.13836669921875,-0.098663330078125,106085.27422075,1.627966425432475,1.470486153031926,-0.1520111086351323,0.03841758891940117,0.1002994105219841,0.002355163916945457,-0.00748908519744873,-0.007924914360046387,-0.002694487571716309,2,-0.5249261303547927,0.4182809220392156,0.5026853803505351,0.5447945250614561,0.9834997057914734,0.1514263600111008,-0.09898725897073746,25.18433380126953,16.14218139648438,-15.78369140625,2,106084.65123475,2,0,1582558994.823309,1582558685.643339,11,0.6387488,0,0,10.91,0,0,1582558765.788069,106082.586848,0,5.152512,99.30334
1582558995.457714,69,0,1582558994.101434,41.20591569358319,29.07253040041966,178.6357,0.1245307,8.787549777635517,3,6.000906205260658,-9999,106085.29027275,1.023223876953125,0.145538330078125,-0.07177734375,106085.28426075,1.627611199312085,1.470844278543621,-0.1521022259949221,0.03355799987912178,0.04651932418346405,-0.01311244443058968,0.01444661617279053,-0.01305043697357178,0.002872228622436523,2,-0.5249632585553952,0.4184456337763848,0.5024718299365118,0.5448292793242311,0.9835213422775269,0.1515164226293564,-0.09863365441560745,25.18433380126953,16.14218139648438,-15.78369140625,2,106084.65123475,2,0,1582558994.823309,1582558685.643339,11,0.6387488,0,0,10.91,0,0,1582558765.788069,106082.586848,0,5.152512,99.30334
1582558995.467786,70,0,1582558994.101434,41.20591569358319,29.07253040041966,178.6357,0.1245307,8.787549777635517,3,6.000906205260658,-9999,106085.30031375,1.006912231445312,0.1511993408203125,-0.06817626953125,106085.29430175,1.627216257515736,1.470231221336887,-0.1523274928254354,0.0360131673514843,-0.05759110301733017,-0.02672519162297249,0.0412440299987793,-0.004072070121765137,0.0324329137802124,2,-0.5247796604061902,0.4183177354560738,0.5024687333914941,0.5451071104325999,0.9834266901016235,0.1517390757799149,-0.09923315793275833,25.07083892822266,16.24089050292969,-15.696044921875,2,106084.65123475,2,0,1582558994.823309,1582558685.643339,11,0.6387488,0,0,10.91,0,0,1582558765.788069,106082.586848,0,5.152512,99.30334
1582558995.477774,71,0,1582558994.101434,41.20591569358319,29.07253040041966,178.6357,0.1245307,8.787549777635517,3,6.000906205260658,-9999,106085.31035375,0.9532012939453125,0.1516876220703125,-0.100799560546875,106085.30434175,1.62675199253858,1.469169906203692,-0.1525956153692981,0.04351070523262024,-0.1052310168743134,-0.03167384117841721,0.01451998949050903,-0.0009497404098510742,0.02697265148162842,2,-0.5244791002522479,0.4180733527882021,0.502553449389011,0.5455055372153351,0.9832802414894104,0.1520040929317474,-0.1002726927399635,25.07083892822266,16.24089050292969,-15.696044921875,2,106084.65123475,2,0,1582558994.823309,1582558685.643339,11,0.6387488,0,0,10.91,0,0,1582558765.788069,106082.586848,0,5.152512,99.30334
1582558995.487815,72,0,1582558994.101434,41.20591569358319,29.07253040041966,178.6357,0.1245307,8.787549777635517,3,6.000906205260658,-9999,106085.32039375,0.89849853515625,0.144317626953125,-0.1393890380859375,106085.31438175,1.626295471765593,1.468689437909117,-0.1528053622533171,0.04404919594526291,-0.04514237493276596,-0.02651077136397362,-0.04298669099807739,-0.0009129047393798828,-0.008065223693847656,2,-0.5243123584735896,0.418001931047157,0.5025024455971933,0.5457675923839334,0.9832003116607666,0.1522113978862762,-0.100741870701313,25.24048614501953,16.16814422607422,-15.64886474609375,2,106084.65123475,2,0,1582558994.823309,1582558685.643339,11,0.6387488,0,0,10.91,0,0,1582558765.788069,106082.586848,0,5.152512,99.30334
1582558995.497875,73,0,1582558994.101434,41.20591569358319,29.07253040041966,178.6357,0.1245307,8.787549777635517,3,6.000906205260658,-9999,106085.33043475,0.8682708740234375,0.141326904296875,-0.1612091064453125,106085.32442275,1.625922990039479,1.469617082317358,-0.1528498380731727,0.03734681755304337,0.09682834148406982,-0.008738964796066284,-0.09289300441741943,-0.009715467691421509,-0.04628598690032959,2,-0.5244779515291835,0.4183399765431235,0.5021464521724142,0.5456771134647878,0.9832865595817566,0.1522553563117981,-0.09982908517122269,25.24048614501953,16.16814422607422,-15.64886474609375,2,106084.65123475,2,0,1582558994.823309,1582558685.643339,11,0.6387488,0,0,10.91,0,0,1582558765.788069,106082.586848,0,5.152512,99.30334
1582558995.510916,74,0,1582558994.101434,41.20591569358319,29.07253040041966,178.6357,0.1245307,8.787549777635517,3,6.000906205260658,-9999,106085.34047475,0.887939453125,0.1384429931640625,-0.15057373046875,106085.33446275,1.625649825472698,1.472069450284514,-0.152752518398482,0.02824653312563896,0.2526536285877228,0.009001949802041054,-0.1165565848350525,-0.01027539372444153,-0.06412345170974731,2,-0.5250131396803712,0.4191083036472456,0.5014528933588154,0.5452104654567471,0.9835431575775146,0.1521591693162918,-0.09741886705160141,24.98506927490234,16.14214324951172,-15.53289794921875,2,106084.65123475,2,0,1582558994.823309,1582558685.643339,11,0.6387488,0,0,10.91,0,0,1582558765.788069,106082.586848,0,5.152512,99.30334
1582558995.518436,75,0,1582558994.101434,41.20591569358319,29.07253040041966,178.6357,0.1245307,8.787549777635517,3,6.000906205260658,-9999,106085.35054575,0.9304656982421875,0.1331634521484375,-0.1416168212890625,106085.34450275,1.625407195791831,1.475822200673239,-0.1527759483233912,0.02472536452114582,0.3781038522720337,-0.003634848864749074,-0.08769118785858154,-0.01550185680389404,-0.05440396070480347,2,-0.5259076906943149,0.4201876686569941,0.5003949224649696,0.5444889782735454,0.9838981628417969,0.152182325720787,-0.09372685104608536,24.98506927490234,16.14214324951172,-15.53289794921875,2,106084.65123475,2,0,1582558994.823309,1582558685.643339,11,0.6387488,0,0,10.91,0,0,1582558765.788069,106082.586848,0,5.152512,99.30334
1582558995.528016,76,0,1582558994.101434,41.20591569358319,29.07253040041966,178.6357,0.1245307,8.787549777635517,3,6.000906205260658,-9999,106085.36058575,1.002090454101562,0.1408233642578125,-0.088714599609375,106085.35454275,1.625284066168278,1.480224224222227,-0.1529867986317313,0.007642782758921385,0.4585140347480774,-0.02266420051455498,-0.04445266723632812,-0.0199979841709137,-0.04847049713134766,2,-0.5270312247750155,0.4213574802729143,0.4991497171468539,0.5436410869735683,0.9842694401741028,0.152390718460083,-0.08939192444086075,25.28882598876953,16.00228118896484,-15.31304931640625,2,106084.65123475,2,0,1582558994.823309,1582558685.643339,11,0.6387488,0,0,10.91,0,0,1582558765.788069,106082.586848,0,5.152512,99.30334
1582558995.538052,77,0,1582558994.101434,41.20591569358319,29.07253040041966,178.6357,0.1245307,8.787549777635517,3,6.000906205260658,-9999,106085.37062575,1.070327758789062,0.1645355224609375,-0.029296875,106085.36458375,1.625203894611903,1.483400853597243,-0.1532834168761271,0.004176068585366011,0.3168763220310211,-0.03047966957092285,0.03737521171569824,-0.006176769733428955,0.01431554555892944,2,-0.5278758488728854,0.4221571432185673,0.4982154663465269,0.5430579045584725,0.9845033884048462,0.1526838690042496,-0.08626087009906769,25.28882598876953,16.00228118896484,-15.31304931640625,2,106084.65123475,2,0,1582558994.823309,1582558685.643339,11,0.6387488,0,0,10.91,0,0,1582558765.788069,106082.586848,0,5.152512,99.30334
1582558995.548672,78,0,1582558994.101434,41.20591569358319,29.07253040041966,178.6357,0.1245307,8.787549777635517,3,6.000906205260658,-9999,106085.38066575,1.033035278320312,0.1519317626953125,-0.0552520751953125,106085.37462375,1.62504109897079,1.485231757268482,-0.1537411839192861,0.01316690072417259,0.1757562011480331,-0.04806425794959068,0.08527755737304688,0.01157447695732117,0.05526149272918701,2,-0.5284043450295292,0.4225668555193227,0.4975722906573969,0.5428147728244483,0.9845897555351257,0.1531362533569336,-0.08445220440626144,25.48670196533203,15.84999084472656,-15.2379150390625,2,106084.65123475,2,0,1582558994.823309,1582558685.643339,11,0.6387488,0,0,10.91,0,0,1582558765.788069,106082.586848,0,5.152512,99.30334
1582558995.558125,79,0,1582558994.101434,41.20591569358319,29.07253040041966,178.6357,0.1245307,8.787549777635517,3,6.000906205260658,-9999,106085.39070675,0.97662353515625,0.1350250244140625,-0.09722900390625,106085.38466375,1.62491035013319,1.486749557493512,-0.1543885743786766,0.00809837318956852,0.1483253836631775,-0.06525975465774536,0.03390383720397949,-0.006262093782424927,0.01759493350982666,2,-0.5289053241300967,0.4228291426934633,0.4969721289448986,0.5426723339386458,0.9846177697181702,0.1537759751081467,-0.08294934779405594,25.48670196533203,15.84999084472656,-15.2379150390625,2,106084.65123475,2,0,1582558994.823309,1582558685.643339,11,0.6387488,0,0,10.91,0,0,1582558765.788069,106082.586848,0,5.152512,99.30334
1582558995.57237,80,0,1582558994.101434,41.20591569358319,29.07253040041966,178.6357,0.1245307,8.787549777635517,3,6.000906205260658,-9999,106085.40074675,0.9983367919921875,0.1393585205078125,-0.0832366943359375,106085.39470475,1.624900663859667,1.488363597651721,-0.1552092574891361,-0.006006794050335884,0.1679968237876892,-0.0809369832277298,-0.01036834716796875,-0.02068394422531128,-0.01853549480438232,2,-0.5294955121004707,0.4230362783518644,0.4963350132898053,0.5425185532907978,0.9846243858337402,0.1545868515968323,-0.08134961873292923,25.37752532958984,16.01871490478516,-15.204345703125,2,106084.65123475,2,0,1582558994.823309,1582558685.643339,11,0.6387488,0,0,10.91,0,0,1582558765.788069,106082.586848,0,5.152512,99.30334
1582558995.580161,81,0,1582558994.101434,41.20591569358319,29.07253040041966,178.6357,0.1245307,8.787549777635517,3,6.000906205260658,-9999,106085.41078675,1.030166625976562,0.154388427734375,-0.049285888671875,106085.40474475,1.624939596785113,1.489304044209492,-0.156185555468926,-0.01334420498460531,0.09791776537895203,-0.09599541127681732,0.02249777317047119,-0.01314949989318848,0.005047023296356201,2,-0.5299644780155697,0.4230035587361664,0.4958494792863675,0.5425302501603855,0.9845497012138367,0.1555513292551041,-0.08041128516197205,25.37752532958984,16.01871490478516,-15.204345703125,2,106084.65123475,2,0,1582558994.823309,1582558685.643339,11,0.6387488,0,0,10.91,0,0,1582558765.788069,106082.586848,0,5.152512,99.30334
1582558995.588269,82,0,1582558994.101434,41.20591569358319,29.07253040041966,178.6357,0.1245307,8.787549777635517,3,6.000906205260658,-9999,106085.42082775,1.011978149414062,0.1558685302734375,-0.05364990234375,106085.41478475,1.624951047276287,1.489255001820243,-0.1572810342032153,-0.01105308718979359,-0.004697555676102638,-0.1093309223651886,0.04673540592193604,-0.0008040070533752441,0.0336000919342041,2,-0.5302098078736954,0.4226756959204056,0.4955881657745642,0.5427846872812192,0.9843751788139343,0.1566333770751953,-0.08044563233852386,25.52396392822266,16.19342041015625,-15.2047119140625,2,106084.65123475,2,0,1582558994.823309,1582558685.643339,11,0.6387488,0,0,10.91,0,0,1582558765.788069,106082.586848,0,5.152512,99.30334
1582558995.598293,83,0,1582558994.101434,41.20591569358319,29.07253040041966,178.6357,0.1245307,8.787549777635517,3,6.000906205260658,-9999,106085.430871875,0.9446868896484375,0.163360595703125,-0.0873565673828125,106085.42482475,1.624955753613352,1.48885754514519,-0.158296480396339,-0.009534451179206371,-0.04278459399938583,-0.1024161353707314,0.01653105020523071,-0.001303642988204956,0.02138978242874146,2,-0.5303486413694327,0.4222776524497455,0.495437572866972,0.5430961830617894,0.9841840267181396,0.1576362103223801,-0.08082380890846252,25.52396392822266,16.19342041015625,-15.2047119140625,2,106084.65123475,2,0,1582558994.823309,1582558685.643339,11,0.6387488,0,0,10.91,0,0,1582558765.788069,106082.586848,0,5.152512,99.30334
1582558995.608358,84,0,1582558994.101434,41.20591569358319,29.07253040041966,178.6357,0.1245307,8.787549777635517,3,6.000906205260658,-9999,106085.440911875,0.9051666259765625,0.1619873046875,-0.1081085205078125,106085.434869875,1.624980140255598,1.489011087646877,-0.1590510086651865,-0.008956811390817165,0.02068438939750195,-0.07523404806852341,-0.05309522151947021,0.00660291314125061,-0.01357638835906982,2,-0.5305673001513741,0.4220981664969155,0.4952122844562919,0.5432276539703242,0.9840776920318604,0.1583812683820724,-0.08066295832395554,25.39817047119141,16.24971008300781,-15.20001220703125,2,106084.65123475,2,0,1582558994.823309,1582558685.643339,11,0.6387488,0,0,10.91,0,0,1582558765.788069,106082.586848,0,5.152512,99.30334
1582558995.61837,85,0,1582558994.101434,41.20591569358319,29.07253040041966,178.6357,0.1245307,8.787549777635517,3,6.000906205260658,-9999,106085.450951875,0.921783447265625,0.154052734375,-0.1064605712890625,106085.444909875,1.625067370113056,1.489887857447059,-0.1595891818302339,-0.01307673193514347,0.08500377833843231,-0.05290739610791206,-0.07821166515350342,0.001081764698028564,-0.02897274494171143,2,-0.5309278224636216,0.422159970120214,0.4948668498650564,0.5431421626244813,0.9840629100799561,0.1589126288890839,-0.07979321479797363,25.39817047119141,16.24971008300781,-15.20001220703125,2,106084.65123475,2,0,1582558994.823309,1582558685.643339,11,0.6387488,0,0,10.91,0,0,1582558765.788069,106082.586848,0,5.152512,99.30334
1582558995.636115,86,0,1582558994.101434,41.20591569358319,29.07253040041966,178.6357,0.1245307,8.787549777635517,3,6.000906205260658,-9999,106085.460992875,0.95123291015625,0.152191162109375,-0.0952301025390625,106085.454980875,1.625185189797284,1.491382921117873,-0.160084433001588,-0.01474360469728708,0.1474602222442627,-0.0485648438334465,-0.05745351314544678,-0.005800694227218628,-0.02726161479949951,2,-0.5314374507720415,0.4223936782994832,0.4943760912344806,0.542908888948697,0.9841024875640869,0.1594015657901764,-0.07831563055515289,25.36907196044922,16.17258453369141,-15.07574462890625,2,106084.65123475,2,0,1582558994.823309,1582558685.643339,11,0.6387488,0,0,10.91,0,0,1582558765.788069,106082.586848,0,5.152512,99.30334
1582558995.638506,87,0,1582558994.101434,41.20591569358319,29.07253040041966,178.6357,0.1245307,8.787549777635517,3,6.000906205260658,-9999,106085.471032875,0.9811553955078125,0.1525421142578125,-0.0750579833984375,106085.465020875,1.625332611708578,1.492999238004794,-0.160642314377109,-0.02069238387048244,0.1594085991382599,-0.05500879511237144,-0.02662146091461182,-0.008350491523742676,-0.01515722274780273,2,-0.5319973066346489,0.4226344450792967,0.4938446929387327,0.5426567318046667,0.9841389656066895,0.1599522829055786,-0.07671798020601273,25.36907196044922,16.17258453369141,-15.07574462890625,2,106084.65123475,2,0,1582558994.823309,1582558685.643339,11,0.6387488,0,0,10.91,0,0,1582558765.788069,106082.586848,0,5.152512,99.30334
1582558995.648622,88,0,1582558994.101434,41.20591569358319,29.07253040041966,178.6357,0.1245307,8.787549777635517,3,6.000906205260658,-9999,106085.481072875,0.9845733642578125,0.160247802734375,-0.064697265625,106085.475060875,1.625425522909184,1.494358766992897,-0.1612774117108926,-0.01505180820822716,0.134013757109642,-0.06328483670949936,0.0005221366882324219,-0.00670391321182251,0.003516435623168945,2,-0.5324995297699829,0.4227980081685473,0.4933467163081016,0.542489859297044,0.9841410517692566,0.1605791747570038,-0.07537218928337097,25.26396942138672,16.25375366210938,-14.95379638671875,2,106084.65123475,2,0,1582558994.823309,1582558685.643339,11,0.6387488,0,0,10.91,0,0,1582558765.788069,106082.586848,0,5.152512,99.30334
1582558995.658596,89,0,1582558994.101434,41.20591569358319,29.07253040041966,178.6357,0.1245307,8.787549777635517,3,6.000906205260658,-9999,106085.491113875,0.963409423828125,0.1616668701171875,-0.074554443359375,106085.485101875,1.625454494302942,1.495575745890426,-0.161932449584957,-0.007328443694859743,0.1175641566514969,-0.06647533178329468,-0.003339409828186035,1.940131187438965e-05,0.008398652076721191,2,-0.5329572946425135,0.4229341076465409,0.4928637206279063,0.5423731286416777,0.9841268062591553,0.1612256765365601,-0.07416652888059616,25.26396942138672,16.25375366210938,-14.95379638671875,2,106084.65123475,2,0,1582558994.823309,1582558685.643339,11,0.6387488,0,0,10.91,0,0,1582558765.788069,106082.586848,0,5.152512,99.30334
1582558995.668716,90,0,1582558994.101434,41.20591569358319,29.07253040041966,178.6357,0.1245307,8.787549777635517,3,6.000906205260658,-9999,106085.501153875,0.9534149169921875,0.162506103515625,-0.077972412109375,106085.495141875,1.62543564500766,1.496934114628244,-0.1625154078242634,-0.002839951775968075,0.1348107904195786,-0.05851620435714722,-0.02472281455993652,-0.0005102455615997314,-0.004038393497467041,2,-0.5334225852059353,0.4231418087674659,0.4923480635837166,0.5422221476769269,0.9841328859329224,0.1618009805679321,-0.07282271236181259,25.34883880615234,15.97489166259766,-14.99615478515625,2,106084.65123475,2,0,1582558994.823309,1582558685.643339,11,0.6387488,0,0,10.91,0,0,1582558765.788069,106082.586848,0,5.152512,99.30334
1582558995.68081,91,0,1582558994.101434,41.20591569358319,29.07253040041966,178.6357,0.1245307,8.787549777635517,3,6.000906205260658,-9999,106085.511193875,0.9668731689453125,0.1603240966796875,-0.0728302001953125,106085.505181875,1.625415058670392,1.498343774423899,-0.1630499530014242,-0.005262393038719893,0.1431564539670944,-0.05545161291956902,-0.02891886234283447,-0.0001223087310791016,-0.006347894668579102,2,-0.5338885093121508,0.4233775220430749,0.4918300715215608,0.5420495492556537,0.9841480255126953,0.1623284518718719,-0.0714290663599968,25.34883880615234,15.97489166259766,-14.99615478515625,2,106084.65123475,2,0,1582558994.823309,1582558685.643339,11,0.6387488,0,0,10.91,0,0,1582558765.788069,106082.586848,0,5.152512,99.30334
1582558995.694758,92,0,1582558994.101434,41.20591569358319,29.07253040041966,178.6357,0.1245307,8.787549777635517,3,6.000906205260658,-9999,106085.521233875,0.9737548828125,0.162933349609375,-0.0657806396484375,106085.515221875,1.625371921763706,1.499539686722238,-0.1635161175354794,0.0005121392314322293,0.1187150329351425,-0.04594572633504868,-0.01580536365509033,-0.001696318387985229,-0.0003893375396728516,2,-0.534280832073138,0.4235807552940463,0.4913801352721578,0.5419123471232647,0.9841572642326355,0.1627884209156036,-0.07024667412042618,25.42139434814453,16.29685974121094,-14.9775390625,2,106084.65123475,2,0,1582558994.823309,1582558685.643339,11,0.6387488,0,0,10.91,0,0,1582558765.788069,106082.586848,0,5.152512,99.30334
1582558995.69879,93,0,1582558994.101434,41.20591569358319,29.07253040041966,178.6357,0.1245307,8.787549777635517,3,6.000906205260658,-9999,106085.531274875,0.9929962158203125,0.1587066650390625,-0.05828857421875,106085.525262875,1.625333269218267,1.500476772218531,-0.1639498327862224,8.33979356684722e-05,0.1027339547872543,-0.04339278116822243,-0.008353948593139648,-0.001040935516357422,0.00307762622833252,2,-0.5346027857261773,0.4237217837657409,0.4910084867938198,0.5418212695449935,0.9841519594192505,0.1632163375616074,-0.06931941956281662,25.42139434814453,16.29685974121094,-14.9775390625,2,106084.65123475,2,0,1582558994.823309,1582558685.643339,11,0.6387488,0,0,10.91,0,0,1582558765.788069,106082.586848,0,5.152512,99.30334
1582558995.708875,94,0,1582558994.101434,41.20591569358319,29.07253040041966,178.6357,0.1245307,8.787549777635517,3,6.000906205260658,-9999,106085.541314875,0.99493408203125,0.164398193359375,-0.0462493896484375,106085.535302875,1.625326086236666,1.500698378697079,-0.1643302154560776,-0.002703333739191294,0.02038449421525002,-0.03815221413969994,0.01265823841094971,-0.00428500771522522,0.01475691795349121,2,-0.5347432633308514,0.4236757651586419,0.4908501650334007,0.5418621277402532,0.9841053485870361,0.1635916084051132,-0.06909697502851486,25.40282440185547,16.36611175537109,-14.96160888671875,2,106084.65123475,2,0,1582558994.823309,1582558685.643339,11,0.6387488,0,0,10.91,0,0,1582558765.788069,106082.586848,0,5.152512,99.30334
1582558995.71892,95,0,1582558994.101434,41.20591569358319,29.07253040041966,178.6357,0.1245307,8.787549777635517,3,6.000906205260658,-9999,106085.551354875,0.96551513671875,0.1631927490234375,-0.066314697265625,106085.545342875,1.625342235181583,1.500523829626239,-0.164631890440023,-0.004077671095728874,-0.01883683353662491,-0.03066776692867279,0.005288600921630859,0.0008189678192138672,0.02015900611877441,2,-0.5347733215390768,0.423538492047317,0.4908241472494246,0.5419633187273455,0.9840439558029175,0.1638892143964767,-0.06926528364419937,25.40282440185547,16.36611175537109,-14.96160888671875,2,106084.65123475,2,0,1582558994.823309,1582558685.643339,11,0.6387488,0,0,10.91,0,0,1582558765.788069,106082.586848,0,5.152512,99.30334
1582558995.731057,96,0,1582558994.101434,41.20591569358319,29.07253040041966,178.6357,0.1245307,8.787549777635517,3,6.000906205260658,-9999,106085.561395875,0.9456024169921875,0.1624298095703125,-0.078765869140625,106085.555383875,1.625372189058058,1.500406726715481,-0.164832808315559,-0.004365292377769947,-0.01531480345875025,-0.01980340108275414,-0.02381467819213867,-0.001088261604309082,-0.0004646778106689453,2,-0.5347971959300327,0.4234416859024,0.4908122464813088,0.5420261571904403,0.984002947807312,0.1640874147415161,-0.06937819719314575,25.47748565673828,16.28002166748047,-14.7481689453125,2,106084.65123475,2,0,1582558994.823309,1582558685.643339,11,0.6387488,0,0,10.91,0,0,1582558765.788069,106082.586848,0,5.152512,99.30334
1582558995.739054,97,0,1582558994.101434,41.20591569358319,29.07253040041966,178.6357,0.1245307,8.787549777635517,3,6.000906205260658,-9999,106085.571435875,0.94769287109375,0.1595458984375,-0.0834503173828125,106085.565423875,1.625431324264128,1.500643082533384,-0.1649378053335332,-0.006512301042675972,0.02539470791816711,-0.008820654824376106,-0.04105633497238159,-0.002122640609741211,-0.01182222366333008,2,-0.5348918662210013,0.423460131295499,0.4907382694846065,0.5419854005856489,0.9840022325515747,0.1641909778118134,-0.06914442032575607,25.47748565673828,16.28002166748047,-14.7481689453125,2,106084.65123475,2,0,1582558994.823309,1582558685.643339,11,0.6387488,0,0,10.91,0,0,1582558765.788069,106082.586848,0,5.152512,99.30334
1582558995.763604,98,0,1582558994.101434,41.20591569358319,29.07253040041966,178.6357,0.1245307,8.787549777635517,3,6.000906205260658,-9999,106085.581475875,0.965057373046875,0.1602020263671875,-0.0728759765625,106085.575463875,1.625505296146837,1.501039327236959,-0.1650448611589999,-0.008263861760497093,0.03920160233974457,-0.01154293864965439,-0.03227710723876953,-0.005295246839523315,-0.01341891288757324,2,-0.5350293782382646,0.4235173232958018,0.4906249807128082,0.5419075694052038,0.9840120673179626,0.1642965823411942,-0.06875327974557877,25.34236907958984,16.24906158447266,-14.85980224609375,2,106084.65123475,2,0,1582558994.823309,1582558685.643339,11,0.6387488,0,0,10.91,0,0,1582558765.788069,106082.586848,0,5.152512,99.30334
1582558995.766875,99,0,1582558994.101434,41.20591569358319,29.07253040041966,178.6357,0.1245307,8.787549777635517,3,6.000906205260658,-9999,106085.591515875,0.9514617919921875,0.16143798828125,-0.07928466796875,106085.585503875,1.625568582696176,1.501553024317131,-0.1651578566476959,-0.006132420152425766,0.04731012135744095,-0.01147213391959667,-0.01976639032363892,-0.003560423851013184,-0.003854990005493164,2,-0.5351947562178245,0.4236075043852557,0.4904758311687813,0.5418088653763831,0.9840288162231445,0.1644080430269241,-0.0682465136051178,25.34236907958984,16.24906158447266,-14.85980224609375,2,106084.65123475,2,0,1582558994.823309,1582558685.643339,11,0.6387488,0,0,10.91,0,0,1582558765.788069,106082.586848,0,5.152512,99.30334
1582558995.769641,100,0,1582558994.101434,41.20591569358319,29.07253040041966,178.6357,0.1245307,8.787549777635517,3,6.000906205260658,-9999,106085.601586875,0.9532470703125,0.1618804931640625,-0.07684326171875,106085.595544875,1.62565280664641,1.502402784386659,-0.1652512285354629,-0.01029174495488405,0.08840376138687134,-0.007209477946162224,-0.03567796945571899,-0.003438979387283325,-0.0142751932144165,2,-0.5354424408273095,0.4237885933905675,0.4902472979829338,0.5416292430970008,0.9840710163116455,0.1645001471042633,-0.06740923970937729,25.39823150634766,16.18276977539062,-14.66375732421875,2,106084.65123475,2,0,1582558994.823309,1582558685.643339,11,0.6387488,0,0,10.91,0,0,1582558765.788069,106082.586848,0,5.152512,99.30334
1582558995.781234,101,0,1582558994.101434,41.20591569358319,29.07253040041966,178.6357,0.1245307,8.787549777635517,3,6.000906205260658,-9999,106085.611627875,0.9639892578125,0.1622161865234375,-0.06793212890625,106085.605584875,1.62566407065364,1.503349634461247,-0.1653965048087125,-0.0009287234861403704,0.09309099614620209,-0.01411073189228773,-0.0279051661491394,-0.002254903316497803,-0.007015109062194824,2,-0.5357102728556322,0.4240006972141077,0.4899596024500199,0.5414585954163947,0.984110414981842,0.1646434366703033,-0.06647582352161407,25.39823150634766,16.18276977539062,-14.66375732421875,2,106084.65123475,2,0,1582558994.823309,1582558685.643339,11,0.6387488,0,0,10.91,0,0,1582558765.788069,106082.586848,0,5.152512,99.30334
1582558995.789101,102,0,1582558994.101434,41.20591569358319,29.07253040041966,178.6357,0.1245307,8.787549777635517,3,6.000906205260658,-9999,106085.621667875,0.96978759765625,0.1575775146484375,-0.0701446533203125,106085.615624875,1.625648499308289,1.50443592975681,-0.1656262454278248,0.0003983296046499163,0.1078648790717125,-0.0234706774353981,-0.019287109375,-0.003915697336196899,-0.003295183181762695,2,-0.5360256938874184,0.4242338102304959,0.4896056240309239,0.5412842743637798,0.9841445684432983,0.1648700386285782,-0.0654042586684227,25.54743194580078,16.38076019287109,-14.7783203125,2,106085.615228875,4,1,1582558995.787303,1582558685.643339,11,0.6387488,0,0,10.91,0,0,1582558765.788069,106082.586848,0,5.152512,99.30334
1582558995.799273,103,0,1582558994.101434,41.20591569358319,29.07253040041966,178.6357,0.1245307,8.787549777635517,3,6.000906205260658,-9999,106085.631707875,0.9920806884765625,0.1614532470703125,-0.0569915771484375,106085.625665875,1.625626740903326,1.505461586465248,-0.1659033396827788,0.0005914694047532976,0.1059528663754463,-0.02700585313141346,-0.01190745830535889,-0.007439255714416504,-0.004994571208953857,2,-0.5363356947669268,0.4244385741848481,0.4892537824833109,0.5411346811929656,0.984165370464325,0.1651433408260345,-0.0643918365240097,25.54743194580078,16.38076019287109,-14.7783203125,2,106085.615228875,4,1,1582558995.787303,1582558685.643339,11,0.6387488,0,0,10.91,0,0,1582558765.788069,106082.586848,0,5.152512,99.30334
1582558995.820484,104,0,1582558994.101434,41.20591569358319,29.07253040041966,178.6357,0.1245307,8.787549777635517,3,6.000906205260658,-9999,106085.641747875,1.022384643554688,0.166259765625,-0.0307464599609375,106085.635705875,1.625545498370254,1.505813084407813,-0.1662509726718887,0.004408844280987978,0.03713012486696243,-0.03368133306503296,0.01469290256500244,-0.003296077251434326,0.01206600666046143,2,-0.5364841699151336,0.4244568892219041,0.4890484640171021,0.5411587112393932,0.9841306209564209,0.1654861867427826,-0.06404216587543488,25.30612945556641,16.2220458984375,-14.83221435546875,2,106085.615228875,4,1,1582558995.787303,1582558685.643339,11,0.6387488,0,0,10.91,0,0,1582558765.788069,106082.586848,0,5.152512,99.30334
1582558995.821334,105,0,1582558994.101434,41.20591569358319,29.07253040041966,178.6357,0.1245307,8.787549777635517,3,6.000906205260658,-9999,106085.651788875,1.025711059570312,0.1612701416015625,-0.0383453369140625,106085.645745875,1.625393790291974,1.505307033476099,-0.1667153011091822,0.009650417603552341,-0.04950237274169922,-0.0458524152636528,0.04101687669754028,0.0003810524940490723,0.03515732288360596,2,-0.5364347354013036,0.4242289485603066,0.4890241757320871,0.5414083750297746,0.9840213060379028,0.1659440994262695,-0.06453514844179153,25.30612945556641,16.2220458984375,-14.83221435546875,2,106085.615228875,4,1,1582558995.787303,1582558685.643339,11,0.6387488,0,0,10.91,0,0,1582558765.788069,106082.586848,0,5.152512,99.30334
1582558995.830985,106,0,1582558994.101434,41.20591569358319,29.07253040041966,178.6357,0.1245307,8.787549777635517,3,6.000906205260658,-9999,106085.661828875,1.04132080078125,0.156646728515625,-0.0400238037109375,106085.655785875,1.62520009570623,1.504132048129742,-0.1673416439143128,0.01395674981176853,-0.1110807806253433,-0.06200502067804337,0.04225039482116699,-0.006965845823287964,0.02464938163757324,2,-0.5362500407632113,0.4237849754544789,0.4891263329955662,0.5418465799225657,0.9838408827781677,0.1665617227554321,-0.06568437814712524,25.37718963623047,16.42310333251953,-14.74951171875,2,106085.615228875,4,1,1582558995.787303,1582558685.643339,11,0.6387488,0,0,10.91,0,0,1582558765.788069,106082.586848,0,5.152512,99.30334
1582558995.839423,107,0,1582558994.101434,41.20591569358319,29.07253040041966,178.6357,0.1245307,8.787549777635517,3,6.000906205260658,-9999,106085.671868875,1.06768798828125,0.156005859375,-0.0307769775390625,106085.665826875,1.624965510715551,1.502056954349886,-0.1683165289883478,0.01652788743376732,-0.2018210291862488,-0.09768012166023254,0.06371533870697021,-0.0111469030380249,0.0295029878616333,2,-0.5359165662625842,0.4230084288016805,0.4893692018353821,0.5425634676015468,0.9835399389266968,0.1675229072570801,-0.06771460920572281,25.37277984619141,16.38809967041016,-14.7806396484375,2,106085.615228875,4,1,1582558995.787303,1582558685.643339,11,0.6387488,0,0,10.91,0,0,1582558765.788069,106082.586848,0,5.152512,99.30334
1582558995.849461,108,0,1582558994.101434,41.20591569358319,29.07253040041966,178.6357,0.1245307,8.787549777635517,3,6.000906205260658,-9999,106085.681909875,1.024093627929688,0.1639251708984375,-0.0328521728515625,106085.675866875,1.62469610871118,1.498828683274864,-0.169636076888653,0.01685492321848869,-0.3190008997917175,-0.1391790956258774,0.08410382270812988,-0.01232588291168213,0.04082608222961426,2,-0.535372600565603,0.4218287182486454,0.4898228024881291,0.5436086102154893,0.9830948710441589,0.1688236594200134,-0.07087342441082001,25.37277984619141,16.38809967041016,-14.7806396484375,2,106085.615228875,4,1,1582558995.787303,1582558685.643339,11,0.6387488,0,0,10.91,0,0,1582558765.788069,106082.586848,0,5.152512,99.30334
1582558995.859595,109,0,1582558994.101434,41.20591569358319,29.07253040041966,178.6357,0.1245307,8.787549777635517,3,6.000906205260658,-9999,106085.691949875,0.90252685546875,0.1763763427734375,-0.0884246826171875,106085.685906875,1.624406612151539,1.495132965661033,-0.1707746681348003,0.02055500820279121,-0.3790099918842316,-0.1165490001440048,0.01927250623703003,-0.003118067979812622,0.03638839721679688,2,-0.5346679239124027,0.4205762899689677,0.4904414115751545,0.5447136736127715,0.9826338887214661,0.1699458062648773,-0.07449159026145935,25.21030426025391,16.32383728027344,-14.79180908203125,2,106085.615228875,4,1,1582558995.787303,1582558685.643339,11,0.6387488,0,0,10.91,0,0,1582558765.788069,106082.586848,0,5.152512,99.30334
1582558995.888133,110,0,1582558994.101434,41.20591569358319,29.07253040041966,178.6357,0.1245307,8.787549777635517,3,6.000906205260658,-9999,106085.701989875,0.8599700927734375,0.1701507568359375,-0.1381072998046875,106085.695977875,1.624225033542962,1.492693653081864,-0.1715062808940412,0.01281719282269478,-0.2337345778942108,-0.07379914075136185,-0.09984904527664185,0.005819618701934814,-0.02842366695404053,2,-0.5341999272285901,0.4197512854009443,0.490856736362228,0.5454345708888974,0.98232501745224,0.1706667244434357,-0.07687859237194061,25.21030426025391,16.32383728027344,-14.79180908203125,2,106085.615228875,4,1,1582558995.787303,1582558685.643339,11,0.6387488,0,0,10.91,0,0,1582558765.788069,106082.586848,0,5.152512,99.30334
1582558995.889308,111,0,1582558994.101434,41.20591569358319,29.07253040041966,178.6357,0.1245307,8.787549777635517,3,6.000906205260658,-9999,106085.712029875,0.92938232421875,0.1748199462890625,-0.0883636474609375,106085.706017875,1.624152380314793,1.491169319405326,-0.171882615156431,0.002611426869407296,-0.145050510764122,-0.03635508939623833,-0.1133842468261719,-0.002195894718170166,-0.0552513599395752,2,-0.5338972325325912,0.4192473661690536,0.4911478259886995,0.54585635058056,0.9821426272392273,0.1710375249385834,-0.07837077975273132,25.11669158935547,16.31090545654297,-15.007080078125,2,106085.615228875,4,1,1582558995.787303,1582558685.643339,11,0.6387488,0,0,10.91,0,0,1582558765.788069,106082.586848,0,5.152512,99.30334
1582558995.890146,112,0,1582558994.101434,41.20591569358319,29.07253040041966,178.6357,0.1245307,8.787549777635517,3,6.000906205260658,-9999,106085.722070875,0.9966583251953125,0.1778564453125,-0.0593719482421875,106085.716058875,1.6239977335044,1.489518020101587,-0.1721814445401297,0.0137695400044322,-0.1573290228843689,-0.02872486785054207,-0.03802239894866943,0.005932420492172241,0.001343846321105957,2,-0.5335281546842026,0.4187523653096821,0.4914699510512782,0.5463070197619445,0.9819608330726624,0.1713319420814514,-0.07998833060264587,25.11669158935547,16.31090545654297,-15.007080078125,2,106085.615228875,4,1,1582558995.787303,1582558685.643339,11,0.6387488,0,0,10.91,0,0,1582558765.788069,106082.586848,0,5.152512,99.30334
1582558995.899684,113,0,1582558994.101434,41.20591569358319,29.07253040041966,178.6357,0.1245307,8.787549777635517,3,6.000906205260658,-9999,106085.732110875,1.034164428710938,0.17523193359375,-0.0508270263671875,106085.726098875,1.623741108149208,1.487212973278583,-0.1726978399720366,0.0208098404109478,-0.2289199382066727,-0.0523700974881649,0.02565336227416992,0.004462271928787231,0.0246272087097168,2,-0.5330270538753292,0.4180431355868629,0.4918826956023563,0.546967592658042,0.9816856384277344,0.1718406826257706,-0.08224419504404068,24.95423126220703,16.39718627929688,-15.15985107421875,2,106085.615228875,4,1,1582558995.787303,1582558685.643339,11,0.6387488,0,0,10.91,0,0,1582558765.788069,106082.586848,0,5.152512,99.30334
1582558995.909693,114,0,1582558994.101434,41.20591569358319,29.07253040041966,178.6357,0.1245307,8.787549777635517,3,6.000906205260658,-9999,106085.742150875,1.030258178710938,0.17724609375,-0.0548095703125,106085.736138875,1.623278172545727,1.484135881855987,-0.1735654887697585,0.041281558573246,-0.3029904365539551,-0.09236811846494675,0.05470091104507446,0.003760010004043579,0.03569203615188599,2,-0.5323739585972096,0.4170757391684714,0.4923543072755578,0.5479169496515245,0.9812789559364319,0.1726953536272049,-0.0852515920996666,24.95423126220703,16.39718627929688,-15.15985107421875,2,106085.615228875,4,1,1582558995.787303,1582558685.643339,11,0.6387488,0,0,10.91,0,0,1582558765.788069,106082.586848,0,5.152512,99.30334
1582558995.919767,115,0,1582558994.101434,41.20591569358319,29.07253040041966,178.6357,0.1245307,8.787549777635517,3,6.000906205260658,-9999,106085.752190875,0.984954833984375,0.16650390625,-0.0841064453125,106085.746179875,1.622724262859567,1.480584696915271,-0.1747198137010901,0.04577344283461571,-0.3498474955558777,-0.1238448917865753,0.04370403289794922,0.001798838376998901,0.02859991788864136,2,-0.5316513539477361,0.4159182280147504,0.4928529401260447,0.5490489797513686,0.9807708263397217,0.1738322228193283,-0.08871772885322571,24.98998260498047,16.59326171875,-15.5648193359375,2,106085.615228875,4,1,1582558995.787303,1582558685.643339,11,0.6387488,0,0,10.91,0,0,1582558765.788069,106082.586848,0,5.152512,99.30334
1582558995.940664,116,0,1582558994.101434,41.20591569358319,29.07253040041966,178.6357,0.1245307,8.787549777635517,3,6.000906205260658,-9999,106085.762231875,0.9234161376953125,0.1595458984375,-0.119598388671875,106085.756219875,1.622207826925844,1.477213630413327,-0.1758930362334908,0.04259283095598221,-0.3383056223392487,-0.1229876130819321,-0.008506655693054199,-0.01035827398300171,0.001552820205688477,2,-0.5309851868617685,0.4147921840096165,0.4933079277820278,0.5501358837240441,0.9802625179290771,0.1749874651432037,-0.09200435131788254,24.98998260498047,16.59326171875,-15.5648193359375,2,106085.615228875,4,1,1582558995.787303,1582558685.643339,11,0.6387488,0,0,10.91,0,0,1582558765.788069,106082.586848,0,5.152512,99.30334
1582558995.941538,117,0,1582558994.101434,41.20591569358319,29.07253040041966,178.6357,0.1245307,8.787549777635517,3,6.000906205260658,-9999,106085.772271875,0.8984527587890625,0.1614532470703125,-0.1339569091796875,106085.766259875,1.621850483638617,1.47478398626419,-0.1769438836488354,0.02500366419553757,-0.2318830639123917,-0.1080131903290749,-0.06582063436508179,-0.01682525873184204,-0.03238344192504883,2,-0.530555799345235,0.413916051185918,0.4935870098188898,0.5509591771678312,0.9798526167869568,0.176022008061409,-0.0943680927157402,24.77391815185547,16.48701477050781,-15.50341796875,2,106085.615228875,4,1,1582558995.787303,1582558685.643339,11,0.6387488,0,0,10.91,0,0,1582558765.788069,106082.586848,0,5.152512,99.30334
1582558995.949862,118,0,1582558994.101434,41.20591569358319,29.07253040041966,178.6357,0.1245307,8.787549777635517,3,6.000906205260658,-9999,106085.782311875,0.9169158935546875,0.164398193359375,-0.12017822265625,106085.776299875,1.621610933178135,1.472997124539563,-0.1778640538471086,0.01376672182232141,-0.1712873578071594,-0.0930294468998909,-0.07870292663574219,-0.01550334692001343,-0.03560745716094971,2,-0.5302791703712745,0.4132221400428805,0.4937607846865433,0.5515901230932856,0.9795206189155579,0.1769277304410934,-0.09610293060541153,24.77391815185547,16.48701477050781,-15.50341796875,2,106085.615228875,4,1,1582558995.787303,1582558685.643339,11,0.6387488,0,0,10.91,0,0,1582558765.788069,106082.586848,0,5.152512,99.30334
1582558995.959876,119,0,1582558994.101434,41.20591569358319,29.07253040041966,178.6357,0.1245307,8.787549777635517,3,6.000906205260658,-9999,106085.792352875,0.93365478515625,0.17254638671875,-0.1063385009765625,106085.786340875,1.621471739634111,1.471631871336905,-0.1786280926870347,0.003572673769667745,-0.1239427402615547,-0.07548560202121735,-0.06011009216308594,-0.01181516051292419,-0.02056550979614258,2,-0.5300910056349469,0.4126622797415797,0.4938900687418878,0.5520743232855759,0.979253888130188,0.1776796579360962,-0.09742673486471176,24.62133026123047,16.60758972167969,-15.590087890625,2,106085.615228875,4,1,1582558995.787303,1582558685.643339,11,0.6387488,0,0,10.91,0,0,1582558765.788069,106082.586848,0,5.152512,99.30334
1582558995.969927,120,0,1582558994.101434,41.20591569358319,29.07253040041966,178.6357,0.1245307,8.787549777635517,3,6.000906205260658,-9999,106085.802392875,0.9260711669921875,0.172882080078125,-0.104827880859375,106085.796380875,1.621389026829408,1.470402267333406,-0.1792411029683217,0.003436319762840867,-0.1252812445163727,-0.06221746653318405,-0.04274499416351318,-0.004697620868682861,-0.005043983459472656,2,-0.529912915486769,0.4121679190863352,0.4940372147932851,0.5524827290658468,0.9790247082710266,0.1782828867435455,-0.09861981868743896,24.62133026123047,16.60758972167969,-15.590087890625,2,106085.615228875,4,1,1582558995.787303,1582558685.643339,11,0.6387488,0,0,10.91,0,0,1582558765.788069,106082.586848,0,5.152512,99.30334
1582558995.980995,121,0,1582558994.101434,41.20591569358319,29.07253040041966,178.6357,0.1245307,8.787549777635517,3,6.000906205260658,-9999,106085.812432875,0.913421630859375,0.168487548828125,-0.127593994140625,106085.806420875,1.621444586659855,1.469635426356808,-0.1796639343568447,-0.008240577764809132,-0.08024251461029053,-0.04075731709599495,-0.05933284759521484,-0.006929457187652588,-0.009549617767333984,2,-0.5298333256250745,0.4118193598858582,0.4941482616276006,0.5527196389093219,0.9788737297058105,0.1786989271640778,-0.09936292469501495,24.70653533935547,16.59492492675781,-15.8477783203125,2,106085.615228875,4,1,1582558995.787303,1582558685.643339,11,0.6387488,0,0,10.91,0,0,1582558765.788069,106082.586848,0,5.152512,99.30334
1582558996.000496,122,0,1582558994.101434,41.20591569358319,29.07253040041966,178.6357,0.1245307,8.787549777635517,3,6.000906205260658,-9999,106085.822472875,0.9206390380859375,0.1673736572265625,-0.1281280517578125,106085.816461875,1.621650545411317,1.469489895918051,-0.1799523942949941,-0.02250606566667557,-0.01947477087378502,-0.02803299948573112,-0.06303596496582031,-0.01131799817085266,-0.03097307682037354,2,-0.5299069011265347,0.4116413424918692,0.4941704302004169,0.5527619040438243,0.9788079261779785,0.1789827346801758,-0.09950016438961029,24.70653533935547,16.59492492675781,-15.8477783203125,2,106085.615228875,4,1,1582558995.787303,1582558685.643339,11,0.6387488,0,0,10.91,0,0,1582558765.788069,106082.586848,0,5.152512,99.30334
1582558996.001322,123,0,1582558994.101434,41.20591569358319,29.07253040041966,178.6357,0.1245307,8.787549777635517,3,6.000906205260658,-9999,106085.832513875,0.923248291015625,0.1753997802734375,-0.1142730712890625,106085.826501875,1.621958878255551,1.469814046019572,-0.1800559654788935,-0.03146515041589737,0.02879770845174789,-0.007718108128756285,-0.05911290645599365,-0.01065698266029358,-0.02672988176345825,2,-0.530074569943541,0.4116193031819383,0.4941433915051677,0.5526416325328372,0.9788216352462769,0.1790846288204193,-0.09918099641799927,24.54837799072266,16.91143035888672,-15.6812744140625,2,106085.615228875,4,1,1582558995.787303,1582558685.643339,11,0.6387488,0,0,10.91,0,0,1582558765.788069,106082.586848,0,5.152512,99.30334
1582558996.010072,124,0,1582558994.101434,41.20591569358319,29.07253040041966,178.6357,0.1245307,8.787549777635517,3,6.000906205260658,-9999,106085.842553875,0.932464599609375,0.181640625,-0.10162353515625,106085.836541875,1.622296945963846,1.470333621393575,-0.1799689512513869,-0.03362790495157242,0.04548107832670212,0.01210060343146324,-0.05345761775970459,-0.002041727304458618,-0.01263439655303955,2,-0.5302523075789172,0.4116983191240546,0.4941211512723552,0.5524320334822802,0.9788884520530701,0.1789990216493607,-0.09867396950721741,24.54837799072266,16.91143035888672,-15.6812744140625,2,106085.615228875,4,1,1582558995.787303,1582558685.643339,11,0.6387488,0,0,10.91,0,0,1582558765.788069,106082.586848,0,5.152512,99.30334
1582558996.020172,125,0,1582558994.101434,41.20591569358319,29.07253040041966,178.6357,0.1245307,8.787549777635517,3,6.000906205260658,-9999,106085.852624875,0.9450225830078125,0.1795196533203125,-0.10064697265625,106085.846581875,1.622570432005925,1.470964518494426,-0.1797545978464038,-0.02427309192717075,0.0583733431994915,0.02523573115468025,-0.0458827018737793,0.003280997276306152,-0.002643227577209473,2,-0.5304146085477175,0.4118619169779624,0.4940839169983208,0.5521876845418522,0.9789888262748718,0.1787881255149841,-0.09806020557880402,24.53131866455078,16.90693664550781,-15.67596435546875,2,106085.615228875,4,1,1582558995.787303,1582558685.643339,11,0.6387488,0,0,10.91,0,0,1582558765.788069,106082.586848,0,5.152512,99.30334
1582558996.031041,126,0,1582558994.101434,41.20591569358319,29.07253040041966,178.6357,0.1245307,8.787549777635517,3,6.000906205260658,-9999,106085.862664875,0.9779815673828125,0.1792144775390625,-0.09039306640625,106085.856622875,1.622757482279835,1.471595599752483,-0.1795727030044375,-0.01721811108291149,0.06427571177482605,0.02001886442303658,-0.02792561054229736,0.0001336038112640381,-0.002830743789672852,2,-0.5305667349798074,0.4120390047696492,0.4940144281731713,0.5519716481242133,0.9790829420089722,0.178609162569046,-0.09744559973478317,24.53131866455078,16.90693664550781,-15.67596435546875,2,106085.615228875,4,1,1582558995.787303,1582558685.643339,11,0.6387488,0,0,10.91,0,0,1582558765.788069,106082.586848,0,5.152512,99.30334
1582558996.040261,127,0,1582558994.101434,41.20591569358319,29.07253040041966,178.6357,0.1245307,8.787549777635517,3,6.000906205260658,-9999,106085.872704875,0.989837646484375,0.1790008544921875,-0.0886383056640625,106085.866662875,1.622843967503675,1.471975342117861,-0.1795010603130625,-0.009133144281804562,0.0363151803612709,0.008882341906428337,0.003076314926147461,0.001211225986480713,0.00866997241973877,2,-0.5306616967320961,0.4121415240353387,0.4939557699089716,0.5518563368505064,0.9791326522827148,0.1785386651754379,-0.09707505255937576,24.61936187744141,16.67448425292969,-15.52911376953125,2,106085.615228875,4,1,1582558995.787303,1582558685.643339,11,0.6387488,0,0,10.91,0,0,1582558765.788069,106082.586848,0,5.152512,99.30334
1582558996.060154,128,0,1582558994.101434,41.20591569358319,29.07253040041966,178.6357,0.1245307,8.787549777635517,3,6.000906205260658,-9999,106085.882745875,0.994781494140625,0.175079345703125,-0.092987060546875,106085.876702875,1.622855273714079,1.472170363387463,-0.1796171567795566,-0.002700545825064182,0.02084062062203884,-0.01232574228197336,0.01177549362182617,-0.0005968213081359863,0.006599903106689453,2,-0.5307391970212146,0.4121588076712926,0.4938775698372065,0.5518387245130888,0.979130744934082,0.17865289747715,-0.09688204526901245,24.61936187744141,16.67448425292969,-15.52911376953125,2,106085.615228875,4,1,1582558995.787303,1582558685.643339,11,0.6387488,0,0,10.91,0,0,1582558765.788069,106082.586848,0,5.152512,99.30334
1582558996.061165,129,0,1582558994.101434,41.20591569358319,29.07253040041966,178.6357,0.1245307,8.787549777635517,3,6.000906205260658,-9999,106085.892785875,0.972808837890625,0.1732940673828125,-0.097564697265625,106085.886742875,1.622851255097106,1.472178168955036,-0.179844937412599,-0.0004660718841478229,-0.0002699755132198334,-0.02347023971378803,0.01399731636047363,-0.004681408405303955,0.003231287002563477,2,-0.5307932005439895,0.4120963278116357,0.4938164568913216,0.5518881085145724,0.9790909886360168,0.1788770109415054,-0.09687039256095886,24.69258880615234,16.86500549316406,-15.5213623046875,2,106085.615228875,4,1,1582558995.787303,1582558685.643339,11,0.6387488,0,0,10.91,0,0,1582558765.788069,106082.586848,0,5.152512,99.30334
1582558996.070387,130,0,1582558994.101434,41.20591569358319,29.07253040041966,178.6357,0.1245307,8.787549777635517,3,6.000906205260658,-9999,106085.902825875,0.95562744140625,0.1782379150390625,-0.0978240966796875,106085.896783875,1.622854797537698,1.472165718982225,-0.1800738439585864,-0.001633601728826761,0.002204099670052528,-0.02316850423812866,-0.01254165172576904,-0.004921972751617432,-0.002162277698516846,2,-0.5308440096128458,0.412025927780127,0.4937625203781383,0.5519400561773602,0.9790489673614502,0.1791022270917892,-0.0968785434961319,24.69258880615234,16.86500549316406,-15.5213623046875,2,106085.615228875,4,1,1582558995.787303,1582558685.643339,11,0.6387488,0,0,10.91,0,0,1582558765.788069,106082.586848,0,5.152512,99.30334
1582558996.080922,131,0,1582558994.101434,41.20591569358319,29.07253040041966,178.6357,0.1245307,8.787549777635517,3,6.000906205260658,-9999,106085.912866875,0.9426422119140625,0.1840972900390625,-0.0866241455078125,106085.906823875,1.62281327911737,1.472070566609051,-0.1802019705218548,0.003073567524552345,-0.007428795099258423,-0.01474972534924746,-0.02399945259094238,0.0002161264419555664,0.0013161301612854,2,-0.5308417094833812,0.4119737348329313,0.4937437357123248,0.5519980518024096,0.9790169596672058,0.179228276014328,-0.09696944057941437,24.36412811279297,16.84574127197266,-15.60748291015625,2,106085.615228875,4,1,1582558995.787303,1582558685.643339,11,0.6387488,0,0,10.91,0,0,1582558765.788069,106082.586848,0,5.152512,99.30334
1582558996.090401,132,0,1582558994.101434,41.20591569358319,29.07253040041966,178.6357,0.1245307,8.787549777635517,3,6.000906205260658,-9999,106085.922906875,0.9169158935546875,0.1845245361328125,-0.0946197509765625,106085.916863875,1.622750896553335,1.471934961940792,-0.1800371555829973,0.007367648184299469,-0.01271943096071482,0.0166071318089962,-0.04324173927307129,0.005917370319366455,0.01048505306243896,2,-0.5307570977528548,0.4120004170093973,0.4938044383985509,0.552005239451042,0.9790331721305847,0.1790661215782166,-0.09710511565208435,24.36412811279297,16.84574127197266,-15.60748291015625,2,106085.615228875,4,1,1582558995.787303,1582558685.643339,11,0.6387488,0,0,10.91,0,0,1582558765.788069,106083.52307,0,5.152512,99.30334
1582558996.100495,133,0,1582558994.101434,41.20591569358319,29.07253040041966,178.6357,0.1245307,8.787549777635517,3,6.000906205260658,-9999,106085.932946875,0.9178009033203125,0.1706085205078125,-0.1178436279296875,106085.926904875,1.62273859222156,1.472029748482166,-0.179625494242265,0.004493247717618942,0.006589686498045921,0.04092193394899368,-0.06316071748733521,0.004003137350082397,-0.001425981521606445,2,-0.5306823351465026,0.4121485960207277,0.4938806016090827,0.5518984334576748,0.9791157245635986,0.1786611080169678,-0.09701959043741226,24.24776458740234,16.83843231201172,-15.55535888671875,2,106085.615228875,4,1,1582558995.787303,1582558685.643339,11,0.6387488,0,0,10.91,0,0,1582558765.788069,106083.52307,0,5.152512,99.30334
1582558996.119186,134,0,1582558994.101434,41.20591569358319,29.07253040041966,178.6357,0.1245307,8.787549777635517,3,6.000906205260658,-9999,106085.942986875,0.9345550537109375,0.161102294921875,-0.13104248046875,106085.936944875,1.622877038390916,1.472775329092533,-0.1790870800620304,-0.009975173510611057,0.07569365203380585,0.05659756436944008,-0.06074953079223633,-0.01103091239929199,-0.02726280689239502,2,-0.5307699729709155,0.4124727474864042,0.4938578116161779,0.551592153938513,0.9792832732200623,0.1781313270330429,-0.0962989330291748,24.24776458740234,16.83843231201172,-15.55535888671875,2,106085.615228875,4,1,1582558995.787303,1582558685.643339,11,0.6387488,0,0,10.91,0,0,1582558765.788069,106083.52307,0,5.152512,99.30334
1582558996.120532,135,0,1582558994.101434,41.20591569358319,29.07253040041966,178.6357,0.1245307,8.787549777635517,3,6.000906205260658,-9999,106085.953027875,0.9744415283203125,0.1711578369140625,-0.1010894775390625,106085.947015875,1.623147355338137,1.473851184614375,-0.178555457284524,-0.02263445965945721,0.104653537273407,0.05636066943407059,-0.03811931610107422,-0.01534470915794373,-0.03238141536712646,2,-0.5309679613099763,0.4128508112689708,0.4937819507942355,0.5511864966356723,0.9794803857803345,0.1776081770658493,-0.09525446593761444,24.54128265380859,16.82027435302734,-15.58013916015625,2,106085.615228875,4,1,1582558995.787303,1582558685.643339,11,0.6387488,0,0,10.91,0,0,1582558765.788069,106083.52307,0,5.152512,99.30334
1582558996.131237,136,0,1582558994.101434,41.20591569358319,29.07253040041966,178.6357,0.1245307,8.787549777635517,3,6.000906205260658,-9999,106085.963067875,0.98883056640625,0.1788482666015625,-0.0769805908203125,106085.957055875,1.623391208305809,1.47464237350255,-0.178121278869119,-0.02015026286244392,0.07625065743923187,0.04476287215948105,0.001310110092163086,-0.003763109445571899,-0.0002665519714355469,2,-0.5311128638871706,0.4131291399552179,0.4937494968323375,0.5508673771371776,0.9796321392059326,0.1771808862686157,-0.09448687732219696,24.54128265380859,16.82027435302734,-15.58013916015625,2,106085.615228875,4,1,1582558995.787303,1582558685.643339,11,0.6387488,0,0,10.91,0,0,1582558765.788069,106083.52307,0,5.152512,99.30334
1582558996.140614,137,0,1582558994.101434,41.20591569358319,29.07253040041966,178.6357,0.1245307,8.787549777635517,3,6.000906205260658,-9999,106085.973107875,0.944793701171875,0.17791748046875,-0.08966064453125,106085.967095875,1.623527625465276,1.475106418656547,-0.1776749294795745,-0.007381517440080643,0.03910302370786667,0.04362545162439346,0.004819154739379883,0.002489924430847168,0.01785624027252197,2,-0.5311520097131576,0.4133492778990539,0.493777383183026,0.5506395763113138,0.979754626750946,0.1767415851354599,-0.09403983503580093,24.52909088134766,16.85778045654297,-15.5379638671875,2,106085.615228875,4,1,1582558995.787303,1582558685.643339,11,0.6387488,0,0,10.91,0,0,1582558765.788069,106083.52307,0,5.152512,99.30334
1582558996.150594,138,0,1582558995.101427,41.20591721864774,29.07253055115751,178.6634,0.01728866,21.15982871850385,3,6.000906205260658,-9999,106085.983148875,0.8991241455078125,0.1734466552734375,-0.1163330078125,106085.977136875,1.623694952023376,1.475947005985505,-0.1769952535877259,-0.0122812008485198,0.08154928684234619,0.06950844824314117,-0.04770135879516602,0.0007481873035430908,-0.003464162349700928,2,-0.5312364794430414,0.4137318164600794,0.4937729857030381,0.5502744823594555,0.9799525737762451,0.1760725677013397,-0.0932275727391243,24.52909088134766,16.85778045654297,-15.5379638671875,2,106085.615228875,4,1,1582558995.787303,1582558685.643339,11,0.6387488,0,0,10.91,0,0,1582558765.788069,106083.52307,0,5.152512,99.30334
1582558996.160675,139,0,1582558995.101427,41.20591721864774,29.07253055115751,178.6634,0.01728866,21.15982871850385,3,6.000906205260658,-9999,106085.993188875,0.8762969970703125,0.1693878173828125,-0.123260498046875,106085.987176875,1.623896925123111,1.47752312174656,-0.1759841700336896,-0.009477910585701466,0.1483078151941299,0.1017422676086426,-0.08539259433746338,-0.00225403904914856,-0.02629375457763672,2,-0.5314328518613123,0.4144024443276315,0.4936669560245609,0.5496750680192705,0.98027503490448,0.1750771850347519,-0.09169947355985641,24.64990997314453,16.70452117919922,-15.399169921875,2,106085.615228875,4,1,1582558995.787303,1582558685.643339,11,0.6387488,0,0,10.91,0,0,1582558765.788069,106083.52307,0,5.152512,99.30334
1582558996.174225,140,0,1582558995.101427,41.20591721864774,29.07253055115751,178.6634,0.01728866,21.15982871850385,3,6.000906205260658,-9999,106086.003228875,0.8721466064453125,0.16778564453125,-0.1274566650390625,106085.997216875,1.624195794787312,1.480192483276008,-0.1745454349996175,-0.01719069108366966,0.2645904719829559,0.1471180021762848,-0.1099622249603271,-0.005139917135238647,-0.03693008422851562,2,-0.5318200435907595,0.4154694518368793,0.4934055096678884,0.5487291591445775,0.9807662963867188,0.1736605018377304,-0.08910515159368515,24.64990997314453,16.70452117919922,-15.399169921875,2,106085.615228875,4,1,1582558995.787303,1582558685.643339,11,0.6387488,0,0,10.91,0,0,1582558765.788069,106083.52307,0,5.152512,99.30334
1582558996.180855,141,0,1582558995.101427,41.20591721864774,29.07253055115751,178.6634,0.01728866,21.15982871850385,3,6.000906205260658,-9999,106086.013268875,0.9119415283203125,0.1744537353515625,-0.100799560546875,106086.007256875,1.624530906539956,1.483586546891105,-0.1727613231435443,-0.01786444336175919,0.3356295228004456,0.1814858615398407,-0.102906346321106,-0.003321141004562378,-0.03795981407165527,2,-0.5323136166927749,0.4168223334310313,0.4930484975190943,0.5475442021554735,0.9813701510429382,0.1719032227993011,-0.08580271154642105,24.86609649658203,16.65966033935547,-15.24285888671875,2,106085.615228875,4,1,1582558995.787303,1582558685.643339,11,0.6387488,0,0,10.91,0,0,1582558765.788069,106083.52307,0,5.152512,99.30334
1582558996.190768,142,0,1582558995.101427,41.20591721864774,29.07253055115751,178.6634,0.01728866,21.15982871850385,3,6.000906205260658,-9999,106086.023309875,0.93328857421875,0.1775360107421875,-0.0879364013671875,106086.017297875,1.62480036968478,1.4872800249163,-0.1707249915670283,-0.007622192148119211,0.3649069964885712,0.2040124833583832,-0.06392109394073486,0.005674302577972412,-0.0142894983291626,2,-0.532808974970062,0.4183435809914556,0.4926572101215209,0.5462528180822249,0.9820271134376526,0.1698968410491943,-0.08220648765563965,24.86609649658203,16.65966033935547,-15.24285888671875,2,106085.615228875,4,1,1582558995.787303,1582558685.643339,11,0.6387488,0,0,10.91,0,0,1582558765.788069,106083.52307,0,5.152512,99.30334
1582558996.200815,143,0,1582558995.101427,41.20591721864774,29.07253055115751,178.6634,0.01728866,21.15982871850385,3,6.000906205260658,-9999,106086.033349875,0.998809814453125,0.17523193359375,-0.080352783203125,106086.027337875,1.625036260335708,1.491101749708811,-0.168590963283891,-0.006589211989194155,0.3844334781169891,0.2181751430034637,-0.04382026195526123,0.0094107985496521,-0.009088873863220215,2,-0.5333062258145534,0.4199329668551146,0.4922467141177879,0.5449164799620827,0.9826932549476624,0.1677934527397156,-0.07848154753446579,24.90758514404297,16.46873474121094,-15.23675537109375,2,106085.615228875,4,1,1582558995.787303,1582558685.643339,11,0.6387488,0,0,10.91,0,0,1582558765.788069,106083.52307,0,5.152512,99.30334
1582558996.21085,144,0,1582558995.101427,41.20591721864774,29.07253055115751,178.6634,0.01728866,21.15982871850385,3,6.000906205260658,-9999,106086.043389875,1.041030883789062,0.17132568359375,-0.0496978759765625,106086.037377875,1.625181177181863,1.49435121221063,-0.1667749791150354,-0.003339356277137995,0.3240561485290527,0.175325408577919,0.036346435546875,0.008470505475997925,-0.0004193782806396484,2,-0.533716846601217,0.4212965627920563,0.4918823564763954,0.5437898758185346,0.9832454323768616,0.166002944111824,-0.07531106472015381,24.90758514404297,16.46873474121094,-15.23675537109375,2,106085.615228875,4,1,1582558995.787303,1582558685.643339,11,0.6387488,0,0,10.91,0,0,1582558765.788069,106083.52307,0,5.152512,99.30334
1582558996.220887,145,0,1582558995.101427,41.20591721864774,29.07253055115751,178.6634,0.01728866,21.15982871850385,3,6.000906205260658,-9999,106086.053430875,1.006454467773438,0.15936279296875,-0.065582275390625,106086.047418875,1.625242978309405,1.4969655298408,-0.1651423414724713,0.007590441033244133,0.2570742070674896,0.1645161360502243,0.04723656177520752,0.005640804767608643,0.02478486299514771,2,-0.5339960000677813,0.4224549446313984,0.4916176956110347,0.542855555333723,0.9837077856063843,0.1643927395343781,-0.07276017963886261,25.04987335205078,16.10853576660156,-14.95428466796875,2,106085.615228875,4,1,1582558995.787303,1582558685.643339,11,0.6387488,0,0,10.91,0,0,1582558765.788069,106083.52307,0,5.152512,99.30334
1582558996.239251,146,0,1582558995.101427,41.20591721864774,29.07253055115751,178.6634,0.01728866,21.15982871850385,3,6.000906205260658,-9999,106086.063470875,0.9756317138671875,0.1541900634765625,-0.0800628662109375,106086.057458875,1.625338339229609,1.499373969597958,-0.1636667692125965,0.003765076631680131,0.2321853637695312,0.1484796553850174,0.01838082075119019,-0.005934178829193115,0.0006119608879089355,2,-0.53426775843796,0.4235020178691786,0.4913768341576245,0.5419896807669535,0.9841210246086121,0.1629370599985123,-0.07040800899267197,25.04987335205078,16.10853576660156,-14.95428466796875,2,106085.615228875,4,1,1582558995.787303,1582558685.643339,11,0.6387488,0,0,10.91,0,0,1582558765.788069,106083.52307,0,5.152512,99.30334
1582558996.241004,147,0,1582558995.101427,41.20591721864774,29.07253055115751,178.6634,0.01728866,21.15982871850385,3,6.000906205260658,-9999,106086.073510875,0.9700775146484375,0.1566619873046875,-0.0873565673828125,106086.067498875,1.625512690436322,1.50204996246787,-0.1622980426381863,-0.008892715908586979,0.2726997435092926,0.1350231915712357,-0.0133061408996582,-0.006795704364776611,-0.0160907506942749,2,-0.5346465134273095,0.4245684233909871,0.4910583415815526,0.5410698391881205,0.984527587890625,0.1615864783525467,-0.06778951734304428,25.47777557373047,16.12061309814453,-14.8349609375,2,106085.615228875,4,1,1582558995.787303,1582558685.643339,11,0.6387488,0,0,10.91,0,0,1582558765.788069,106083.52307,0,5.152512,99.30334
1582558996.251002,148,0,1582558995.101427,41.20591721864774,29.07253055115751,178.6634,0.01728866,21.15982871850385,3,6.000906205260658,-9999,106086.083550875,0.9815673828125,0.15411376953125,-0.068023681640625,106086.077538875,1.625723670606499,1.504829184614989,-0.1610034335463381,-0.01108343247324228,0.2776875793933868,0.1317033022642136,-0.01408004760742188,-0.003884941339492798,-0.01959240436553955,2,-0.5350754176610985,0.4256300191115145,0.4907027108415279,0.5401335330715491,0.9849200248718262,0.1603087484836578,-0.06506676971912384,25.47777557373047,16.12061309814453,-14.8349609375,2,106085.615228875,4,1,1582558995.787303,1582558685.643339,11,0.6387488,0,0,10.91,0,0,1582558765.788069,106083.52307,0,5.152512,99.30334
1582558996.261137,149,0,1582558995.101427,41.20591721864774,29.07253055115751,178.6634,0.01728866,21.15982871850385,3,6.000906205260658,-9999,106086.093621875,0.995330810546875,0.1540374755859375,-0.0502166748046875,106086.087579875,1.625937589099862,1.507377247789732,-0.1598373595473467,-0.01222472637891769,0.2531766593456268,0.1186317801475525,-0.0008483529090881348,-0.005510717630386353,-0.001171290874481201,2,-0.5354777159255624,0.4265902662290661,0.490376401414357,0.5392728992287947,0.9852684140205383,0.1591576486825943,-0.06256872415542603,25.55020904541016,16.09011840820312,-14.677001953125,2,106085.615228875,4,1,1582558995.787303,1582558685.643339,11,0.6387488,0,0,10.91,0,0,1582558765.788069,106083.52307,0,5.152512,99.30334
1582558996.271113,150,0,1582558995.101427,41.20591721864774,29.07253055115751,178.6634,0.01728866,21.15982871850385,3,6.000906205260658,-9999,106086.103661875,1.011932373046875,0.15350341796875,-0.042510986328125,106086.097619875,1.626156126849009,1.509452720810938,-0.1588189930681282,-0.01577525213360786,0.2071348875761032,0.1037598848342896,0.01238197088241577,-0.004215002059936523,0.01183855533599854,2,-0.5357989847092128,0.4273788067878814,0.4901398115551112,0.5385442354562341,0.9855576157569885,0.1581521779298782,-0.06053360551595688,25.55020904541016,16.09011840820312,-14.677001953125,2,106085.615228875,4,1,1582558995.787303,1582558685.643339,11,0.6387488,0,0,10.91,0,0,1582558765.788069,106083.52307,0,5.152512,99.30334
1582558996.281338,151,0,1582558995.101427,41.20591721864774,29.07253055115751,178.6634,0.01728866,21.15982871850385,3,6.000906205260658,-9999,106086.113702875,1.009918212890625,0.1544342041015625,-0.0405426025390625,106086.107659875,1.626378112627688,1.510898423559863,-0.1579393562098314,-0.01707801222801208,0.1412504613399506,0.08824620395898819,0.02852964401245117,-0.00381922721862793,0.0177457332611084,2,-0.5359986415550215,0.4279567102949578,0.4900370613741066,0.5379797622003388,0.9857825040817261,0.1572835445404053,-0.05911701917648315,25.44530487060547,15.88506317138672,-14.8016357421875,2,106085.615228875,4,1,1582558995.787303,1582558685.643339,11,0.6387488,0,0,10.91,0,0,1582558765.788069,106083.52307,0,5.152512,99.30334
1582558996.300355,152,0,1582558995.101427,41.20591721864774,29.07253055115751,178.6634,0.01728866,21.15982871850385,3,6.000906205260658,-9999,106086.123742875,0.9840545654296875,0.15692138671875,-0.0494232177734375,106086.117700875,1.626618919585067,1.511851320141563,-0.1570565838450425,-0.01846551895141602,0.08811773359775543,0.09063452482223511,0.01918035745620728,-0.001253485679626465,0.01649391651153564,2,-0.5360809468762157,0.4283973852144671,0.4900721011061929,0.5375148255619782,0.98597651720047,0.1564116925001144,-0.05818579718470573,25.44530487060547,15.88506317138672,-14.8016357421875,2,106085.615228875,4,1,1582558995.787303,1582558685.643339,11,0.6387488,0,0,10.91,0,0,1582558765.788069,106083.52307,0,5.152512,99.30334
1582558996.30128,153,0,1582558995.101427,41.20591721864774,29.07253055115751,178.6634,0.01728866,21.15982871850385,3,6.000906205260658,-9999,106086.133782875,0.9680938720703125,0.1551666259765625,-0.0595245361328125,106086.127740875,1.626897656955524,1.512663777163555,-0.1561399941195888,-0.02171836234629154,0.07602079957723618,0.09242094308137894,-0.006521940231323242,0.00113224983215332,0.004912972450256348,2,-0.5361292999943417,0.428799329856981,0.4901635067190553,0.5370625075669662,0.9861661195755005,0.1555063277482986,-0.05739301815629005,25.39585113525391,16.15003967285156,-14.90655517578125,2,106085.615228875,4,1,1582558995.787303,1582558685.643339,11,0.6387488,0,0,10.91,0,0,1582558765.788069,106083.52307,0,5.152512,99.30334
1582558996.311264,154,0,1582558995.101427,41.20591721864774,29.07253055115751,178.6634,0.01728866,21.15982871850385,3,6.000906205260658,-9999,106086.143823875,0.9559326171875,0.155792236328125,-0.058868408203125,106086.137780875,1.627193571762599,1.513468235725122,-0.1551364775697767,-0.02384196780622005,0.07519868016242981,0.101571299135685,-0.02124929428100586,0.0002470910549163818,-0.003454804420471191,2,-0.5361594716453556,0.4292187380516789,0.490283822648188,0.5365875051952983,0.9863674640655518,0.1545149385929108,-0.05660859122872353,25.39585113525391,16.15003967285156,-14.90655517578125,2,106085.615228875,4,1,1582558995.787303,1582558685.643339,11,0.6387488,0,0,10.91,0,0,1582558765.788069,106083.52307,0,5.152512,99.30334
1582558996.321328,155,0,1582558995.101427,41.20591721864774,29.07253055115751,178.6634,0.01728866,21.15982871850385,3,6.000906205260658,-9999,106086.153863875,0.945343017578125,0.159423828125,-0.0601959228515625,106086.147820875,1.627406361038243,1.514368483650011,-0.1540448324187589,-0.01453268248587847,0.0864860936999321,0.1093853712081909,-0.03297293186187744,0.003126531839370728,-0.003280997276306152,2,-0.5361752448913192,0.4297104551621037,0.4903784365128814,0.536091324818981,0.9865856766700745,0.1534363180398941,-0.05573006346821785,25.58774566650391,15.99234771728516,-14.72491455078125,2,106085.615228875,4,1,1582558995.787303,1582558685.643339,11,0.6387488,0,0,10.91,0,0,1582558765.788069,106083.52307,0,5.152512,99.30334
1582558996.331531,156,0,1582558995.101427,41.20591721864774,29.07253055115751,178.6634,0.01728866,21.15982871850385,3,6.000906205260658,-9999,106086.163903875,0.939605712890625,0.1544952392578125,-0.0680999755859375,106086.157861875,1.62751099790205,1.515570000687194,-0.152909759200512,-0.004775393288582563,0.1182464137673378,0.1152845397591591,-0.04361891746520996,0.006873100996017456,-0.007111907005310059,2,-0.5362316524350647,0.4303237250634534,0.4903744076120798,0.5355465892792814,0.9868253469467163,0.1523145884275436,-0.05455421283841133,25.58774566650391,15.99234771728516,-14.72491455078125,2,106085.615228875,4,1,1582558995.787303,1582558685.643339,11,0.6387488,0,0,10.91,0,0,1582558765.788069,106083.52307,0,5.152512,99.30334
1582558996.341496,157,0,1582558995.101427,41.20591721864774,29.07253055115751,178.6634,0.01728866,21.15982871850385,3,6.000906205260658,-9999,106086.173943875,0.952789306640625,0.1389007568359375,-0.070556640625,106086.167901875,1.627543871005938,1.517288269601562,-0.151900339552758,0.001751221367157996,0.1745074987411499,0.1016539260745049,-0.04703819751739502,0.0005926787853240967,-0.01702427864074707,2,-0.5364281998456847,0.4310585063491113,0.490180372243668,0.5349361766081957,0.9870707392692566,0.1513168662786484,-0.05286670103669167,25.66672515869141,15.98773193359375,-14.60028076171875,2,106085.615228875,4,1,1582558995.787303,1582558685.643339,11,0.6387488,0,0,10.91,0,0,1582558765.788069,106083.52307,0,5.152512,99.30334
1582558996.361311,158,0,1582558995.101427,41.20591721864774,29.07253055115751,178.6634,0.01728866,21.15982871850385,3,6.000906205260658,-9999,106086.183984875,0.973907470703125,0.1357574462890625,-0.0559844970703125,106086.177941875,1.627547152322159,1.519268788208119,-0.1511165619489178,0.005356076173484325,0.1976005733013153,0.07754912227392197,-0.03032183647155762,-0.01393696665763855,-0.0175546407699585,2,-0.5367343176586794,0.4318071134504567,0.4898502386760868,0.5343273939763273,0.9872916340827942,0.1505420655012131,-0.05091777816414833,25.66672515869141,15.98773193359375,-14.60028076171875,2,106085.615228875,4,1,1582558995.787303,1582558685.643339,11,0.6387488,0,0,10.91,0,0,1582558765.788069,106083.52307,0,5.152512,99.30334
1582558996.364852,159,0,1582558995.101427,41.20591721864774,29.07253055115751,178.6634,0.01728866,21.15982871850385,3,6.000906205260658,-9999,106086.194024875,0.981292724609375,0.1362762451171875,-0.0500640869140625,106086.187982875,1.627548415260954,1.521240056320424,-0.1505850072257317,0.001967505784705281,0.1949574649333954,0.05264223739504814,-0.01096904277801514,-0.01371654868125916,-0.00494086742401123,2,-0.5370953508527422,0.432482225767346,0.4894573060359265,0.5337783267431861,0.9874697923660278,0.1500165462493896,-0.04897541552782059,25.69065093994141,16.14797210693359,-14.53179931640625,2,106085.615228875,4,1,1582558995.787303,1582558685.643339,11,0.6387488,0,0,10.91,0,0,1582558765.788069,106083.52307,0,5.152512,99.30334
1582558996.371549,160,0,1582558995.101427,41.20591721864774,29.07253055115751,178.6634,0.01728866,21.15982871850385,3,6.000906205260658,-9999,106086.204064875,0.979278564453125,0.1296539306640625,-0.0621490478515625,106086.198052875,1.627534281847126,1.523346685681355,-0.1503840057462369,0.001565368380397558,0.2053059786558151,0.01955805346369743,-0.006980419158935547,-0.0151810348033905,-0.004716455936431885,2,-0.537561549639388,0.4331042938723773,0.4889389805456292,0.5332793606966562,0.9876007437705994,0.1498178094625473,-0.04689650237560272,25.69065093994141,16.14797210693359,-14.53179931640625,2,106085.615228875,4,1,1582558995.787303,1582558685.643339,11,0.6387488,0,0,10.91,0,0,1582558765.788069,106083.52307,0,5.152512,99.30334
1582558996.381857,161,0,1582558995.101427,41.20591721864774,29.07253055115751,178.6634,0.01728866,21.15982871850385,3,6.000906205260658,-9999,106086.214105875,0.9864654541015625,0.1371612548828125,-0.0530548095703125,106086.208093875,1.627494833320267,1.525760105927295,-0.1505071255017283,0.003208421403542161,0.2447586357593536,-0.01198915578424931,-0.008628487586975098,-0.01954469084739685,-0.01907938718795776,2,-0.5381707521701971,0.4337236678615748,0.4882478836136608,0.5327945338591208,0.987692654132843,0.1499395370483398,-0.04451204463839531,25.62648773193359,15.92253875732422,-14.3114013671875,2,106085.615228875,4,1,1582558995.787303,1582558685.643339,11,0.6387488,0,0,10.91,0,0,1582558765.788069,106083.52307,0,5.152512,99.30334
