loggingTime,loggingSample,identifierForVendor,locationTimestamp_since1970,locationLatitude,locationLongitude,locationAltitude,locationSpeed,locationCourse,locationVerticalAccuracy,locationHorizontalAccuracy,locationFloor,accelerometerTimestamp_sinceReboot,accelerometerAccelerationX,accelerometerAccelerationY,accelerometerAccelerationZ,motionTimestamp_sinceReboot,motionYaw,motionRoll,motionPitch,motionRotationRateX,motionRotationRateY,motionRotationRateZ,motionUserAccelerationX,motionUserAccelerationY,motionUserAccelerationZ,motionAttitudeReferenceFrame,motionQuaternionX,motionQuaternionY,motionQuaternionZ,motionQuaternionW,motionGravityX,motionGravityY,motionGravityZ,motionMagneticFieldX,motionMagneticFieldY,motionMagneticFieldZ,motionMagneticFieldCalibrationAccuracy,activityTimestamp_sinceReboot,activity,activityActivityConfidence,activityActivityStartDate,pedometerStartDate,pedometerNumberofSteps,pedometerAverageActivePace,pedometerCurrentPace,pedometerCurrentCadence,pedometerDistance,pedometerFloorAscended,pedometerFloorDescended,pedometerEndDate,altimeterTimestamp_sinceReboot,altimeterReset,altimeterRelativeAltitude,altimeterPressure
1580908431.369663,1,0,1580907286.99823,41.20781296037784,29.0754925099451,275.2123,0.1345286,-1,23.46983528137207,200,-9999,12147.129366875,0.9625244140625,0.091552734375,-0.1742095947265625,12147.119326875,1.086033459264246,1.396860583579706,-0.0975854739968446,0.003984703682363033,0.01985051296651363,0.005308778025209904,-0.01948857307434082,-0.006570339202880859,-0.0004339218139648438,2,-0.363844797251366,0.5305644480946088,0.3684104108378412,0.6711125194397159,0.9802253246307373,0.09743066132068634,-0.1722366660833359,42.43878936767578,34.71490859985352,29.41354370117188,2,12146.668001875,2,0,1580908430.909168,1580903939.50652,2808,0.4880329,0,0,3367.699,14,15,1580908426.810263,12143.822794,0,18.50153,96.98838
1580908431.370938,2,0,1580907286.99823,41.20781296037784,29.0754925099451,275.2123,0.1345286,-1,23.46983528137207,200,-9999,12147.139407875,0.968719482421875,0.0930023193359375,-0.170166015625,12147.129366875,1.086039177436273,1.39702748580065,-0.09754018638712765,-0.0004593133926391602,0.01649226807057858,0.003674395382404327,-0.02225327491760254,-0.006219923496246338,-0.005251169204711914,2,-0.363862537100586,0.5306289938776614,0.3683948746917484,0.6710605598483544,0.980258584022522,0.09738559275865555,-0.1720738559961319,42.42674255371094,34.89320373535156,29.59115600585938,2,12146.668001875,2,0,1580908430.909168,1580903939.50652,2808,0.4880329,0,0,3367.699,14,15,1580908426.810263,12143.822794,0,18.50153,96.98838
1580908431.37195,3,0,1580907286.99823,41.20781296037784,29.0754925099451,275.2123,0.1345286,-1,23.46983528137207,200,-9999,12147.149447875,0.9665069580078125,0.0920867919921875,-0.169464111328125,12147.139407875,1.086008688636325,1.397102309018486,-0.09751770182708867,0.00292492937296629,0.008281581103801727,0.0008968748152256012,-0.01497459411621094,-0.004778444766998291,-0.001433372497558594,2,-0.3638610540742445,0.5306643889105114,0.3683774300804331,0.6710429390025745,0.9802736043930054,0.09736321121454239,-0.1720008850097656,42.42674255371094,34.89320373535156,29.59115600585938,2,12146.668001875,2,0,1580908430.909168,1580903939.50652,2808,0.4880329,0,0,3367.699,14,15,1580908426.810263,12143.822794,0,18.50153,96.98838
1580908431.373473,4,0,1580907286.99823,41.20781296037784,29.0754925099451,275.2123,0.1345286,-1,23.46983528137207,200,-9999,12147.159487875,0.9614410400390625,0.0912933349609375,-0.1736907958984375,12147.149447875,1.085983793677565,1.397083438950655,-0.09750316625589135,0.002405879087746143,-0.002935387194156647,0.0006497334688901901,-0.01691055297851562,-0.005465805530548096,-0.0003007650375366211,2,-0.3638463394471743,0.5306656504617833,0.3683766444391032,0.6710503286601639,0.9802716970443726,0.09734874963760376,-0.1720196157693863,42.54918670654297,34.80599594116211,29.53033447265625,2,12146.668001875,2,0,1580908430.909168,1580903939.50652,2808,0.4880329,0,0,3367.699,14,15,1580908426.810263,12143.822794,0,18.50153,96.98838
1580908431.374371,5,0,1580907286.99823,41.20781296037784,29.0754925099451,275.2123,0.1345286,-1,23.46983528137207,200,-9999,12147.169558875,0.95574951171875,0.0912628173828125,-0.1774749755859375,12147.159487875,1.085970576929534,1.397126815887891,-0.09749256806501778,0.001727714203298092,0.003991525620222092,0.0004564700648188591,-0.02126789093017578,-0.006553888320922852,-0.003929257392883301,2,-0.3638474908318752,0.5306848222388116,0.3683673164347646,0.6710395154435376,0.9802800416946411,0.09733819961547852,-0.1719772517681122,42.54918670654297,34.80599594116211,29.53033447265625,2,12146.668001875,2,0,1580908430.909168,1580903939.50652,2808,0.4880329,0,0,3367.699,14,15,1580908426.810263,12143.822794,0,18.50153,96.98838
1580908431.382505,6,0,1580907286.99823,41.20781296037784,29.0754925099451,275.2123,0.1345286,-1,23.46983528137207,200,-9999,12147.179598875,0.96258544921875,0.0919036865234375,-0.172821044921875,12147.169558875,1.085966020045489,1.397304445344504,-0.09747729927864958,0.0007529975846409798,0.01859044097363949,0.001404555514454842,-0.02828860282897949,-0.006447106599807739,-0.008635401725769043,2,-0.3638740511381504,0.5307484994135767,0.368337841978918,0.6709911248146503,0.9803122282028198,0.09732300043106079,-0.1718034148216248,42.52201843261719,34.91181182861328,29.52200317382812,2,12146.668001875,2,0,1580908430.909168,1580903939.50652,2808,0.4880329,0,0,3367.699,14,15,1580908426.810263,12144.766354,0,18.46716,96.98878
1580908431.392679,7,0,1580907286.99823,41.20781296037784,29.0754925099451,275.2123,0.1345286,-1,23.46983528137207,200,-9999,12147.189638875,0.966461181640625,0.092071533203125,-0.16943359375,12147.179598875,1.085957449482751,1.397503591021345,-0.09745943007402928,0.001984516158699989,0.02114149741828442,0.001880237832665443,-0.02177858352661133,-0.00589519739151001,-0.004558742046356201,2,-0.3639028081475741,0.5308206118022673,0.3683037981791547,0.6709369968364739,0.9803479313850403,0.09730521589517593,-0.1716084480285645,42.52201843261719,34.91181182861328,29.52200317382812,2,12146.668001875,2,0,1580908430.909168,1580903939.50652,2808,0.4880329,0,0,3367.699,14,15,1580908426.810263,12144.766354,0,18.46716,96.98878
1580908431.402717,8,0,1580907286.99823,41.20781296037784,29.0754925099451,275.2123,0.1345286,-1,23.46983528137207,200,-9999,12147.199679875,0.962310791015625,0.09246826171875,-0.1706695556640625,12147.189638875,1.085980661600717,1.397644253739385,-0.097432749006114,-0.001218201126903296,0.01240153424441814,0.00294124148786068,-0.01741063594818115,-0.005303889513015747,-0.001095414161682129,2,-0.3639263303556055,0.530869213599245,0.368293594242854,0.6708914494484828,0.9803746938705444,0.0972786620259285,-0.1714710146188736,42.50871276855469,34.68747711181641,29.39529418945312,2,12146.668001875,2,0,1580908430.909168,1580903939.50652,2808,0.4880329,0,0,3367.699,14,15,1580908426.810263,12144.766354,0,18.46716,96.98878
1580908431.431087,9,0,1580907286.99823,41.20781296037784,29.0754925099451,275.2123,0.1345286,-1,23.46983528137207,200,-9999,12147.209719875,0.9580841064453125,0.0946502685546875,-0.171722412109375,12147.199679875,1.086030227807653,1.397791942865299,-0.09735937271400251,-0.004215103108435869,0.01460359804332256,0.007896793074905872,-0.02101367712020874,-0.005261212587356567,-0.001865029335021973,2,-0.3639432555540359,0.530925214853546,0.3683042375501984,0.670832117289064,0.9804070591926575,0.09720563888549805,-0.1713274419307709,42.50871276855469,34.68747711181641,29.39529418945312,2,12146.668001875,2,0,1580908430.909168,1580903939.50652,2808,0.4880329,0,0,3367.699,14,15,1580908426.810263,12144.766354,0,18.46716,96.98878
1580908431.432331,10,0,1580907286.99823,41.20781296037784,29.0754925099451,275.2123,0.1345286,-1,23.46983528137207,200,-9999,12147.219759875,0.9619598388671875,0.0938262939453125,-0.17041015625,12147.209719875,1.08605890519303,1.397956948419108,-0.09722446537912055,-0.0004326151683926582,0.01642919518053532,0.01374269742518663,-0.02558684349060059,-0.002883404493331909,-0.003581583499908447,2,-0.3639382035992459,0.5310037904715358,0.368322235133439,0.6707627397445117,0.9804481863975525,0.09707136452198029,-0.1711679100990295,42.58136749267578,34.65177917480469,29.36984252929688,2,12146.668001875,2,0,1580908430.909168,1580903939.50652,2808,0.4880329,0,0,3367.699,14,15,1580908426.810263,12144.766354,0,18.46716,96.98878
1580908431.433462,11,0,1580907286.99823,41.20781296037784,29.0754925099451,275.2123,0.1345286,-1,23.46983528137207,200,-9999,12147.229800875,0.9651641845703125,0.09320068359375,-0.1689605712890625,12147.219759875,1.086079164832358,1.398086869827152,-0.09706998591789694,0.0001500053331255913,0.01223272457718849,0.01561184599995613,-0.02274006605148315,-0.003156363964080811,-0.002333521842956543,2,-0.3639181935056361,0.5310762589757779,0.3683493740459344,0.6707013278104574,0.980485200881958,0.09691761434078217,-0.1710431128740311,42.58136749267578,34.65177917480469,29.36984252929688,2,12146.668001875,2,0,1580908430.909168,1580903939.50652,2808,0.4880329,0,0,3367.699,14,15,1580908426.810263,12144.766354,0,18.46716,96.98878
1580908431.442951,12,0,1580907286.99823,41.20781296037784,29.0754925099451,275.2123,0.1345286,-1,23.46983528137207,200,-9999,12147.239840875,0.9623870849609375,0.0911865234375,-0.172607421875,12147.229800875,1.0860965861361,1.39817224857762,-0.09691436191224471,-1.857243478298187e-05,0.007608942687511444,0.01571144908666611,-0.01861941814422607,-0.003840148448944092,-0.0009197592735290527,2,-0.3638888711107805,0.5311345378136469,0.368383990245005,0.6706520630980484,0.9805146455764771,0.09676272422075272,-0.1709619909524918,42.51979827880859,34.69622039794922,29.38351440429688,2,12146.668001875,2,0,1580908430.909168,1580903939.50652,2808,0.4880329,0,0,3367.699,14,15,1580908426.810263,12144.766354,0,18.46716,96.98878
1580908431.452877,13,0,1580907286.99823,41.20781296037784,29.0754925099451,275.2123,0.1345286,-1,23.46983528137207,200,-9999,12147.249880875,0.9664154052734375,0.0901947021484375,-0.172760009765625,12147.239840875,1.086080759834197,1.398302075127594,-0.09677805314047755,0.004563253372907639,0.01291300728917122,0.01310368720442057,-0.02144706249237061,-0.005641847848892212,-0.004447698593139648,2,-0.3638650162915557,0.5312097152235987,0.3683938929273869,0.6706001697330559,0.9805499315261841,0.09662705659866333,-0.1708369702100754,42.51979827880859,34.69622039794922,29.38351440429688,2,12146.668001875,2,0,1580908430.909168,1580903939.50652,2808,0.4880329,0,0,3367.699,14,15,1580908426.810263,12144.766354,0,18.46716,96.98878
1580908431.463055,14,0,1580907286.99823,41.20781296037784,29.0754925099451,275.2123,0.1345286,-1,23.46983528137207,200,-9999,12147.259951875,0.9746246337890625,0.0894012451171875,-0.1670379638671875,12147.249880875,1.086051051979681,1.398459676694798,-0.09670739388259371,0.003553383052349091,0.01776714995503426,0.006216485984623432,-0.01853597164154053,-0.006746232509613037,-0.005502104759216309,2,-0.3638636461002583,0.5312828391343671,0.3683753629335799,0.6705530316214536,0.9805834293365479,0.09655672311782837,-0.1706835776567459,42.46840667724609,34.76821136474609,29.35464477539062,2,12146.668001875,2,0,1580908430.909168,1580903939.50652,2808,0.4880329,0,0,3367.699,14,15,1580908426.810263,12144.766354,0,18.46716,96.98878
1580908431.484316,15,0,1580907286.99823,41.20781296037784,29.0754925099451,275.2123,0.1345286,-1,23.46983528137207,200,-9999,12147.269991875,0.9721832275390625,0.0910491943359375,-0.16741943359375,12147.259951875,1.086009044353245,1.398495513314715,-0.09669406729720599,0.004486509598791599,0.004186378791928291,-0.0003326404839754105,-0.009815216064453125,-0.007343262434005737,0.0003377199172973633,2,-0.3638547850713281,0.5313053271898169,0.3683585709490612,0.6705493818190681,0.9805909991264343,0.09654346108436584,-0.1706486940383911,42.46840667724609,34.76821136474609,29.35464477539062,2,12146.668001875,2,0,1580908430.909168,1580903939.50652,2808,0.4880329,0,0,3367.699,14,15,1580908426.810263,12144.766354,0,18.46716,96.98878
1580908431.4856,16,0,1580907286.99823,41.20781296037784,29.0754925099451,275.2123,0.1345286,-1,23.46983528137207,200,-9999,12147.280032875,0.965728759765625,0.0927581787109375,-0.168487548828125,12147.269991875,1.085964189788177,1.398382697265951,-0.09669174383409671,0.004272391088306904,-0.01018057577311993,-0.0008357120677828789,-0.0111846923828125,-0.006089776754379272,0.0005857944488525391,2,-0.3638214145079622,0.5312761232681699,0.3683646941100629,0.67058708130435,0.9805717468261719,0.0965411439538002,-0.1707593202590942,42.49183654785156,34.72581481933594,29.45095825195312,2,12146.668001875,2,0,1580908430.909168,1580903939.50652,2808,0.4880329,0,0,3367.699,14,15,1580908426.810263,12144.766354,0,18.46716,96.98878
1580908431.493154,17,0,1580907286.99823,41.20781296037784,29.0754925099451,275.2123,0.1345286,-1,23.46983528137207,200,-9999,12147.29004875,0.953277587890625,0.0858306884765625,-0.178131103515625,12147.280032875,1.08591961513141,1.39821502906265,-0.09670755082966054,0.00481831282377243,-0.0174703560769558,-0.001789906527847052,-0.01741057634353638,-0.003725141286849976,-0.0002717971801757812,2,-0.363783724940145,0.5312246846025503,0.3683757508722889,0.6706422408595194,0.9805416464805603,0.0965568795800209,-0.1709234714508057,42.49183654785156,34.72581481933594,29.45095825195312,2,12146.668001875,2,0,1580908430.909168,1580903939.50652,2808,0.4880329,0,0,3367.699,14,15,1580908426.810263,12144.766354,0,18.46716,96.98878
1580908431.503157,18,0,1580907286.99823,41.20781296037784,29.0754925099451,275.2123,0.1345286,-1,23.46983528137207,200,-9999,12147.30008875,0.953033447265625,0.090667724609375,-0.179046630859375,12147.29004875,1.085914517286829,1.398259885007795,-0.09677228554175447,-0.001467013731598854,0.005491949617862701,-0.006268544122576714,-0.02964961528778076,-0.01067152619361877,-0.009075522422790527,2,-0.3638113008350011,0.5312270045931498,0.3683474492760362,0.6706409833766465,0.9805431365966797,0.0966213122010231,-0.1708784103393555,42.42253875732422,34.86277008056641,29.51290893554688,2,12146.668001875,2,0,1580908430.909168,1580903939.50652,2808,0.4880329,0,0,3367.699,14,15,1580908426.810263,12144.766354,0,18.46716,96.98878
1580908431.513101,19,0,1580907286.99823,41.20781296037784,29.0754925099451,275.2123,0.1345286,-1,23.46983528137207,200,-9999,12147.31012875,0.96136474609375,0.0920562744140625,-0.1704864501953125,12147.30008875,1.085918768430317,1.398492632237333,-0.09682268055274658,-0.001998049207031727,0.02496938966214657,-0.00432833656668663,-0.03169882297515869,-0.006876617670059204,-0.01231133937835693,2,-0.3638713800325942,0.5312936486201857,0.3682921825444795,0.6705859454459332,0.9805780649185181,0.09667146950960159,-0.1706493496894836,42.42253875732422,34.86277008056641,29.51290893554688,2,12146.668001875,2,0,1580908430.909168,1580903939.50652,2808,0.4880329,0,0,3367.699,14,15,1580908426.810263,12144.766354,0,18.46716,96.98878
1580908431.52317,20,0,1580907286.99823,41.20781296037784,29.0754925099451,275.2123,0.1345286,-1,23.46983528137207,200,-9999,12147.32016975,0.9617919921875,0.0937652587890625,-0.1705474853515625,12147.31012875,1.085925072642591,1.398707869850143,-0.09684037059843795,-0.001147701870650053,0.02226095460355282,-0.002072372939437628,-0.02332639694213867,-0.005093783140182495,-0.003291845321655273,2,-0.3639183183822513,0.531360943874039,0.3682501016771864,0.6705303054251899,0.9806131720542908,0.09668908268213272,-0.1704380065202713,42.43090057373047,34.77753067016602,29.53787231445312,2,12146.668001875,2,0,1580908430.909168,1580903939.50652,2808,0.4880329,0,0,3367.699,14,15,1580908426.810263,12144.766354,0,18.46716,96.98878
1580908431.549446,21,0,1580907286.99823,41.20781296037784,29.0754925099451,275.2123,0.1345286,-1,23.46983528137207,200,-9999,12147.33020975,0.9602203369140625,0.0925750732421875,-0.17083740234375,12147.32016975,1.085932606926496,1.398869976971462,-0.09683550522947473,-0.0007702065631747246,0.01549448631703854,0.0006505325436592102,-0.02207279205322266,-0.003303647041320801,-0.003084897994995117,2,-0.3639485747553682,0.5314149626964322,0.3682245291730962,0.6704852268680755,0.9806413650512695,0.09668423980474472,-0.1702791452407837,42.43090057373047,34.77753067016602,29.53787231445312,2,12146.668001875,2,0,1580908430.909168,1580903939.50652,2808,0.4880329,0,0,3367.699,14,15,1580908426.810263,12144.766354,0,18.46716,96.98878
1580908431.551048,22,0,1580907286.99823,41.20781296037784,29.0754925099451,275.2123,0.1345286,-1,23.46983528137207,200,-9999,12147.34024975,0.9598388671875,0.0921630859375,-0.1709136962890625,12147.33020975,1.085922963935019,1.399031628562531,-0.09680791506019115,0.002095887437462807,0.01539888046681881,0.001936573535203934,-0.02391898632049561,-0.004298418760299683,-0.003808319568634033,2,-0.3639670031411107,0.5314767086102434,0.3681997263762173,0.6704398046633752,0.9806714057922363,0.09665677696466446,-0.1701210588216782,42.52852630615234,34.76930999755859,29.47427368164062,2,12146.668001875,2,0,1580908430.909168,1580903939.50652,2808,0.4880329,0,0,3367.699,14,15,1580908426.810263,12144.766354,0,18.46716,96.98878
1580908431.553202,23,0,1580907286.99823,41.20781296037784,29.0754925099451,275.2123,0.1345286,-1,23.46983528137207,200,-9999,12147.35028975,0.9556732177734375,0.091796875,-0.173858642578125,12147.34024975,1.085914430913992,1.399243647314748,-0.096734232642863,0.002967540174722672,0.01991693116724491,0.007022944279015064,-0.02388596534729004,-0.004774123430252075,-0.003664731979370117,2,-0.3639802381170485,0.5315648669964006,0.3681792777008335,0.6703739988947796,0.9807144999504089,0.09658344089984894,-0.1699143499135971,42.52852630615234,34.76930999755859,29.47427368164062,2,12146.668001875,2,0,1580908430.909168,1580903939.50652,2808,0.4880329,0,0,3367.699,14,15,1580908426.810263,12144.766354,0,18.46716,96.98878
1580908431.563463,24,0,1580907286.99823,41.20781296037784,29.0754925099451,275.2123,0.1345286,-1,23.46983528137207,200,-9999,12147.36036075,0.95941162109375,0.090606689453125,-0.1723785400390625,12147.35028975,1.085913643674993,1.399595676175102,-0.09663558744613683,0.001687624491751194,0.03541412949562073,0.009550283662974834,-0.02824300527572632,-0.004767149686813354,-0.007030844688415527,2,-0.3640133636052413,0.5317037794078666,0.3681430478225386,0.670265712753204,0.9807835817337036,0.09648525714874268,-0.169570729136467,42.40148162841797,34.84069442749023,29.55380249023438,2,12146.668001875,2,0,1580908430.909168,1580903939.50652,2808,0.4880329,0,0,3367.699,14,15,1580908426.810263,12144.766354,0,18.46716,96.98878
1580908431.573499,25,0,1580907286.99823,41.20781296037784,29.0754925099451,275.2123,0.1345286,-1,23.46983528137207,200,-9999,12147.37040175,0.967193603515625,0.089447021484375,-0.168853759765625,12147.36036075,1.085908774273373,1.400040554885166,-0.09654534113923438,0.001170560717582703,0.04410373046994209,0.008744331076741219,-0.02556538581848145,-0.006050348281860352,-0.006612777709960938,2,-0.36406517216356,0.531872752846015,0.3680861530763902,0.6701347123265085,0.9808675050735474,0.09639542549848557,-0.1691358536481857,42.40148162841797,34.84069442749023,29.55380249023438,2,12146.668001875,2,0,1580908430.909168,1580903939.50652,2808,0.4880329,0,0,3367.699,14,15,1580908426.810263,12144.766354,0,18.46716,96.98878
1580908431.583542,26,0,1580907286.99823,41.20781296037784,29.0754925099451,275.2123,0.1345286,-1,23.46983528137207,200,-9999,12147.38044175,0.971038818359375,0.088958740234375,-0.16748046875,12147.37040175,1.085892582606154,1.400461744837361,-0.09650221036259082,0.001734618097543716,0.04169277474284172,0.003849441185593605,-0.01778256893157959,-0.007151603698730469,-0.00318145751953125,2,-0.3641246354910214,0.5320258925439726,0.3680163392288541,0.6700191265801785,0.9809426665306091,0.09635249525308609,-0.1687234044075012,42.40348815917969,34.87224578857422,29.55355834960938,2,12146.668001875,2,0,1580908430.909168,1580903939.50652,2808,0.4880329,0,0,3367.699,14,15,1580908426.810263,12144.766354,0,18.46716,96.98878
1580908431.608733,27,0,1580907286.99823,41.20781296037784,29.0754925099451,275.2123,0.1345286,-1,23.46983528137207,200,-9999,12147.39048175,0.9736480712890625,0.08953857421875,-0.1653289794921875,12147.38044175,1.08586835830413,1.4008250152668,-0.09651722742665288,0.001920385286211967,0.03819367289543152,-0.001930336933583021,-0.01367700099945068,-0.007822781801223755,-0.002013444900512695,2,-0.3641897779968998,0.5321488488252075,0.367937813242116,0.6699293087754215,0.9810026288032532,0.09636744856834412,-0.1683668196201324,42.40348815917969,34.87224578857422,29.55355834960938,2,12146.668001875,2,0,1580908430.909168,1580903939.50652,2808,0.4880329,0,0,3367.699,14,15,1580908426.810263,12144.766354,0,18.46716,96.98878
1580908431.610114,28,0,1580907286.99823,41.20781296037784,29.0754925099451,275.2123,0.1345286,-1,23.46983528137207,200,-9999,12147.40052175,0.9715576171875,0.093505859375,-0.1639404296875,12147.39048175,1.085847604535072,1.401083564750812,-0.0965695046135915,0.001367778517305851,0.02744941599667072,-0.006832949817180634,-0.01063334941864014,-0.007295131683349609,-0.0003309249877929688,2,-0.3642484985518666,0.5322282155715294,0.3678688660883513,0.6698721627876412,0.9810410737991333,0.09641947597265244,-0.1681123226881027,42.42793273925781,34.76802444458008,29.59356689453125,2,12146.668001875,2,0,1580908430.909168,1580903939.50652,2808,0.4880329,0,0,3367.699,14,15,1580908426.810263,12144.766354,0,18.46716,96.98878
1580908431.613592,29,0,1580907286.99823,41.20781296037784,29.0754925099451,275.2123,0.1345286,-1,23.46983528137207,200,-9999,12147.41056275,0.9644622802734375,0.096954345703125,-0.1657257080078125,12147.40052175,1.085832318026884,1.401192754971576,-0.09656649841373924,0.0007733609527349472,0.009644588455557823,-0.0001627970486879349,-0.01266634464263916,-0.003919988870620728,0.001239895820617676,2,-0.3642635779979381,0.5322681936966007,0.3678447088459202,0.6698453996883904,0.9810596704483032,0.09641648828983307,-0.1680052280426025,42.42793273925781,34.76802444458008,29.59356689453125,2,12146.668001875,2,0,1580908430.909168,1580903939.50652,2808,0.4880329,0,0,3367.699,14,15,1580908426.810263,12144.766354,0,18.46716,96.98878
1580908431.623756,30,0,1580907286.99823,41.20781296037784,29.0754925099451,275.2123,0.1345286,-1,23.46983528137207,200,-9999,12147.42060275,0.9612579345703125,0.0955352783203125,-0.1658172607421875,12147.41056275,1.085794263062021,1.401239677929499,-0.09646135176190043,0.005248270928859711,0.005076732486486435,0.01075429935008287,-0.01916927099227905,0.0002438724040985107,-0.000376284122467041,2,-0.3642285733664193,0.5323129700047383,0.3678533984408593,0.6698240266980868,0.9810774922370911,0.09631182998418808,-0.1679608970880508,42.27372741699219,34.83609008789062,29.63192749023438,2,12146.668001875,2,0,1580908430.909168,1580903939.50652,2808,0.4880329,0,0,3367.699,14,15,1580908426.810263,12144.766354,0,18.46716,96.98878
1580908431.633695,31,0,1580907286.99823,41.20781296037784,29.0754925099451,275.2123,0.1345286,-1,23.46983528137207,200,-9999,12147.43064275,0.9629974365234375,0.0936279296875,-0.1659698486328125,12147.42060275,1.085741223170029,1.401252105396787,-0.09625952216228872,0.008447454310953617,0.002208754420280457,0.01921911910176277,-0.02334088087081909,-0.0005463361740112305,-0.001025855541229248,2,-0.3641523201243413,0.532369308119253,0.3678909547817684,0.6698002663538555,0.9810988903045654,0.09611093252897263,-0.1679520159959793,42.27372741699219,34.83609008789062,29.63192749023438,2,12146.668001875,2,0,1580908430.909168,1580903939.50652,2808,0.4880329,0,0,3367.699,14,15,1580908426.810263,12144.766354,0,18.46716,96.98878
1580908431.643803,32,0,1580907286.99823,41.20781296037784,29.0754925099451,275.2123,0.1345286,-1,23.46983528137207,200,-9999,12147.44068375,0.9597320556640625,0.0880279541015625,-0.1716156005859375,12147.43064275,1.085685562575787,1.401219158990797,-0.09601796578857337,0.00978835579007864,-0.003405988216400146,0.02405861392617226,-0.02175617218017578,-0.002197146415710449,-0.0007150173187255859,2,-0.3640544623591028,0.5324192293750306,0.3679471797176078,0.6697827566442718,0.9811160564422607,0.0958704948425293,-0.1679882258176804,42.32720947265625,34.78467559814453,29.53765869140625,2,12146.668001875,2,0,1580908430.909168,1580903939.50652,2808,0.4880329,0,0,3367.699,14,15,1580908426.810263,12144.766354,0,18.46716,96.98878
1580908431.672815,33,0,1580907286.99823,41.20781296037784,29.0754925099451,275.2123,0.1345286,-1,23.46983528137207,200,-9999,12147.45075375,0.9566802978515625,0.0844879150390625,-0.1737823486328125,12147.44068375,1.08562449606114,1.401309644038103,-0.09586679333176884,0.008752119727432728,0.01096229813992977,0.01501212175935507,-0.02418136596679688,-0.007600367069244385,-0.005684614181518555,2,-0.3640066568890311,0.532492452986381,0.3679533631681298,0.6697470862246461,0.9811455011367798,0.09572001546621323,-0.1679018884897232,42.32720947265625,34.78467559814453,29.53765869140625,2,12146.668001875,2,0,1580908430.909168,1580903939.50652,2808,0.4880329,0,0,3367.699,14,15,1580908426.810263,12144.766354,0,18.46716,96.98878
1580908431.674273,34,0,1580907286.99823,41.20781296037784,29.0754925099451,275.2123,0.1345286,-1,23.46983528137207,200,-9999,12147.46079475,0.9561309814453125,0.075927734375,-0.1776275634765625,12147.45075375,1.085583801746012,1.401580080566946,-0.09589891136621399,0.004659906961023808,0.02532871998846531,-0.002580453641712666,-0.028023362159729,-0.01082149147987366,-0.009338736534118652,2,-0.3640558030689081,0.5325836640574523,0.3678813563095538,0.6696874291267318,0.9811878800392151,0.09575198590755463,-0.1676360219717026,42.40573120117188,34.69709777832031,29.61135864257812,2,12146.668001875,2,0,1580908430.909168,1580903939.50652,2808,0.4880329,0,0,3367.699,14,15,1580908426.810263,12144.766354,0,18.46716,96.98878
1580908431.675302,35,0,1580907286.99823,41.20781296037784,29.0754925099451,275.2123,0.1345286,-1,23.46983528137207,200,-9999,12147.47083475,0.9676971435546875,0.09136962890625,-0.169342041015625,12147.46079475,1.085567461904514,1.402140637671156,-0.09615745229361136,-0.004150823224335909,0.0587969571352005,-0.0269310288131237,-0.02881020307540894,-0.02058601379394531,-0.01300764083862305,2,-0.364236911170664,0.5327199497359493,0.3677000875967163,0.6695802477179624,0.9812573790550232,0.09600933641195297,-0.1670818626880646,42.40573120117188,34.69709777832031,29.61135864257812,2,12146.668001875,2,0,1580908430.909168,1580903939.50652,2808,0.4880329,0,0,3367.699,14,15,1580908426.810263,12144.766354,0,18.46716,96.98878
1580908431.683998,36,0,1580907286.99823,41.20781296037784,29.0754925099451,275.2123,0.1345286,-1,23.46983528137207,200,-9999,12147.48087475,0.97210693359375,0.0895538330078125,-0.1627349853515625,12147.47083475,1.085484962609705,1.402733056510496,-0.09652007197666912,0.004807517863810062,0.06014238297939301,-0.03883589059114456,-0.01875841617584229,-0.006391346454620361,-0.007447779178619385,2,-0.3644394280997927,0.5328569931360057,0.3674610452825402,0.6694921213432428,0.9813216924667358,0.09637027978897095,-0.1664946526288986,42.34031677246094,34.76519393920898,29.5467529296875,2,12146.668001875,2,0,1580908430.909168,1580903939.50652,2808,0.4880329,0,0,3367.699,14,15,1580908426.810263,12144.766354,0,18.46716,96.98878
1580908431.694049,37,0,1580907286.99823,41.20781296037784,29.0754925099451,275.2123,0.1345286,-1,23.46983528137207,200,-9999,12147.49091475,0.962158203125,0.09246826171875,-0.167694091796875,12147.48087475,1.085458933931517,1.403237603029037,-0.09689033350435367,-0.004056565463542938,0.04911252111196518,-0.03780176490545273,-0.01203238964080811,-0.007142633199691772,0.0005027055740356445,2,-0.364643139916919,0.5329527236199711,0.3672546507752716,0.6694182437095703,0.9813703298568726,0.09673880785703659,-0.1659935563802719,42.34031677246094,34.76519393920898,29.5467529296875,2,12146.668001875,2,0,1580908430.909168,1580903939.50652,2808,0.4880329,0,0,3367.699,14,15,1580908426.810263,12144.766354,0,18.46716,96.98878
1580908431.730707,38,0,1580907286.99823,41.20781296037784,29.0754925099451,275.2123,0.1345286,-1,23.46983528137207,200,-9999,12147.50095575,0.962371826171875,0.09393310546875,-0.16717529296875,12147.49091475,1.085444410962749,1.403785606804592,-0.09721129317217823,-0.004932479001581669,0.05519278347492218,-0.0317622497677803,-0.02187365293502808,-0.005433768033981323,-0.004970788955688477,2,-0.3648420801839598,0.5330712626351105,0.367058178794212,0.669323273444949,0.9814305305480957,0.0970582589507103,-0.1654505729675293,42.35115814208984,34.88006591796875,29.66677856445312,2,12146.668001875,2,0,1580908430.909168,1580903939.50652,2808,0.4880329,0,0,3367.699,14,15,1580908426.810263,12144.766354,0,18.46716,96.98878
1580908431.732084,39,0,1580907286.99823,41.20781296037784,29.0754925099451,275.2123,0.1345286,-1,23.46983528137207,200,-9999,12147.51099575,0.96484375,0.0925750732421875,-0.165191650390625,12147.50095575,1.085434244707926,1.404338519679249,-0.09749940525701589,-0.004515995271503925,0.05549535527825356,-0.02807091549038887,-0.02311265468597412,-0.003646343946456909,-0.005764365196228027,2,-0.3650325795647927,0.5331975166109409,0.3668715500443621,0.6692210929602403,0.9814941883087158,0.09734500199556351,-0.1649032533168793,42.30341339111328,34.83184814453125,29.60952758789062,2,12146.668001875,2,0,1580908430.909168,1580903939.50652,2808,0.4880329,0,0,3367.699,14,15,1580908426.810263,12144.766354,0,18.46716,96.98878
1580908431.733139,40,0,1580907286.99823,41.20781296037784,29.0754925099451,275.2123,0.1345286,-1,23.46983528137207,200,-9999,12147.52103575,0.9640655517578125,0.093536376953125,-0.1660919189453125,12147.51099575,1.085438109585792,1.404910112923348,-0.0977515957930629,-0.00379294715821743,0.05903815850615501,-0.02451932057738304,-0.01994812488555908,-0.005225837230682373,-0.003615617752075195,2,-0.3652187200762169,0.5333349941666571,0.3666963938139757,0.6691059437549637,0.9815639853477478,0.09759599715471268,-0.1643381416797638,42.30341339111328,34.83184814453125,29.60952758789062,2,12146.668001875,2,0,1580908430.909168,1580903939.50652,2808,0.4880329,0,0,3367.699,14,15,1580908426.810263,12144.766354,0,18.46716,96.98878
1580908431.734628,41,0,1580907286.99823,41.20781296037784,29.0754925099451,275.2123,0.1345286,-1,23.46983528137207,200,-9999,12147.53107675,0.9673614501953125,0.095306396484375,-0.1631927490234375,12147.52103575,1.085460567226237,1.405472862385894,-0.09796203556624371,-0.005163799971342087,0.05605104565620422,-0.01944387704133987,-0.02134799957275391,-0.004810303449630737,-0.00536346435546875,2,-0.3653948124094077,0.5334748808345813,0.3665409424764971,0.6689834970902473,0.981636106967926,0.09780542552471161,-0.1637823581695557,42.19291687011719,34.82425689697266,29.79061889648438,2,12146.668001875,2,0,1580908430.909168,1580903939.50652,2808,0.4880329,0,0,3367.699,14,15,1580908426.810263,12144.766354,0,18.46716,96.98878
1580908431.744184,42,0,1580907286.99823,41.20781296037784,29.0754925099451,275.2123,0.1345286,-1,23.46983528137207,200,-9999,12147.54111675,0.9745025634765625,0.0928192138671875,-0.1583251953125,12147.53107675,1.085461500620471,1.40598074233805,-0.09816541272284748,-0.002448440995067358,0.05301903188228607,-0.02036852389574051,-0.01825296878814697,-0.003045052289962769,-0.003074765205383301,2,-0.3655528324725437,0.5336017886920557,0.3663902577370952,0.6688784465864756,0.9816994667053223,0.09800782799720764,-0.1632805168628693,42.19291687011719,34.82425689697266,29.79061889648438,2,12146.668001875,2,0,1580908430.909168,1580903939.50652,2808,0.4880329,0,0,3367.699,14,15,1580908426.810263,12144.766354,0,18.46716,96.98878
1580908431.754457,43,0,1580907286.99823,41.20781296037784,29.0754925099451,275.2123,0.1345286,-1,23.46983528137207,200,-9999,12147.55118775,0.976287841796875,0.0958251953125,-0.156280517578125,12147.54111675,1.085459708712075,1.406286873368572,-0.09838138070227286,-0.004912663716822863,0.0318082869052887,-0.02164018526673317,-0.01135456562042236,-0.005518972873687744,0.001396417617797852,2,-0.3656770522340503,0.5336590896779024,0.3662719131798685,0.6688298078380472,0.9817286729812622,0.0982227548956871,-0.1629765331745148,42.07872772216797,34.71676635742188,29.81185913085938,2,12146.668001875,2,0,1580908430.909168,1580903939.50652,2808,0.4880329,0,0,3367.699,14,15,1580908426.810263,12144.766354,0,18.46716,96.98878
1580908431.76423,44,0,1580907286.99823,41.20781296037784,29.0754925099451,275.2123,0.1345286,-1,23.46983528137207,200,-9999,12147.56122775,0.9705963134765625,0.092987060546875,-0.1579437255859375,12147.55118775,1.085399122494246,1.406350478819331,-0.09865476201611123,0.001339373178780079,0.00698523037135601,-0.02732976153492928,-0.008591651916503906,-0.003213286399841309,0.003770709037780762,2,-0.3657595074696859,0.5336339077588796,0.3661617573477364,0.6688650031222724,0.9817124009132385,0.09849481284618378,-0.162909671664238,42.07872772216797,34.71676635742188,29.81185913085938,2,12146.668001875,2,0,1580908430.909168,1580903939.50652,2808,0.4880329,0,0,3367.699,14,15,1580908426.810263,12144.766354,0,18.46716,96.98878
1580908431.790078,45,0,1580907286.99823,41.20781296037784,29.0754925099451,275.2123,0.1345286,-1,23.46983528137207,200,-9999,12147.57126775,0.9615020751953125,0.09051513671875,-0.1650238037109375,12147.56122775,1.085306217200177,1.406286007996118,-0.09897750145871123,0.002644713968038559,-0.006393724121153355,-0.03282980620861053,-0.01376813650131226,-0.005732864141464233,0.002409934997558594,2,-0.3658255336234777,0.5335614344071782,0.3660500920620506,0.6689478367620194,0.9816704988479614,0.09881597757339478,-0.1629677563905716,42.06901550292969,34.85736083984375,29.81732177734375,2,12146.668001875,2,0,1580908430.909168,1580903939.50652,2808,0.4880329,0,0,3367.699,14,15,1580908426.810263,12144.766354,0,18.46716,96.98878
1580908431.791495,46,0,1580907286.99823,41.20781296037784,29.0754925099451,275.2123,0.1345286,-1,23.46983528137207,200,-9999,12147.58130875,0.957672119140625,0.0923004150390625,-0.1687164306640625,12147.57126775,1.085202827599653,1.406287391367878,-0.09935591799075796,0.003113430924713612,0.001084698364138603,-0.03998146206140518,-0.02271860837936401,-0.00896415114402771,-0.004067301750183105,2,-0.3659185425368212,0.5335011695313456,0.3659069117649129,0.6690233009778841,0.9816336631774902,0.09919252991676331,-0.1629602462053299,42.06901550292969,34.85736083984375,29.81732177734375,2,12146.668001875,2,0,1580908430.909168,1580903939.50652,2808,0.4880329,0,0,3367.699,14,15,1580908426.810263,12144.766354,0,18.46716,96.98878
1580908431.794403,47,0,1580907286.99823,41.20781296037784,29.0754925099451,275.2123,0.1345286,-1,23.46983528137207,200,-9999,12147.59134875,0.959564208984375,0.093597412109375,-0.1646881103515625,12147.58130875,1.08510931969522,1.406424037010952,-0.09973549276104506,0.003364883363246918,0.01671874336898327,-0.03926119580864906,-0.02746438980102539,-0.007862985134124756,-0.008831560611724854,2,-0.3660392433696499,0.5334841138336083,0.3657419459282879,0.6690611349136706,0.9816187620162964,0.09957022964954376,-0.1628199517726898,42.12699890136719,34.97871017456055,29.96194458007812,2,12146.668001875,2,0,1580908430.909168,1580903939.50652,2808,0.4880329,0,0,3367.699,14,15,1580908426.810263,12144.766354,0,18.46716,96.98878
1580908431.804509,48,0,1580907286.99823,41.20781296037784,29.0754925099451,275.2123,0.1345286,-1,23.46983528137207,200,-9999,12147.60138875,0.9626617431640625,0.0930633544921875,-0.1654205322265625,12147.59134875,1.085049893608104,1.40663680174193,-0.1000960564436687,-0.0006815232336521149,0.02083918265998363,-0.0368126854300499,-0.02555632591247559,-0.006483584642410278,-0.005293607711791992,2,-0.3661769082555333,0.5334902707894718,0.3655798467287789,0.6690694641765074,0.9816178679466248,0.09992899000644684,-0.1626052111387253,42.12699890136719,34.97871017456055,29.96194458007812,2,12146.668001875,2,0,1580908430.909168,1580903939.50652,2808,0.4880329,0,0,3367.699,14,15,1580908426.810263,12144.766354,0,18.46716,96.98878
1580908431.814523,49,0,1580907286.99823,41.20781296037784,29.0754925099451,275.2123,0.1345286,-1,23.46983528137207,200,-9999,12147.61142875,0.9734344482421875,0.0963287353515625,-0.157196044921875,12147.60138875,1.085011269133239,1.40690219992271,-0.1004463232317767,-0.001732836943119764,0.03050076030194759,-0.0361209511756897,-0.02347457408905029,-0.007931947708129883,-0.006079554557800293,2,-0.3663263918908222,0.5335124062412351,0.3654179888483249,0.6690584845137649,0.9816265106201172,0.1002774983644485,-0.1623389720916748,42.10063934326172,35.01565551757812,29.73709106445312,2,12146.668001875,2,0,1580908430.909168,1580903939.50652,2808,0.4880329,0,0,3367.699,14,15,1580908426.810263,12144.766354,0,18.46716,96.98878
1580908431.824519,50,0,1580907286.99823,41.20781296037784,29.0754925099451,275.2123,0.1345286,-1,23.46983528137207,200,-9999,12147.62146975,0.964630126953125,0.098297119140625,-0.1594085693359375,12147.61142875,1.085022352744889,1.406999250842206,-0.1007440665167618,-0.00649217190220952,0.009559260681271553,-0.02934720367193222,-0.01174205541610718,-0.004857003688812256,0.001373052597045898,2,-0.3664416729643623,0.5334801614991812,0.3653186054096385,0.6690753694642823,0.9816128015518188,0.1005737408995628,-0.1622388362884521,42.10063934326172,35.01565551757812,29.73709106445312,2,12146.668001875,2,0,1580908430.909168,1580903939.50652,2808,0.4880329,0,0,3367.699,14,15,1580908426.810263,12144.766354,0,18.46716,96.98878
1580908431.850433,51,0,1580907286.99823,41.20781296037784,29.0754925099451,275.2123,0.1345286,-1,23.46983528137207,200,-9999,12147.63150975,0.9583892822265625,0.097686767578125,-0.1648406982421875,12147.62146975,1.085055326898283,1.407010143542773,-0.1009545282755035,-0.005413128063082695,-0.0004206951707601547,-0.02066347748041153,-0.01944398880004883,-0.003037750720977783,0.0006567239761352539,2,-0.3665193546023516,0.533433432441655,0.3652673167890172,0.6690979911162607,0.9815935492515564,0.1007831320166588,-0.1622246652841568,42.01123046875,34.83538436889648,29.928466796875,2,12146.668001875,2,0,1580908430.909168,1580903939.50652,2808,0.4880329,0,0,3367.699,14,15,1580908426.810263,12144.766354,0,18.46716,96.98878
1580908431.851734,52,0,1580907286.99823,41.20781296037784,29.0754925099451,275.2123,0.1345286,-1,23.46983528137207,200,-9999,12147.64154975,0.959747314453125,0.0957489013671875,-0.163787841796875,12147.63150975,1.085118079292949,1.407092204495895,-0.1011058606779244,-0.009297881275415421,0.00772990845143795,-0.01515845581889153,-0.02621710300445557,-0.003188848495483398,-0.005301237106323242,2,-0.3665991594070263,0.5334175112699362,0.3652298971869819,0.6690873729088656,0.9815917611122131,0.1009336933493614,-0.1621416360139847,42.01123046875,34.83538436889648,29.928466796875,2,12146.668001875,2,0,1580908430.909168,1580903939.50652,2808,0.4880329,0,0,3367.699,14,15,1580908426.810263,12144.766354,0,18.46716,96.98878
1580908431.85479,53,0,1580907286.99823,41.20781296037784,29.0754925099451,275.2123,0.1345286,-1,23.46983528137207,200,-9999,12147.65162075,0.9657440185546875,0.0990447998046875,-0.1595001220703125,12147.64154975,1.085186541957393,1.407209578215019,-0.101198272009241,-0.008623301982879639,0.0115685872733593,-0.007941821590065956,-0.02561646699905396,-0.005844563245773315,-0.005128264427185059,2,-0.3666681765047091,0.5334247768002713,0.3652048082855984,0.6690575409325278,0.9816017150878906,0.1010256335139275,-0.1620249152183533,42.03429412841797,35.03686141967773,30.01651000976562,2,12146.668001875,2,0,1580908430.909168,1580903939.50652,2808,0.4880329,0,0,3367.699,14,15,1580908426.810263,12144.766354,0,18.46716,96.98878
1580908431.864641,54,0,1580907286.99823,41.20781296037784,29.0754925099451,275.2123,0.1345286,-1,23.46983528137207,200,-9999,12147.66166075,0.9717254638671875,0.09771728515625,-0.1574859619140625,12147.65162075,1.085227451718745,1.407254535549348,-0.1012474187151001,-0.004191003274172544,0.004865147173404694,-0.003264512401074171,-0.01997292041778564,-0.002460390329360962,-0.0004889965057373047,2,-0.3667029587234585,0.5334219408357488,0.3651961454940329,0.6690453229607166,0.9816039204597473,0.1010745242238045,-0.1619799435138702,42.03429412841797,35.03686141967773,30.01651000976562,2,12146.668001875,2,0,1580908430.909168,1580903939.50652,2808,0.4880329,0,0,3367.699,14,15,1580908426.810263,12144.766354,0,18.46716,96.98878
1580908431.874706,55,0,1580907286.99823,41.20781296037784,29.0754925099451,275.2123,0.1345286,-1,23.46983528137207,200,-9999,12147.67170175,0.9722747802734375,0.0983123779296875,-0.1554412841796875,12147.66166075,1.085222534150662,1.407143653036177,-0.1013053226451479,0.000170988030731678,-0.01120063941925764,-0.006221153773367405,-0.01360142230987549,-0.003601580858230591,0.001191020011901855,2,-0.3666997745942265,0.5333735593652329,0.3651982400541197,0.6690845441365263,0.9815802574157715,0.1011321321129799,-0.1620878428220749,42.03589630126953,34.84418869018555,30.06890869140625,2,12146.668001875,2,0,1580908430.909168,1580903939.50652,2808,0.4880329,0,0,3367.699,14,15,1580908426.810263,12144.766354,0,18.46716,96.98878
1580908431.910126,56,0,1580907286.99823,41.20781296037784,29.0754925099451,275.2123,0.1345286,-1,23.46983528137207,200,-9999,12147.68174175,0.96295166015625,0.0988006591796875,-0.1622467041015625,12147.67170175,1.085174802862587,1.406859595063398,-0.1013772367981561,0.003922849893569946,-0.03069497831165791,-0.009126395918428898,-0.01222038269042969,-0.003200381994247437,0.004155397415161133,2,-0.3666579802795847,0.533272142436726,0.3652137531346499,0.6691799243971964,0.9815270900726318,0.1012036800384521,-0.1623654961585999,42.03589630126953,34.84418869018555,30.06890869140625,2,12146.668001875,2,0,1580908430.909168,1580903939.50652,2808,0.4880329,0,0,3367.699,14,15,1580908426.810263,12144.766354,0,18.46716,96.98878
1580908431.911374,57,0,1580907286.99823,41.20781296037784,29.0754925099451,275.2123,0.1345286,-1,23.46983528137207,200,-9999,12147.69178175,0.9657440185546875,0.098388671875,-0.16162109375,12147.68174175,1.085074669646162,1.4065643691726,-0.1014360519246631,0.009556234814226627,-0.02638278715312481,-0.007803337648510933,-0.02101653814315796,-0.002557158470153809,-0.00171959400177002,2,-0.3665961237419491,0.5331792902638097,0.3652174874440063,0.6692855714725319,0.9814730286598206,0.1012621894478798,-0.1626542508602142,41.98255920410156,34.79649353027344,29.889892578125,2,12146.668001875,2,0,1580908430.909168,1580903939.50652,2808,0.4880329,0,0,3367.699,14,15,1580908426.810263,12144.766354,0,18.46716,96.98878
1580908431.912399,58,0,1580907286.99823,41.20781296037784,29.0754925099451,275.2123,0.1345286,-1,23.46983528137207,200,-9999,12147.70182175,0.9735870361328125,0.100341796875,-0.15594482421875,12147.69178175,1.084944766156472,1.406183332717684,-0.1014702314714696,0.01144867669790983,-0.03605805337429047,-0.005478397943079472,-0.0199742317199707,-0.003476232290267944,-0.002122998237609863,2,-0.3665027577066917,0.5330683809302252,0.365234058931912,0.669416042924265,0.981407642364502,0.1012961938977242,-0.1630276590585709,41.98255920410156,34.79649353027344,29.889892578125,2,12146.668001875,2,0,1580908430.909168,1580903939.50652,2808,0.4880329,0,0,3367.699,14,15,1580908426.810263,12144.766354,0,18.46716,96.98878
1580908431.914787,59,0,1580907286.99823,41.20781296037784,29.0754925099451,275.2123,0.1345286,-1,23.46983528137207,200,-9999,12147.71186275,0.9784393310546875,0.0984039306640625,-0.1548004150390625,12147.70182175,1.084775267588347,1.405562604004934,-0.101450044967577,0.01703865081071854,-0.06005419790744781,0.0001589814200997353,-0.01183319091796875,-0.001564055681228638,0.004469990730285645,2,-0.3663377988208942,0.5328958987816996,0.3652968274376608,0.6696094095470037,0.9813082814216614,0.1012761145830154,-0.1636371612548828,42.20037078857422,34.84479522705078,29.82229614257812,2,12146.668001875,2,0,1580908430.909168,1580903939.50652,2808,0.4880329,0,0,3367.699,14,15,1580908426.810263,12144.766354,0,18.46716,96.98878
1580908431.925153,60,0,1580907286.99823,41.20781296037784,29.0754925099451,275.2123,0.1345286,-1,23.46983528137207,200,-9999,12147.72190275,0.9738616943359375,0.095916748046875,-0.1581878662109375,12147.71186275,1.084597239577485,1.404635354594677,-0.1014344539531656,0.01800990477204323,-0.09052662551403046,-0.001572073437273502,-0.00629580020904541,-0.002845495939254761,0.00703132152557373,2,-0.3661160024284001,0.5326212847408928,0.3654114771457708,0.6698866734635133,0.9811577796936035,0.1012606024742126,-0.1645472794771194,42.20037078857422,34.84479522705078,29.82229614257812,2,12146.668001875,2,0,1580908430.909168,1580903939.50652,2812,0.4882443,0.8424244,1.869819,3369.779,14,15,1580908429.378576,12144.766354,0,18.46716,96.98878
1580908431.935497,61,0,1580907286.99823,41.20781296037784,29.0754925099451,275.2123,0.1345286,-1,23.46983528137207,200,-9999,12147.73194275,0.9667205810546875,0.097625732421875,-0.164306640625,12147.72190275,1.084412610880426,1.403480648235517,-0.1014310904078901,0.01906942203640938,-0.1131713166832924,-0.00305810384452343,-0.009766638278961182,-0.005741268396377563,0.005253911018371582,2,-0.3658547817343304,0.5322689125530522,0.3655618808089159,0.6702272716791714,0.9809674024581909,0.1012572571635246,-0.1656801700592041,42.17787170410156,34.81573486328125,29.81527709960938,2,12146.668001875,2,0,1580908430.909168,1580903939.50652,2812,0.4882443,0.8424244,1.869819,3369.779,14,15,1580908429.378576,12144.766354,0,18.46716,96.98878
1580908431.971896,62,0,1580907286.99823,41.20781296037784,29.0754925099451,275.2123,0.1345286,-1,23.46983528137207,200,-9999,12147.74201375,0.9631195068359375,0.095703125,-0.1678619384765625,12147.73194275,1.084234071623713,1.402249656690652,-0.101410030741357,0.01902787387371063,-0.1207533404231071,-0.0007909545674920082,-0.01682639122009277,-0.004072278738021851,0.000133812427520752,2,-0.3655754908634381,0.5318933830689769,0.3657331656317852,0.6705843487727352,0.9807649254798889,0.1012363061308861,-0.1668879836797714,42.17787170410156,34.81573486328125,29.81527709960938,2,12146.668001875,2,0,1580908430.909168,1580903939.50652,2812,0.4882443,0.8424244,1.869819,3369.779,14,15,1580908429.378576,12144.766354,0,18.46716,96.98878
1580908431.973252,63,0,1580907286.99823,41.20781296037784,29.0754925099451,275.2123,0.1345286,-1,23.46983528137207,200,-9999,12147.75205375,0.955657958984375,0.094940185546875,-0.171539306640625,12147.74201375,1.084088733512547,1.401047177690403,-0.1013880686076323,0.01416777819395065,-0.1203523352742195,-0.0005669202655553818,-0.02050215005874634,-0.005560934543609619,-0.002344608306884766,2,-0.3653099553648948,0.5315212667235781,0.365910402616562,0.6709272061801843,0.98056560754776,0.1012144535779953,-0.1680675595998764,42.15580749511719,34.99753189086914,29.54388427734375,2,12146.668001875,2,0,1580908430.909168,1580903939.50652,2812,0.4882443,0.8424244,1.869819,3369.779,14,15,1580908429.378576,12144.766354,0,18.46716,96.98878
1580908431.974301,64,0,1580907286.99823,41.20781296037784,29.0754925099451,275.2123,0.1345286,-1,23.46983528137207,200,-9999,12147.76209475,0.9449462890625,0.0956878662109375,-0.1751251220703125,12147.75205375,1.083959032868583,1.40000670291286,-0.1013439093613933,0.01341756619513035,-0.1037493869662285,0.002713828347623348,-0.02728843688964844,-0.006752818822860718,-0.00492095947265625,2,-0.3650709758142315,0.5312051674874617,0.3660694999022697,0.6712209049551205,0.980394721031189,0.1011705249547958,-0.1690885126590729,42.15580749511719,34.99753189086914,29.54388427734375,2,12146.668001875,2,0,1580908430.909168,1580903939.50652,2812,0.4882443,0.8424244,1.869819,3369.779,14,15,1580908429.378576,12144.766354,0,18.46716,96.98878
1580908431.975502,65,0,1580907286.99823,41.20781296037784,29.0754925099451,275.2123,0.1345286,-1,23.46983528137207,200,-9999,12147.77213475,0.9285888671875,0.0918121337890625,-0.1809539794921875,12147.76209475,1.083839145604685,1.399212540144425,-0.1012459961179517,0.01348760165274143,-0.07875455915927887,0.007475122809410095,-0.03772234916687012,-0.005754828453063965,-0.00769352912902832,2,-0.3648625692499909,0.5309811173036332,0.3662021237973369,0.6714390254805258,0.9802697896957397,0.1010731086134911,-0.1698687225580215,42.19746398925781,35.11466598510742,29.62100219726562,2,12146.668001875,2,0,1580908430.909168,1580903939.50652,2812,0.4882443,0.8424244,1.869819,3369.779,14,15,1580908429.378576,12144.766354,0,18.46716,96.98878
1580908431.985229,66,0,1580907286.99823,41.20781296037784,29.0754925099451,275.2123,0.1345286,-1,23.46983528137207,200,-9999,12147.78217475,0.9213104248046875,0.084747314453125,-0.19268798828125,12147.77213475,1.083781727591809,1.398901195640483,-0.1011150270561012,0.007243555039167404,-0.03229491040110588,0.0116144735366106,-0.05358195304870605,-0.008492738008499146,-0.01264917850494385,2,-0.3647485404083657,0.5309146969122742,0.3662770192439763,0.6715126477116189,0.9802298545837402,0.1009428128600121,-0.1701761782169342,42.19746398925781,35.11466598510742,29.62100219726562,2,12146.668001875,2,0,1580908430.909168,1580903939.50652,2812,0.4882443,0.8424244,1.869819,3369.779,14,15,1580908429.378576,12144.766354,0,18.46716,96.98878
1580908431.995377,67,0,1580907286.99823,41.20781296037784,29.0754925099451,275.2123,0.1345286,-1,23.46983528137207,200,-9999,12147.79221575,0.932830810546875,0.09014892578125,-0.184906005859375,12147.78217475,1.08377931792121,1.399316076297519,-0.1009763230441263,0.002587484195828438,0.04239688813686371,0.01355951372534037,-0.06245553493499756,-0.01677703857421875,-0.02515494823455811,2,-0.3647795940798861,0.5310837053493438,0.3662401488629236,0.6713823538488397,0.980314314365387,0.1008048132061958,-0.1697718948125839,42.30351257324219,34.96555328369141,29.66937255859375,2,12146.668001875,2,0,1580908430.909168,1580903939.50652,2812,0.4882443,0.8424244,1.869819,3369.779,14,15,1580908429.378576,12144.766354,0,18.46716,96.98878
1580908432.025988,68,0,1580907286.99823,41.20781296037784,29.0754925099451,275.2123,0.1345286,-1,23.46983528137207,200,-9999,12147.80225575,0.942108154296875,0.0925140380859375,-0.1765899658203125,12147.79221575,1.083847313994745,1.400220833043893,-0.1007899381061838,-0.004082669503986835,0.08859448134899139,0.01907971501350403,-0.05278611183166504,-0.01103681325912476,-0.02019798755645752,2,-0.3649039108779093,0.5314142568028697,0.366151128931116,0.6711016553118099,0.9804859161376953,0.100619375705719,-0.168888047337532,42.30351257324219,34.96555328369141,29.66937255859375,2,12146.668001875,2,0,1580908430.909168,1580903939.50652,2812,0.4882443,0.8424244,1.869819,3369.779,14,15,1580908429.378576,12144.766354,0,18.46716,96.98878
1580908432.027214,69,0,1580907286.99823,41.20781296037784,29.0754925099451,275.2123,0.1345286,-1,23.46983528137207,200,-9999,12147.81229575,0.9518890380859375,0.0974273681640625,-0.168731689453125,12147.80225575,1.083968672819999,1.401431643661318,-0.1005009271893193,-0.005925268400460482,0.1213754490017891,0.0298053864389658,-0.04252123832702637,-0.00855100154876709,-0.01204615831375122,2,-0.365065689634334,0.5318592139603269,0.3660534347232293,0.6707143765682541,0.9807183146476746,0.1003318279981613,-0.1677056401968002,42.34214019775391,34.86248779296875,29.55987548828125,2,12146.668001875,2,0,1580908430.909168,1580903939.50652,2812,0.4882443,0.8424244,1.869819,3369.779,14,15,1580908429.378576,12144.766354,0,18.46716,96.98878
1580908432.028263,70,0,1580907286.99823,41.20781296037784,29.0754925099451,275.2123,0.1345286,-1,23.46983528137207,200,-9999,12147.82233575,0.96026611328125,0.1024017333984375,-0.156402587890625,12147.81229575,1.084095156207032,1.40262989705525,-0.1000933577369583,-0.005816078744828701,0.1204041913151741,0.04262904077768326,-0.0339275598526001,-0.00312390923500061,-0.006474137306213379,2,-0.3651887752134269,0.5323237310373804,0.3659935737222568,0.6703114528393127,0.980958878993988,0.09992630779743195,-0.1665372103452682,42.34214019775391,34.86248779296875,29.55987548828125,2,12146.668001875,2,0,1580908430.909168,1580903939.50652,2812,0.4882443,0.8424244,1.869819,3369.779,14,15,1580908429.378576,12144.766354,0,18.46716,96.98878
1580908432.035907,71,0,1580907286.99823,41.20781296037784,29.0754925099451,275.2123,0.1345286,-1,23.46983528137207,200,-9999,12147.83237675,0.9501495361328125,0.1035308837890625,-0.1635894775390625,12147.82233575,1.084214356334572,1.403614881611337,-0.09952775352402596,-0.004498776514083147,0.09526492655277252,0.05707591027021408,-0.02418327331542969,0.002140551805496216,0.005962729454040527,2,-0.3652207202662914,0.5327510728574516,0.366015349536906,0.6699423546681091,0.981177806854248,0.09936352074146271,-0.1655802428722382,42.23047637939453,34.88380813598633,29.8343505859375,2,12146.668001875,2,0,1580908430.909168,1580903939.50652,2812,0.4882443,0.8424244,1.869819,3369.779,14,15,1580908429.378576,12144.766354,0,18.46716,96.98878
1580908432.045496,72,0,1580907286.99823,41.20781296037784,29.0754925099451,275.2123,0.1345286,-1,23.46983528137207,200,-9999,12147.84244675,0.957244873046875,0.10345458984375,-0.15399169921875,12147.83237675,1.084291374653293,1.404544404842367,-0.09874098457851135,0.004725614562630653,0.09593097865581512,0.07863127440214157,-0.03388994932174683,0.004833638668060303,-0.001363396644592285,2,-0.3651608555792548,0.5332138657422988,0.3660964513567622,0.6695624858455266,0.9814081788063049,0.09858061373233795,-0.1646810472011566,42.23047637939453,34.88380813598633,29.8343505859375,2,12146.668001875,2,0,1580908430.909168,1580903939.50652,2812,0.4882443,0.8424244,1.869819,3369.779,14,15,1580908429.378576,12144.766354,0,18.46716,96.98878
1580908432.055848,73,0,1580907286.99823,41.20781296037784,29.0754925099451,275.2123,0.1345286,-1,23.46983528137207,200,-9999,12147.85248775,0.9500579833984375,0.0981292724609375,-0.161468505859375,12147.84244675,1.084378433179476,1.405164808699214,-0.09776900628288193,0.004683753475546837,0.05391138792037964,0.09925837814807892,-0.02950870990753174,0.005941718816757202,0.005854129791259766,2,-0.3649882647220146,0.5336100028133826,0.3662903727142788,0.6692348533401971,0.9816042184829712,0.09761331975460052,-0.1640878617763519,42.22068023681641,35.07530975341797,29.6119384765625,2,12146.668001875,2,0,1580908430.909168,1580903939.50652,2812,0.4882443,0.8424244,1.869819,3369.779,14,15,1580908429.378576,12144.766354,0,18.46716,96.98878
1580908432.085912,74,0,1580907286.99823,41.20781296037784,29.0754925099451,275.2123,0.1345286,-1,23.46983528137207,200,-9999,12147.86252775,0.9722137451171875,0.0953216552734375,-0.1563262939453125,12147.85248775,1.084370616179323,1.405744861420638,-0.09667997715233066,0.02261747978627682,0.06228143721818924,0.1088441610336304,-0.0337827205657959,0.001459896564483643,0.0003412365913391113,2,-0.364745738659328,0.5340342941105826,0.3664934584938605,0.6689174608916977,0.9818035960197449,0.09652943909168243,-0.1635358333587646,42.22068023681641,35.07530975341797,29.6119384765625,2,12146.668001875,2,0,1580908430.909168,1580903939.50652,2812,0.4882443,0.8424244,1.869819,3369.779,14,15,1580908429.378576,12144.766354,0,18.46716,96.98878
1580908432.086944,75,0,1580907286.99823,41.20781296037784,29.0754925099451,275.2123,0.1345286,-1,23.46983528137207,200,-9999,12147.87256775,1.010635375976562,0.0924530029296875,-0.1358489990234375,12147.86252775,1.084258815961963,1.405925018310334,-0.09564912543517227,0.03038577735424042,0.02456332929432392,0.09936269372701645,-0.01770532131195068,-0.0003638267517089844,0.00216364860534668,2,-0.3644207035461615,0.5343313127112415,0.3667180647485787,0.6687342845571694,0.981930673122406,0.09550334513187408,-0.163375198841095,42.21147918701172,35.08442687988281,29.83328247070312,2,12146.668001875,2,0,1580908430.909168,1580903939.50652,2812,0.4882443,0.8424244,1.869819,3369.779,14,15,1580908429.378576,12144.766354,0,18.46716,96.98878
1580908432.087904,76,0,1580907286.99823,41.20781296037784,29.0754925099451,275.2123,0.1345286,-1,23.46983528137207,200,-9999,12147.88260875,0.9765625,0.0931243896484375,-0.15313720703125,12147.87256775,1.084128176004744,1.40524892650932,-0.09479693915272208,0.02480459213256836,-0.06978900730609894,0.08047262579202652,0.02347850799560547,-0.00247269868850708,0.02405291795730591,2,-0.3639903646567705,0.5343078000375467,0.36704112893398,0.6688101457895531,0.9818997979164124,0.09465502202510834,-0.1640523821115494,42.21147918701172,35.08442687988281,29.83328247070312,2,12146.668001875,2,0,1580908430.909168,1580903939.50652,2812,0.4882443,0.8424244,1.869819,3369.779,14,15,1580908429.378576,12144.766354,0,18.46716,96.98878
1580908432.095806,77,0,1580907286.99823,41.20781296037784,29.0754925099451,275.2123,0.1345286,-1,23.46983528137207,200,-9999,12147.89264875,0.882720947265625,0.082244873046875,-0.218841552734375,12147.88260875,1.083974942532899,1.404442448568591,-0.09394773213567163,0.02975787594914436,-0.09291241317987442,0.08119331300258636,6.455183029174805e-05,-0.001090317964553833,0.01308119297027588,2,-0.3635306848876673,0.5342440529890715,0.367379199015352,0.6689255102606079,0.9818461537361145,0.0938095897436142,-0.1648574620485306,42.24363708496094,35.04428100585938,29.83401489257812,2,12146.668001875,2,0,1580908430.909168,1580903939.50652,2812,0.4882443,0.8424244,1.869819,3369.779,14,15,1580908429.378576,12144.766354,0,18.46716,96.98878
1580908432.105799,78,0,1580907286.99823,41.20781296037784,29.0754925099451,275.2123,0.1345286,-1,23.46983528137207,200,-9999,12147.90268875,0.95379638671875,0.067413330078125,-0.1937255859375,12147.89264875,1.083727134901469,1.405395045412496,-0.09321674650918005,0.03630286082625389,0.1160762161016464,0.0638904944062233,-0.09914398193359375,-0.008172422647476196,-0.05129218101501465,2,-0.3634063868625934,0.5347608146823941,0.367332036447796,0.668605976463727,0.9820701479911804,0.09308180958032608,-0.1639333367347717,42.24363708496094,35.04428100585938,29.83401489257812,2,12146.668001875,2,0,1580908430.909168,1580903939.50652,2812,0.4882443,0.8424244,1.869819,3369.779,14,15,1580908429.378576,12144.766354,0,18.46716,96.98878
1580908432.116033,79,0,1580907286.99823,41.20781296037784,29.0754925099451,275.2123,0.1345286,-1,23.46983528137207,200,-9999,12147.91272875,0.992156982421875,0.0897979736328125,-0.1472930908203125,12147.90268875,1.083642040340443,1.406848378407038,-0.09267890788850054,0.01151362434029579,0.1436311453580856,0.04899782314896584,-0.04384350776672363,-0.02617445588111877,-0.04343903064727783,2,-0.3634791333574072,0.535374552700977,0.3671932021974744,0.6681512600286978,0.9823564887046814,0.09254629164934158,-0.1625140160322189,42.39000701904297,34.83222579956055,29.86294555664062,2,12146.668001875,2,0,1580908430.909168,1580903939.50652,2812,0.4882443,0.8424244,1.869819,3369.779,14,15,1580908429.378576,12144.766354,0,18.46716,96.98878
1580908432.127618,80,0,1580907286.99823,41.20781296037784,29.0754925099451,275.2123,0.1345286,-1,23.46983528137207,200,-9999,12147.92276975,0.9648590087890625,0.0912322998046875,-0.1676025390625,12147.91272875,1.083588345208801,1.408168098899902,-0.09220300412839336,0.01390034891664982,0.1318879425525665,0.0458984375,0.01023530960083008,-0.004824906587600708,0.01267075538635254,2,-0.3635553735862147,0.5359246270552694,0.3670715149509026,0.6677356217038269,0.9826135635375977,0.09207241982221603,-0.1612245738506317,42.39000701904297,34.83222579956055,29.86294555664062,2,12146.668001875,2,0,1580908430.909168,1580903939.50652,2812,0.4882443,0.8424244,1.869819,3369.779,14,15,1580908429.378576,12144.766354,0,18.46716,96.98878
1580908432.151258,81,0,1580907286.99823,41.20781296037784,29.0754925099451,275.2123,0.1345286,-1,23.46983528137207,200,-9999,12147.93284075,0.9891510009765625,0.083465576171875,-0.1527099609375,12147.92276975,1.083484894283753,1.409587928936095,-0.09179466942144239,0.01588990166783333,0.1441786140203476,0.04088732600212097,-0.02332520484924316,0.0005270242691040039,-0.01135224103927612,2,-0.3636581908936118,0.5365026458141194,0.3668956970574767,0.6673118411512027,0.9828783869743347,0.09166581183671951,-0.1598352640867233,42.3016357421875,34.760986328125,29.8353271484375,2,12146.668001875,2,0,1580908430.909168,1580903939.50652,2812,0.4882443,0.8424244,1.869819,3369.779,14,15,1580908429.378576,12144.766354,0,18.46716,96.98878
1580908432.152522,82,0,1580907286.99823,41.20781296037784,29.0754925099451,275.2123,0.1345286,-1,23.46983528137207,200,-9999,12147.94288075,0.96185302734375,0.0894622802734375,-0.1599578857421875,12147.93284075,1.083393009867902,1.41081021929476,-0.09148432347370362,0.01350930333137512,0.1206759512424469,0.02803224511444569,0.003062963485717773,-0.008379161357879639,0.002720832824707031,2,-0.3637589220859423,0.5369918904143524,0.3667316444516997,0.6669535429397462,0.9831011295318604,0.09135676920413971,-0.1586383134126663,42.3016357421875,34.760986328125,29.8353271484375,2,12146.668001875,2,0,1580908430.909168,1580903939.50652,2812,0.4882443,0.8424244,1.869819,3369.779,14,15,1580908429.378576,12144.766354,0,18.46716,96.98878
1580908432.156094,83,0,1580907286.99823,41.20781296037784,29.0754925099451,275.2123,0.1345286,-1,23.46983528137207,200,-9999,12147.95292075,0.9604034423828125,0.09423828125,-0.1588592529296875,12147.94288075,1.08328623582871,1.412028334763578,-0.09114210927124886,0.01610873267054558,0.1238902732729912,0.03101956471800804,-0.02268886566162109,-0.002620220184326172,-0.004853725433349609,2,-0.363844637147469,0.5374888546440522,0.366572543085024,0.666593980383822,0.9833245873451233,0.09101597964763641,-0.1574456244707108,42.13934326171875,34.78803253173828,29.76885986328125,2,12146.668001875,2,0,1580908430.909168,1580903939.50652,2812,0.4882443,0.8424244,1.869819,3369.779,14,15,1580908429.378576,12144.766354,0,18.46716,96.98878
1580908432.165909,84,0,1580907286.99823,41.20781296037784,29.0754925099451,275.2123,0.1345286,-1,23.46983528137207,200,-9999,12147.96296075,0.962432861328125,0.089691162109375,-0.159576416015625,12147.95292075,1.083176586276533,1.413260742466703,-0.090699101881273,0.01650234684348106,0.1226140931248665,0.04212681204080582,-0.02696627378463745,0.003178268671035767,-0.005880832672119141,2,-0.3639001793849279,0.5380117984587361,0.366438777207967,0.6662150751446799,0.983557403087616,0.09057480096817017,-0.156239926815033,42.03402709960938,34.81703948974609,29.99053955078125,2,12147.95389775,4,2,1580908432.195064,1580903939.50652,2812,0.4882443,0.8424244,1.869819,3369.779,14,15,1580908429.378576,12144.766354,0,18.46716,96.98878
1580908432.176013,85,0,1580907286.99823,41.20781296037784,29.0754925099451,275.2123,0.1345286,-1,23.46983528137207,200,-9999,12147.97300175,0.9783782958984375,0.0821990966796875,-0.1548309326171875,12147.96296075,1.083060144812805,1.414569460593208,-0.09021019960363146,0.01823108643293381,0.1336724460124969,0.04729728400707245,-0.02536797523498535,-8.672475814819336e-05,-0.007623255252838135,2,-0.3639531397031095,0.5385706740806098,0.3663021230467876,0.6658096961725235,0.9838047623634338,0.0900878980755806,-0.1549594849348068,42.03402709960938,34.81703948974609,29.99053955078125,2,12147.95389775,4,2,1580908432.195064,1580903939.50652,2812,0.4882443,0.8424244,1.869819,3369.779,14,15,1580908429.378576,12144.766354,0,18.46716,96.98878
1580908432.210789,86,0,1580907286.99823,41.20781296037784,29.0754925099451,275.2123,0.1345286,-1,23.46983528137207,200,-9999,12147.98304175,0.98681640625,0.0749664306640625,-0.155670166015625,12147.97300175,1.082981059064351,1.415789987731487,-0.08982336480827624,0.01333886012434959,0.1207262873649597,0.03689710795879364,-0.01115643978118896,-0.00678020715713501,-0.004596114158630371,2,-0.3640324085069234,0.5390718087285393,0.3661647097707122,0.6654363196113353,0.9840275645256042,0.08970262855291367,-0.1537639796733856,42.11322021484375,34.78115844726562,29.85714721679688,2,12147.95389775,4,2,1580908432.195064,1580903939.50652,2812,0.4882443,0.8424244,1.869819,3369.779,14,15,1580908429.378576,12144.766354,0,18.46716,96.98878
1580908432.212133,87,0,1580907286.99823,41.20781296037784,29.0754925099451,275.2123,0.1345286,-1,23.46983528137207,200,-9999,12147.99308175,1.00286865234375,0.0734405517578125,-0.1434326171875,12147.98304175,1.082943867200046,1.417072642798404,-0.08961534507537827,0.006261625327169895,0.1348152160644531,0.02001889050006866,-0.001057028770446777,-0.01452210545539856,-0.005875229835510254,2,-0.3641911103960684,0.5395484876275395,0.3659785607248793,0.6650653853061212,0.98424232006073,0.08949544280767441,-0.1525045335292816,42.11322021484375,34.78115844726562,29.85714721679688,2,12147.95389775,4,2,1580908432.195064,1580903939.50652,2812,0.4882443,0.8424244,1.869819,3369.779,14,15,1580908429.378576,12144.766354,0,18.46716,96.98878
1580908432.213005,88,0,1580907286.99823,41.20781296037784,29.0754925099451,275.2123,0.1345286,-1,23.46983528137207,200,-9999,12148.00312275,1.010147094726562,0.0750274658203125,-0.1335906982421875,12147.99308175,1.082911406006399,1.41804489544005,-0.08967113153595835,0.003556919284164906,0.09675038605928421,-0.006793813779950142,0.01241052150726318,-0.01619529724121094,0.003234624862670898,2,-0.3643778969464256,0.5398660571133026,0.3657746566240115,0.6648175620492659,0.9843852519989014,0.08955100923776627,-0.1515467762947083,42.17955017089844,35.00991058349609,30.1689453125,2,12147.95389775,4,2,1580908432.195064,1580903939.50652,2812,0.4882443,0.8424244,1.869819,3369.779,14,15,1580908429.378576,12144.766354,0,18.46716,96.98878
1580908432.216233,89,0,1580907286.99823,41.20781296037784,29.0754925099451,275.2123,0.1345286,-1,23.46983528137207,200,-9999,12148.01316275,0.9922332763671875,0.078521728515625,-0.1442108154296875,12148.00312275,1.082870421960234,1.418562956009705,-0.0899946859002818,0.000388244166970253,0.05072377994656563,-0.03216980025172234,0.02336215972900391,-0.01574045419692993,0.01451325416564941,2,-0.3645642583255455,0.5399784422088814,0.3655735831995324,0.6647346160157672,0.9844348430633545,0.08987325429916382,-0.1510323733091354,42.17955017089844,35.00991058349609,30.1689453125,2,12147.95389775,4,2,1580908432.195064,1580903939.50652,2812,0.4882443,0.8424244,1.869819,3369.779,14,15,1580908429.378576,12144.766354,0,18.46716,96.98878
1580908432.226196,90,0,1580907286.99823,41.20781296037784,29.0754925099451,275.2123,0.1345286,-1,23.46983528137207,200,-9999,12148.02320275,0.988555908203125,0.0702056884765625,-0.1530914306640625,12148.01316275,1.082764198545897,1.418949258252668,-0.09064448617313968,0.001944329589605331,0.03568490594625473,-0.06460709869861603,0.006119310855865479,-0.01194962859153748,0.00507432222366333,2,-0.3648122627865666,0.5399911167329333,0.3652809352596076,0.6647492121734792,0.9844352602958679,0.09052041172981262,-0.1506432145833969,42.22150421142578,34.89425659179688,30.05587768554688,2,12147.95389775,4,2,1580908432.195064,1580903939.50652,2812,0.4882443,0.8424244,1.869819,3369.779,14,15,1580908429.378576,12144.766354,0,18.46716,96.98878
1580908432.236266,91,0,1580907286.99823,41.20781296037784,29.0754925099451,275.2123,0.1345286,-1,23.46983528137207,200,-9999,12148.03327375,1.003829956054688,0.0713043212890625,-0.14410400390625,12148.02320275,1.082600006511993,1.419410225642354,-0.09172280737489595,0.001334198750555515,0.0483303926885128,-0.1096496731042862,-0.0005055069923400879,-0.02100756764411926,-0.0059548020362854,2,-0.3651939882418265,0.5399500436793148,0.3648318933901151,0.6648196011672819,0.9844075441360474,0.09159424901008606,-0.1501746028661728,42.22150421142578,34.89425659179688,30.05587768554688,2,12147.95389775,4,2,1580908432.195064,1580903939.50652,2812,0.4882443,0.8424244,1.869819,3369.779,14,15,1580908429.378576,12144.766354,0,18.46716,96.98878
1580908432.269915,92,0,1580907286.99823,41.20781296037784,29.0754925099451,275.2123,0.1345286,-1,23.46983528137207,200,-9999,12148.04331375,1.004470825195312,0.08416748046875,-0.13470458984375,12148.03327375,1.082438367073936,1.419683700489916,-0.09312426728307084,-0.004732215777039528,0.03214849531650543,-0.1406832337379456,0.01505410671234131,-0.02256044745445251,0.001537501811981201,2,-0.3656443942965819,0.5397788625180195,0.3643245883079533,0.6649892071846432,0.9843207001686096,0.0929897278547287,-0.1498859077692032,42.17281341552734,34.97152328491211,30.10665893554688,2,12147.95389775,4,2,1580908432.195064,1580903939.50652,2812,0.4882443,0.8424244,1.869819,3369.779,14,15,1580908429.378576,12144.766354,0,18.46716,96.98878
1580908432.27142,93,0,1580907286.99823,41.20781296037784,29.0754925099451,275.2123,0.1345286,-1,23.46983528137207,200,-9999,12148.05335375,0.988616943359375,0.0919189453125,-0.139862060546875,12148.04331375,1.082266289031453,1.41945843534968,-0.09465598770628436,-0.005675393156707287,-0.02295402623713017,-0.1543231308460236,0.01776349544525146,-0.01212781667709351,0.01193118095397949,2,-0.366042269498806,0.5394164136173484,0.3638672124459705,0.665314686376262,0.9841448664665222,0.09451470524072647,-0.150085985660553,42.17281341552734,34.97152328491211,30.10665893554688,2,12147.95389775,4,2,1580908432.195064,1580903939.50652,2812,0.4882443,0.8424244,1.869819,3369.779,14,15,1580908429.378576,12144.766354,0,18.46716,96.98878
1580908432.272596,94,0,1580907286.99823,41.20781296037784,29.0754925099451,275.2123,0.1345286,-1,23.46983528137207,200,-9999,12148.06339475,0.9722442626953125,0.0940399169921875,-0.146392822265625,12148.05335375,1.082071934454009,1.418871034343487,-0.09621504114826347,-0.004051131196320057,-0.05718709900975227,-0.1579234600067139,0.003137409687042236,-0.004789471626281738,0.008902788162231445,2,-0.3663769137907771,0.5389315165966881,0.3634607332732958,0.6657454806303442,0.9839096665382385,0.0960666611790657,-0.1506415605545044,42.08736419677734,35.08194351196289,30.04183959960938,2,12147.95389775,4,2,1580908432.195064,1580903939.50652,2812,0.4882443,0.8424244,1.869819,3369.779,14,15,1580908429.378576,12144.766354,0,18.46716,96.98878
1580908432.276457,95,0,1580907286.99823,41.20781296037784,29.0754925099451,275.2123,0.1345286,-1,23.46983528137207,200,-9999,12148.07343475,0.9578857421875,0.10064697265625,-0.146636962890625,12148.06339475,1.081916333093623,1.418017965690198,-0.09770537478528631,-0.007255003787577152,-0.08199398964643478,-0.1530652642250061,-0.01337486505508423,-0.004019677639007568,0.002307295799255371,2,-0.3666520612105025,0.5383649454185228,0.3631356544175702,0.6662297303124076,0.9836383461952209,0.09754999727010727,-0.1514589041471481,42.08736419677734,35.08194351196289,30.04183959960938,2,12147.95389775,4,2,1580908432.195064,1580903939.50652,2812,0.4882443,0.8424244,1.869819,3369.779,14,15,1580908429.378576,12144.766354,0,18.46716,96.98878
1580908432.286561,96,0,1580907286.99823,41.20781296037784,29.0754925099451,275.2123,0.1345286,-1,23.46983528137207,200,-9999,12148.08347475,0.936614990234375,0.0991668701171875,-0.163116455078125,12148.07343475,1.081826635807708,1.417029118674108,-0.09896681800634298,-0.01115626841783524,-0.1021368056535721,-0.1256504207849503,-0.02720034122467041,0.0007173418998718262,0.003203272819519043,2,-0.3668480318605656,0.5377883057371712,0.3629234745985698,0.6667029692248099,0.9833656549453735,0.09880534559488297,-0.1524125188589096,41.94346618652344,35.25780487060547,30.12640380859375,2,12147.95389775,4,2,1580908432.195064,1580903939.50652,2812,0.4882443,0.8424244,1.869819,3369.779,14,15,1580908429.378576,12144.766354,0,18.46716,96.98878
1580908432.296625,97,0,1580907286.99823,41.20781296037784,29.0754925099451,275.2123,0.1345286,-1,23.46983528137207,200,-9999,12148.09351575,0.9453887939453125,0.0924224853515625,-0.1676788330078125,12148.08347475,1.081734908018446,1.416442457213234,-0.100098795595522,-0.008771388791501522,-0.05787873268127441,-0.1128950342535973,-0.04808640480041504,-0.0001077950000762939,-0.01091396808624268,2,-0.3670755242994971,0.5373727804050082,0.3626742509436726,0.6670483687857655,0.9831649661064148,0.09993171691894531,-0.1529721021652222,41.94346618652344,35.25780487060547,30.12640380859375,2,12147.95389775,4,2,1580908432.195064,1580903939.50652,2812,0.4882443,0.8424244,1.869819,3369.779,14,15,1580908429.378576,12144.766354,0,18.46716,96.98878
1580908432.332181,98,0,1580907286.99823,41.20781296037784,29.0754925099451,275.2123,0.1345286,-1,23.46983528137207,200,-9999,12148.10355575,0.975860595703125,0.098114013671875,-0.14697265625,12148.09351575,1.081659227929267,1.416157057937107,-0.1011938314395314,-0.01051922142505646,-0.02278066612780094,-0.1093098893761635,-0.04462194442749023,-0.008830428123474121,-0.01894998550415039,2,-0.3673503332000581,0.5370622530810634,0.3623857194470131,0.6673038651511325,0.9830124378204346,0.1010212153196335,-0.1532357335090637,41.9913330078125,35.13307571411133,30.16952514648438,2,12147.95389775,4,2,1580908432.195064,1580903939.50652,2812,0.4882443,0.8424244,1.869819,3369.779,14,15,1580908429.378576,12144.766354,0,18.46716,96.98878
1580908432.333643,99,0,1580907286.99823,41.20781296037784,29.0754925099451,275.2123,0.1345286,-1,23.46983528137207,200,-9999,12148.11359575,0.9698944091796875,0.0970916748046875,-0.151519775390625,12148.10355575,1.08156920061432,1.415691588150024,-0.1022919154397219,-0.009100459516048431,-0.04677917808294296,-0.1089346185326576,-0.01137363910675049,-0.005150645971298218,0.002564430236816406,2,-0.3675896298676581,0.5366934300083221,0.3621245894071204,0.6676105008571165,0.982830822467804,0.1021136194467545,-0.1536760479211807,41.9913330078125,35.13307571411133,30.16952514648438,2,12147.95389775,4,2,1580908432.195064,1580903939.50652,2812,0.4882443,0.8424244,1.869819,3369.779,14,15,1580908429.378576,12144.766354,0,18.46716,96.98878
1580908432.334666,100,0,1580907286.99823,41.20781296037784,29.0754925099451,275.2123,0.1345286,-1,23.46983528137207,200,-9999,12148.12366675,0.9676361083984375,0.0889892578125,-0.1607666015625,12148.11359575,1.081448633894338,1.41520314173,-0.1035157349150019,-0.006700152531266212,-0.04905378445982933,-0.1226200759410858,-0.01547658443450928,-0.005548298358917236,0.0009208917617797852,2,-0.3678564245079607,0.5362959444166703,0.3618212409362175,0.6679474094118099,0.982631504535675,0.1033309623599052,-0.1541366279125214,41.87940216064453,35.35866928100586,30.24526977539062,2,12147.95389775,4,2,1580908432.195064,1580903939.50652,2812,0.4882443,0.8424244,1.869819,3369.779,14,15,1580908429.378576,12145.709872,0,18.42755,96.98923
1580908432.336702,101,0,1580907286.99823,41.20781296037784,29.0754925099451,275.2123,0.1345286,-1,23.46983528137207,200,-9999,12148.13370675,0.9683380126953125,0.089569091796875,-0.163909912109375,12148.12366675,1.081380034528931,1.414900460758906,-0.1049500955093547,-0.01586954854428768,-0.02986443415284157,-0.1427981406450272,-0.01804351806640625,-0.01590627431869507,-0.008844077587127686,2,-0.3682374554652229,0.535906467601702,0.3614403157426532,0.6682562263374345,0.9824373722076416,0.1047575399279594,-0.1544108688831329,41.87940216064453,35.35866928100586,30.24526977539062,2,12147.95389775,4,2,1580908432.195064,1580903939.50652,2812,0.4882443,0.8424244,1.869819,3369.779,14,15,1580908429.378576,12145.709872,0,18.42755,96.98923
1580908432.346904,102,0,1580907286.99823,41.20781296037784,29.0754925099451,275.2123,0.1345286,-1,23.46983528137207,200,-9999,12148.14374775,0.9693756103515625,0.0960540771484375,-0.157928466796875,12148.13370675,1.081366935460426,1.414788001080325,-0.1065736963248339,-0.02406276389956474,-0.0107245622202754,-0.1614306718111038,-0.01773405075073242,-0.01734331250190735,-0.01237618923187256,2,-0.3687275214645257,0.5355302527026103,0.3609881923650801,0.668531957551167,0.9822507500648499,0.1063720658421516,-0.1544947326183319,41.81935119628906,35.50297164916992,30.27728271484375,2,12147.95389775,4,2,1580908432.195064,1580903939.50652,2812,0.4882443,0.8424244,1.869819,3369.779,14,15,1580908429.378576,12145.709872,0,18.42755,96.98923
1580908432.356792,103,0,1580907286.99823,41.20781296037784,29.0754925099451,275.2123,0.1345286,-1,23.46983528137207,200,-9999,12148.15378775,0.9594268798828125,0.1079864501953125,-0.1513671875,12148.14374775,1.081413675061522,1.414714861321246,-0.1082666958549391,-0.03134506940841675,-0.006507142446935177,-0.1686895489692688,-0.01587951183319092,-0.01337155699729919,-0.007251262664794922,2,-0.3692624691701953,0.535141153964278,0.3605285906904309,0.6687962112664139,0.9820601344108582,0.1080553084611893,-0.1545383483171463,41.81935119628906,35.50297164916992,30.27728271484375,2,12147.95389775,4,2,1580908432.195064,1580903939.50652,2812,0.4882443,0.8424244,1.869819,3369.779,14,15,1580908429.378576,12145.709872,0,18.42755,96.98923
1580908432.3912,104,0,1580907286.99823,41.20781296037784,29.0754925099451,275.2123,0.1345286,-1,23.46983528137207,200,-9999,12148.16382775,0.948150634765625,0.1125030517578125,-0.1553192138671875,12148.15378775,1.081487565250261,1.414601416385217,-0.1098384799693396,-0.03260767459869385,-0.01389501802623272,-0.1549566984176636,-0.02428311109542847,-0.003098577260971069,9.709596633911133e-05,2,-0.3697588281067662,0.5347586677346445,0.3601203394519447,0.6690478548121973,0.981873631477356,0.109617754817009,-0.1546231508255005,41.7293701171875,35.43716049194336,30.15789794921875,2,12147.95389775,4,2,1580908432.195064,1580903939.50652,2812,0.4882443,0.8424244,1.869819,3369.779,14,15,1580908429.378576,12145.709872,0,18.42755,96.98923
1580908432.392523,105,0,1580907286.99823,41.20781296037784,29.0754925099451,275.2123,0.1345286,-1,23.46983528137207,200,-9999,12148.17386775,0.9582672119140625,0.1096954345703125,-0.154449462890625,12148.16382775,1.081518697605447,1.41457340886745,-0.111236559788069,-0.02488619461655617,-0.0002842098474502563,-0.1365621834993362,-0.03685188293457031,0.001076400279998779,-0.003302335739135742,2,-0.3702040642120434,0.534448901465349,0.3597319985749593,0.6692579762883256,0.9817168712615967,0.1110073029994965,-0.1546266376972198,41.7293701171875,35.43716049194336,30.15789794921875,2,12147.95389775,4,2,1580908432.195064,1580903939.50652,2812,0.4882443,0.8424244,1.869819,3369.779,14,15,1580908429.378576,12145.709872,0,18.42755,96.98923
1580908432.393493,106,0,1580907286.99823,41.20781296037784,29.0754925099451,275.2123,0.1345286,-1,23.46983528137207,200,-9999,12148.18390875,0.97100830078125,0.1067657470703125,-0.1549530029296875,12148.17386775,1.081555460667122,1.414524274018305,-0.1125638591075975,-0.02306166291236877,-0.005768457427620888,-0.1290621906518936,-0.0283353328704834,-0.00270378589630127,-0.003048062324523926,2,-0.3706244589103042,0.5341456795892259,0.3593697664013407,0.6694619107012574,0.9815628528594971,0.1123263016343117,-0.1546518057584763,41.57274627685547,35.77726364135742,30.26675415039062,2,12147.95389775,4,2,1580908432.195064,1580903939.50652,2812,0.4882443,0.8424244,1.869819,3369.779,14,15,1580908429.378576,12145.709872,0,18.42755,96.98923
1580908432.39698,107,0,1580907286.99823,41.20781296037784,29.0754925099451,275.2123,0.1345286,-1,23.46983528137207,200,-9999,12148.19394875,0.992828369140625,0.104736328125,-0.148834228515625,12148.18390875,1.081614046097961,1.414495039190064,-0.1139972377918075,-0.02629096992313862,-0.001175075769424438,-0.1400525569915771,-0.01475751399993896,-0.007199972867965698,-0.003151178359985352,2,-0.3710875578940001,0.5338224224385293,0.3589803537651592,0.6696721645054907,0.981398344039917,0.1137504950165749,-0.1546552926301956,41.57274627685547,35.77726364135742,30.26675415039062,2,12147.95389775,4,2,1580908432.195064,1580903939.50652,2812,0.4882443,0.8424244,1.869819,3369.779,14,15,1580908429.378576,12145.709872,0,18.42755,96.98923
1580908432.407146,108,0,1580907286.99823,41.20781296037784,29.0754925099451,275.2123,0.1345286,-1,23.46983528137207,200,-9999,12148.20398875,1.021316528320312,0.1065673828125,-0.1414642333984375,12148.19394875,1.081679626911574,1.41426019863629,-0.11565128396734,-0.03195418044924736,-0.02225852198898792,-0.1619258970022202,0.004845499992370605,-0.0109088122844696,0.002146899700164795,2,-0.3715851500384349,0.5333820128524328,0.3585674680592782,0.6699682721043989,0.9811747670173645,0.1153936460614204,-0.1548562049865723,41.57850646972656,35.81061935424805,30.18051147460938,2,12147.95389775,4,2,1580908432.195064,1580903939.50652,2812,0.4882443,0.8424244,1.869819,3369.779,14,15,1580908429.378576,12145.709872,0,18.42755,96.98923
1580908432.417059,109,0,1580907286.99823,41.20781296037784,29.0754925099451,275.2123,0.1345286,-1,23.46983528137207,200,-9999,12148.21402975,0.9999237060546875,0.110260009765625,-0.1494140625,12148.20398875,1.081777004104136,1.413491372872831,-0.1175677427609276,-0.03867688030004501,-0.0808015763759613,-0.1885731518268585,0.03593254089355469,-0.01170504093170166,0.0108642578125,2,-0.3720781828068126,0.5327006931056922,0.3581885473874116,0.6704392887607451,0.9808352589607239,0.1172970905900002,-0.1555755883455276,41.57850646972656,35.81061935424805,30.18051147460938,2,12147.95389775,4,2,1580908432.195064,1580903939.50652,2812,0.4882443,0.8424244,1.869819,3369.779,14,15,1580908429.378576,12145.709872,0,18.42755,96.98923
1580908432.450196,110,0,1580907286.99823,41.20781296037784,29.0754925099451,275.2123,0.1345286,-1,23.46983528137207,200,-9999,12148.22409975,0.957763671875,0.1074981689453125,-0.1726226806640625,12148.21402975,1.081938428662028,1.412508025642475,-0.1196810067474642,-0.04920542240142822,-0.1050155684351921,-0.2086227685213089,0.02032792568206787,-0.009446769952774048,0.005994200706481934,2,-0.3726119665291087,0.5318928727850436,0.357814239715871,0.6709838043812709,0.9804347157478333,0.1193955019116402,-0.1565005928277969,41.42949676513672,35.75286102294922,30.35592651367188,2,12147.95389775,4,2,1580908432.195064,1580903939.50652,2812,0.4882443,0.8424244,1.869819,3369.779,14,15,1580908429.378576,12145.709872,0,18.42755,96.98923
1580908432.451495,111,0,1580907286.99823,41.20781296037784,29.0754925099451,275.2123,0.1345286,-1,23.46983528137207,200,-9999,12148.23414075,0.9535369873046875,0.1181488037109375,-0.1662139892578125,12148.22409975,1.082074735809039,1.411970362946487,-0.1218694497539864,-0.04801381379365921,-0.05054790526628494,-0.2159722894430161,-0.02267634868621826,-0.01483124494552612,-0.0172460675239563,2,-0.3732423787726216,0.5312222915413276,0.3573268432341589,0.6714242545456,0.9800900816917419,0.121568001806736,-0.1569860130548477,41.42949676513672,35.75286102294922,30.35592651367188,2,12147.95389775,4,2,1580908432.195064,1580903939.50652,2812,0.4882443,0.8424244,1.869819,3369.779,14,15,1580908429.378576,12145.709872,0,18.42755,96.98923
1580908432.452478,112,0,1580907286.99823,41.20781296037784,29.0754925099451,275.2123,0.1345286,-1,23.46983528137207,200,-9999,12148.24418075,0.9662933349609375,0.1219024658203125,-0.15185546875,12148.23414075,1.082159688234365,1.411674301086032,-0.124001663772475,-0.04294528812170029,-0.02786709181964397,-0.2089271545410156,-0.03105294704437256,-0.007021337747573853,-0.01379215717315674,2,-0.3738843158502496,0.5306535099207318,0.3567932967717866,0.6718005192294372,0.9797854423522949,0.1236841231584549,-0.1572347432374954,41.42073822021484,35.96477890014648,30.30221557617188,2,12147.95389775,4,2,1580908432.195064,1580903939.50652,2812,0.4882443,0.8424244,1.869819,3369.779,14,15,1580908429.378576,12145.709872,0,18.42755,96.98923
1580908432.457251,113,0,1580907286.99823,41.20781296037784,29.0754925099451,275.2123,0.1345286,-1,23.46983528137207,200,-9999,12148.25422075,0.9581146240234375,0.1272430419921875,-0.1452484130859375,12148.24418075,1.082249679648478,1.411252633084389,-0.1260674000438184,-0.04239685088396072,-0.04215247184038162,-0.2033351063728333,-0.01715099811553955,-0.004119008779525757,0.001885771751403809,2,-0.374483963244235,0.5300549831006215,0.3563040465145252,0.6721986174525466,0.9794647693634033,0.1257337331771851,-0.1576069593429565,41.42073822021484,35.96477890014648,30.30221557617188,2,12147.95389775,4,2,1580908432.195064,1580903939.50652,2812,0.4882443,0.8424244,1.869819,3369.779,14,15,1580908429.378576,12145.709872,0,18.42755,96.98923
1580908432.467746,114,0,1580907286.99823,41.20781296037784,29.0754925099451,275.2123,0.1345286,-1,23.46983528137207,200,-9999,12148.26426075,0.956634521484375,0.129302978515625,-0.1504364013671875,12148.25422075,1.082332832192161,1.410677610517302,-0.127990452539039,-0.0388665646314621,-0.05643580481410027,-0.1880786418914795,-0.02321207523345947,-0.001653969287872314,0.009583532810211182,2,-0.3750093566460619,0.5294358586442197,0.355882523442041,0.6726168578662806,0.9791335463523865,0.1276412904262543,-0.1581313014030457,41.13718414306641,36.2140998840332,30.33102416992188,2,12147.95389775,4,2,1580908432.195064,1580903939.50652,2812,0.4882443,0.8424244,1.869819,3369.779,14,15,1580908429.378576,12145.709872,0,18.42755,96.98923
1580908432.477335,115,0,1580907286.99823,41.20781296037784,29.0754925099451,275.2123,0.1345286,-1,23.46983528137207,200,-9999,12148.27430175,0.9671478271484375,0.126068115234375,-0.155364990234375,12148.26426075,1.082386764937223,1.410009463958369,-0.1297770069766748,-0.03320467472076416,-0.0651375949382782,-0.1755286008119583,-0.02626597881317139,-7.50124454498291e-05,0.006220221519470215,2,-0.3754674633982238,0.5288192890339212,0.3555082125140853,0.6730439753880093,0.9788008332252502,0.1294130235910416,-0.1587486863136292,41.13718414306641,36.2140998840332,30.33102416992188,2,12147.95389775,4,2,1580908432.195064,1580903939.50652,2812,0.4882443,0.8424244,1.869819,3369.779,14,15,1580908429.378576,12145.709872,0,18.42755,96.98923
1580908432.508865,116,0,1580907286.99823,41.20781296037784,29.0754925099451,275.2123,0.1345286,-1,23.46983528137207,200,-9999,12148.28434166667,0.9699554443359375,0.126678466796875,-0.1562042236328125,12148.27430175,1.082447257497296,1.409228074668081,-0.1314542388993346,-0.03275512903928757,-0.07880626618862152,-0.1658778488636017,-0.01593053340911865,-0.00546690821647644,0.001062333583831787,2,-0.3758727068723652,0.5281860954861729,0.3551891773112202,0.6734832472558407,0.9784607887268066,0.1310759782791138,-0.1594783067703247,40.96041870117188,36.38209915161133,30.43292236328125,2,12147.95389775,4,2,1580908432.195064,1580903939.50652,2812,0.4882443,0.8424244,1.869819,3369.779,14,15,1580908429.378576,12145.709872,0,18.42755,96.98923
1580908432.510244,117,0,1580907286.99823,41.20781296037784,29.0754925099451,275.2123,0.1345286,-1,23.46983528137207,200,-9999,12148.29438166667,0.9716644287109375,0.12493896484375,-0.1634063720703125,12148.28434166667,1.082522068905875,1.408449576505031,-0.1329970259491518,-0.03339721262454987,-0.08171194791793823,-0.1512172222137451,-0.01142323017120361,-0.006025135517120361,0.001778602600097656,2,-0.3762398700624975,0.5275793655884601,0.354913559654226,0.6738991190612234,0.9781358242034912,0.1326052993535995,-0.1602071523666382,40.96041870117188,36.38209915161133,30.43292236328125,2,12147.95389775,4,2,1580908432.195064,1580903939.50652,2812,0.4882443,0.8424244,1.869819,3369.779,14,15,1580908429.378576,12145.709872,0,18.42755,96.98923
1580908432.511224,118,0,1580907286.99823,41.20781296037784,29.0754925099451,275.2123,0.1345286,-1,23.46983528137207,200,-9999,12148.30442266667,1.002700805664062,0.136322021484375,-0.142242431640625,12148.29438166667,1.082542787103395,1.407673753595854,-0.1344882476921331,-0.02699311077594757,-0.07221191376447678,-0.1474443227052689,-0.0110708475112915,-0.009934335947036743,-0.005793094635009766,2,-0.3765770925819815,0.5269941728979087,0.3546342755472333,0.6743155662055802,0.9778150320053101,0.1340831965208054,-0.1609336733818054,41.11865997314453,36.35620498657227,30.51351928710938,2,12147.95389775,4,2,1580908432.195064,1580903939.50652,2812,0.4882443,0.8424244,1.869819,3369.779,14,15,1580908429.378576,12145.709872,0,18.42755,96.98923
1580908432.517806,119,0,1580907286.99823,41.20781296037784,29.0754925099451,275.2123,0.1345286,-1,23.46983528137207,200,-9999,12148.31449266667,1.013458251953125,0.1475677490234375,-0.13336181640625,12148.30442266667,1.082371355635573,1.406209777648974,-0.1359918210554225,-0.009147202596068382,-0.140960156917572,-0.1525056213140488,0.01811504364013672,-0.001480609178543091,0.01489710807800293,2,-0.376745799918549,0.526209768689908,0.3544163411321347,0.6749480994022836,0.9773783087730408,0.1355730444192886,-0.162331759929657,41.11865997314453,36.35620498657227,30.51351928710938,2,12147.95389775,4,2,1580908432.195064,1580903939.50652,2812,0.4882443,0.8424244,1.869819,3369.779,14,15,1580908429.378576,12145.709872,0,18.42755,96.98923
1580908432.527654,120,0,1580907286.99823,41.20781296037784,29.0754925099451,275.2123,0.1345286,-1,23.46983528137207,200,-9999,12148.32453366667,0.9919586181640625,0.1424560546875,-0.1516571044921875,12148.31449266667,1.081938141894675,1.403865973394224,-0.1375203135420913,0.01656907796859741,-0.2283475250005722,-0.1557152569293976,0.03501760959625244,0.009664654731750488,0.02843713760375977,2,-0.3766980881746133,0.5251712202999281,0.354268718017302,0.6758605217881288,0.9767897129058838,0.1370872557163239,-0.1645874828100204,40.90018463134766,36.33101654052734,30.54373168945312,2,12147.95389775,4,2,1580908432.195064,1580903939.50652,2812,0.4882443,0.8424244,1.869819,3369.779,14,15,1580908429.378576,12145.709872,0,18.42755,96.98923
1580908432.537861,121,0,1580907286.99823,41.20781296037784,29.0754925099451,275.2123,0.1345286,-1,23.46983528137207,200,-9999,12148.33457366667,0.92523193359375,0.13409423828125,-0.1734466552734375,12148.32453366667,1.081348787114103,1.401128250003884,-0.1390447681900321,0.03466559201478958,-0.2711248099803925,-0.1628694534301758,0.01595187187194824,0.004289001226425171,0.01487982273101807,2,-0.3765392060571974,0.5240280961122443,0.3541436536238752,0.6769011117869372,0.9761283397674561,0.138597160577774,-0.1672255545854568,40.90018463134766,36.33101654052734,30.54373168945312,2,12147.95389775,4,2,1580908432.195064,1580903939.50652,2812,0.4882443,0.8424244,1.869819,3369.779,14,15,1580908429.378576,12145.709872,0,18.42755,96.98923
1580908432.569723,122,0,1580907286.99823,41.20781296037784,29.0754925099451,275.2123,0.1345286,-1,23.46983528137207,200,-9999,12148.34461366667,0.8985748291015625,0.1301422119140625,-0.1988067626953125,12148.33457366667,1.080818316370734,1.398768932664783,-0.1403249750432873,0.02926310338079929,-0.2279142141342163,-0.1364900469779968,-0.04739224910736084,-0.005604326725006104,-0.003820836544036865,2,-0.3763865768622153,0.5230529138261493,0.3540378173669827,0.677795062415306,0.9755555391311646,0.139864906668663,-0.1694975942373276,40.97431945800781,36.33884429931641,30.2398681640625,2,12147.95389775,4,2,1580908432.195064,1580903939.50652,2812,0.4882443,0.8424244,1.869819,3369.779,14,15,1580908429.378576,12145.709872,0,18.42755,96.98923
1580908432.571896,123,0,1580907286.99823,41.20781296037784,29.0754925099451,275.2123,0.1345286,-1,23.46983528137207,200,-9999,12148.35465466667,0.8787689208984375,0.1278533935546875,-0.198211669921875,12148.34461366667,1.080448899027695,1.397004731855411,-0.1412317342910353,0.01971431449055672,-0.1714116781949997,-0.09461323916912079,-0.07899308204650879,-0.01089978218078613,-0.02979570627212524,2,-0.3762641379159368,0.5223285458755578,0.353982412973151,0.6784501605362615,0.9751295447349548,0.1407626867294312,-0.1711963713169098,40.97431945800781,36.33884429931641,30.2398681640625,2,12147.95389775,4,2,1580908432.195064,1580903939.50652,2812,0.4882443,0.8424244,1.869819,3369.779,14,15,1580908429.378576,12145.709872,0,18.42755,96.98923
1580908432.573528,124,0,1580907286.99823,41.20781296037784,29.0754925099451,275.2123,0.1345286,-1,23.46983528137207,200,-9999,12148.36469466667,0.8757171630859375,0.127899169921875,-0.205780029296875,12148.35465466667,1.080346926473267,1.395962492278635,-0.1417698720945905,0.0004551326856017113,-0.1057578399777412,-0.05452600866556168,-0.0970185399055481,-0.01329603791236877,-0.02822458744049072,2,-0.3762230641200535,0.5218778626462232,0.3539884142628232,0.678816550098519,0.9748758673667908,0.1412954479455948,-0.1721993982791901,40.84733581542969,36.33697509765625,30.2010498046875,2,12147.95389775,4,2,1580908432.195064,1580903939.50652,2812,0.4882443,0.8424244,1.869819,3369.779,14,15,1580908429.378576,12145.709872,0,18.42755,96.98923
1580908432.577635,125,0,1580907286.99823,41.20781296037784,29.0754925099451,275.2123,0.1345286,-1,23.46983528137207,200,-9999,12148.37473466667,0.90155029296875,0.135223388671875,-0.1768798828125,12148.36469466667,1.080439616248814,1.39567467123647,-0.1419501136626126,-0.009261356666684151,-0.02393866330385208,-0.0160588975995779,-0.104328989982605,-0.01504674553871155,-0.03717911243438721,2,-0.376253239200839,0.5217237972251502,0.3540219696657237,0.6789008056669755,0.974801242351532,0.1414738744497299,-0.1724755614995956,40.84733581542969,36.33697509765625,30.2010498046875,2,12147.95389775,4,2,1580908432.195064,1580903939.50652,2812,0.4882443,0.8424244,1.869819,3369.779,14,15,1580908429.378576,12145.709872,0,18.42755,96.98923
1580908432.587993,126,0,1580907286.99823,41.20781296037784,29.0754925099451,275.2123,0.1345286,-1,23.46983528137207,200,-9999,12148.38477466667,0.908905029296875,0.12884521484375,-0.195892333984375,12148.37473466667,1.080766023955509,1.395744046036461,-0.141906768172626,-0.03246654570102692,-0.003986526280641556,0.009426223114132881,-0.07849860191345215,-0.006275653839111328,-0.008803367614746094,2,-0.3763369619646498,0.5216953030755913,0.3541322305851516,0.6788188067329973,0.9748192429542542,0.1414309740066528,-0.1724089980125427,41.00106048583984,36.52924346923828,30.10055541992188,2,12147.95389775,4,2,1580908432.195064,1580903939.50652,2812,0.4882443,0.8424244,1.869819,3369.779,14,15,1580908429.378576,12145.709872,0,18.42755,96.98923
1580908432.598351,127,0,1580907286.99823,41.20781296037784,29.0754925099451,275.2123,0.1345286,-1,23.46983528137207,200,-9999,12148.39481566667,0.9353179931640625,0.1301116943359375,-0.1866607666015625,12148.38477466667,1.081232916525518,1.396461545138926,-0.141702882721468,-0.03980030864477158,0.0697220116853714,0.02871484123170376,-0.07057923078536987,-0.01272600889205933,-0.02477467060089111,2,-0.3765214570507466,0.5218949498180117,0.3542144939321961,0.6785199551294377,0.9749709963798523,0.1412291377782822,-0.1717145144939423,41.00106048583984,36.52924346923828,30.10055541992188,2,12147.95389775,4,2,1580908432.195064,1580903939.50652,2812,0.4882443,0.8424244,1.869819,3369.779,14,15,1580908429.378576,12145.709872,0,18.42755,96.98923
1580908432.630033,128,0,1580907286.99823,41.20781296037784,29.0754925099451,275.2123,0.1345286,-1,23.46983528137207,200,-9999,12148.40485566667,0.9224395751953125,0.1343994140625,-0.176727294921875,12148.39481566667,1.081837329703216,1.397475579038077,-0.1413438908049245,-0.05186256393790245,0.08956389129161835,0.04532551020383835,-0.04550409317016602,-0.01168262958526611,-0.02136313915252686,2,-0.376745466022631,0.5222026396599002,0.354332247090906,0.6780973442024019,0.9751945734024048,0.1408737301826477,-0.1707345098257065,41.00326538085938,36.35317230224609,30.0128173828125,2,12147.95389775,4,2,1580908432.195064,1580903939.50652,2812,0.4882443,0.8424244,1.869819,3369.779,14,15,1580908429.378576,12145.709872,0,18.42755,96.98923
1580908432.631258,129,0,1580907286.99823,41.20781296037784,29.0754925099451,275.2123,0.1345286,-1,23.46983528137207,200,-9999,12148.41492666667,0.891571044921875,0.1392059326171875,-0.1776275634765625,12148.40485566667,1.082538693145926,1.398814548630481,-0.1407373454060453,-0.05799345672130585,0.1222407147288322,0.07042662799358368,-0.05326318740844727,-0.006853312253952026,-0.009872138500213623,2,-0.3769745530501012,0.5226553252613281,0.3544929297802393,0.677537036335413,0.9755063056945801,0.1402732133865356,-0.1694431900978088,41.12118530273438,36.37775039672852,30.30960083007812,2,12147.95389775,4,2,1580908432.195064,1580903939.50652,2812,0.4882443,0.8424244,1.869819,3369.779,14,15,1580908429.378576,12145.709872,0,18.42755,96.98923
1580908432.632285,130,0,1580907286.99823,41.20781296037784,29.0754925099451,275.2123,0.1345286,-1,23.46983528137207,200,-9999,12148.42496666667,0.895477294921875,0.137298583984375,-0.1748504638671875,12148.41492666667,1.083295210479061,1.400662653335353,-0.1397529281073249,-0.05742993205785751,0.172142505645752,0.1099615171551704,-0.08541953563690186,-0.0008091926574707031,-0.0131382942199707,2,-0.377189656194056,0.5233510149492886,0.3546852376851491,0.6767791822009188,0.9759533405303955,0.1392984539270401,-0.1676633507013321,41.12118530273438,36.37775039672852,30.30960083007812,2,12147.95389775,4,2,1580908432.195064,1580903939.50652,2812,0.4882443,0.8424244,1.869819,3369.779,14,15,1580908429.378576,12145.709872,0,18.42755,96.98923
1580908432.638104,131,0,1580907286.99823,41.20781296037784,29.0754925099451,275.2123,0.1345286,-1,23.46983528137207,200,-9999,12148.43500666667,0.9337310791015625,0.134124755859375,-0.1643524169921875,12148.42496666667,1.084073578610451,1.403017913950197,-0.1384786484569064,-0.05526673793792725,0.2276046127080917,0.1384600549936295,-0.08736109733581543,-0.0006566643714904785,-0.01257753372192383,2,-0.3774098248479718,0.5242756188694377,0.3548727925804487,0.6758419619973157,0.9765198826789856,0.1380364894866943,-0.1653937995433807,41.07945251464844,36.34482192993164,30.48077392578125,2,12147.95389775,4,2,1580908432.195064,1580903939.50652,2812,0.4882443,0.8424244,1.869819,3369.779,14,15,1580908429.378576,12145.709872,0,18.42755,96.98923
1580908432.648127,132,0,1580907286.99823,41.20781296037784,29.0754925099451,275.2123,0.1345286,-1,23.46983528137207,200,-9999,12148.44504766667,0.933502197265625,0.142242431640625,-0.14471435546875,12148.43500666667,1.084799411299361,1.405473404366946,-0.1370237206567506,-0.04646019637584686,0.2370391190052032,0.1539119780063629,-0.04943513870239258,-0.003086209297180176,-0.006299614906311035,2,-0.3775781895234459,0.5252813935151895,0.3550756215534115,0.6748596585474311,0.977120041847229,0.1365953385829926,-0.1630283296108246,41.07945251464844,36.34482192993164,30.48077392578125,2,12147.95389775,4,2,1580908432.195064,1580903939.50652,2812,0.4882443,0.8424244,1.869819,3369.779,14,15,1580908429.378576,12145.709872,0,18.42755,96.98923
1580908432.658183,133,0,1580907286.99823,41.20781296037784,29.0754925099451,275.2123,0.1345286,-1,23.46983528137207,200,-9999,12148.45508766667,0.97174072265625,0.1409149169921875,-0.159881591796875,12148.44504766667,1.085467334646558,1.40780684381518,-0.1353788101658456,-0.03834936022758484,0.2221856266260147,0.1745832413434982,-0.04663276672363281,0.006163269281387329,0.01250529289245605,2,-0.3776509277055729,0.5262962369249908,0.3553367913978031,0.6738901718566284,0.9777182340621948,0.1349656581878662,-0.1607840955257416,40.96413421630859,35.88261413574219,30.82565307617188,2,12147.95389775,4,2,1580908432.195064,1580903939.50652,2812,0.4882443,0.8424244,1.869819,3369.779,14,15,1580908429.378576,12145.709872,0,18.42755,96.98923
1580908432.691608,134,0,1580907286.99823,41.20781296037784,29.0754925099451,275.2123,0.1345286,-1,23.46983528137207,200,-9999,12148.46512766667,1.023422241210938,0.1276092529296875,-0.16015625,12148.45508766667,1.085948608205489,1.409950574253455,-0.1338783916509648,-0.01996263116598129,0.2090605050325394,0.1524182856082916,-0.01899296045303345,0.00776207447052002,-0.001605391502380371,2,-0.3776872563603769,0.5272497926796751,0.3555289309916915,0.6730223553074823,0.978259265422821,0.1334788203239441,-0.1587199866771698,40.96413421630859,35.88261413574219,30.82565307617188,2,12147.95389775,4,2,1580908432.195064,1580903939.50652,2812,0.4882443,0.8424244,1.869819,3369.779,14,15,1580908429.378576,12145.709872,0,18.42755,96.98923
1580908432.692855,135,0,1580907286.99823,41.20781296037784,29.0754925099451,275.2123,0.1345286,-1,23.46983528137207,200,-9999,12148.47516766667,0.9996185302734375,0.119354248046875,-0.167327880859375,12148.46512766667,1.086353891930405,1.411787986316862,-0.1326862205187842,-0.02177486009895802,0.1693739295005798,0.1224140152335167,0.04278463125228882,-0.004266291856765747,-0.007336020469665527,2,-0.3777464903249743,0.5280472668508516,0.3556639933670277,0.6722921825269099,0.9787057638168335,0.1322972327470779,-0.1569473445415497,41.06757354736328,36.14016342163086,30.99176025390625,2,12147.95389775,4,2,1580908432.195064,1580903939.50652,2812,0.4882443,0.8424244,1.869819,3369.779,14,15,1580908429.378576,12145.709872,0,18.42755,96.98923
1580908432.693868,136,0,1580907286.99823,41.20781296037784,29.0754925099451,275.2123,0.1345286,-1,23.46983528137207,200,-9999,12148.48520866667,0.9846649169921875,0.12799072265625,-0.1508941650390625,12148.47516766667,1.086694518537178,1.413649190181599,-0.1318044285862913,-0.01838039606809616,0.1842868030071259,0.08759743720293045,0.01773500442504883,-0.01194930076599121,-0.01396787166595459,2,-0.37789078042321,0.5287974196742935,0.3556827226669934,0.6716111790324252,0.9791109561920166,0.1314231306314468,-0.1551436930894852,41.06757354736328,36.14016342163086,30.99176025390625,2,12147.95389775,4,2,1580908432.195064,1580903939.50652,2812,0.4882443,0.8424244,1.869819,3369.779,14,15,1580908429.378576,12145.709872,0,18.42755,96.98923
1580908432.698275,137,0,1580907286.99823,41.20781296037784,29.0754925099451,275.2123,0.1345286,-1,23.46983528137207,200,-9999,12148.49524866667,0.9658050537109375,0.135040283203125,-0.1444854736328125,12148.48520866667,1.086967167197712,1.41529378216984,-0.1309949998586923,-0.01579665392637253,0.1612366884946823,0.08328936994075775,0.00429832935333252,-0.004597991704940796,-0.002627968788146973,2,-0.3780015373586715,0.5294714305772275,0.3556984999137954,0.6710092675578896,0.9794696569442749,0.1306206881999969,-0.1535496860742569,41.03996276855469,35.97868728637695,31.1151123046875,2,12147.95389775,4,2,1580908432.195064,1580903939.50652,2812,0.4882443,0.8424244,1.869819,3369.779,14,15,1580908429.378576,12145.709872,0,18.42755,96.98923
1580908432.708392,138,0,1580907286.99823,41.20781296037784,29.0754925099451,275.2123,0.1345286,-1,23.46983528137207,200,-9999,12148.50531966667,0.9828033447265625,0.1292572021484375,-0.1486358642578125,12148.49524866667,1.087136658146389,1.416720816250626,-0.1301596770219068,-0.003686195705085993,0.1402885317802429,0.08480497449636459,-0.01703965663909912,0.004854381084442139,0.005202531814575195,2,-0.3780383954390284,0.5300968989570316,0.3557283119225421,0.6704787486871828,0.9797953367233276,0.1297924667596817,-0.1521684974431992,41.03996276855469,35.97868728637695,31.1151123046875,2,12147.95389775,4,2,1580908432.195064,1580903939.50652,2812,0.4882443,0.8424244,1.869819,3369.779,14,15,1580908429.378576,12145.709872,0,18.42755,96.98923
1580908432.718382,139,0,1580907286.99823,41.20781296037784,29.0754925099451,275.2123,0.1345286,-1,23.46983528137207,200,-9999,12148.51535966667,0.994781494140625,0.1297149658203125,-0.1416473388671875,12148.50531966667,1.087224900492537,1.417951924257365,-0.1293560122154413,0.003175439313054085,0.1234805285930634,0.08039824664592743,-0.002834081649780273,6.92903995513916e-05,-0.0005240440368652344,2,-0.3780290140540306,0.530664752979777,0.3557587580095306,0.6700184510736126,0.9800845980644226,0.1289955675601959,-0.1509779691696167,41.06025695800781,36.20908355712891,31.02081298828125,2,12147.95389775,4,2,1580908432.195064,1580903939.50652,2812,0.4882443,0.8424244,1.869819,3369.779,14,15,1580908429.378576,12145.709872,0,18.42755,96.98923
1580908432.750616,140,0,1580907286.99823,41.20781296037784,29.0754925099451,275.2123,0.1345286,-1,23.46983528137207,200,-9999,12148.52539966667,0.994171142578125,0.1273651123046875,-0.1380157470703125,12148.51535966667,1.087228347590099,1.418820304707671,-0.1286294976836943,0.01115693338215351,0.08704262226819992,0.07105773687362671,0.01047688722610474,0.001021295785903931,0.004816055297851562,2,-0.3779568684035155,0.5311102736386583,0.3558070134088197,0.6696803871763621,0.9803076982498169,0.1282750815153122,-0.1501409709453583,41.06025695800781,36.20908355712891,31.02081298828125,2,12147.95389775,4,2,1580908432.195064,1580903939.50652,2812,0.4882443,0.8424244,1.869819,3369.779,14,15,1580908429.378576,12145.709872,0,18.42755,96.98923
1580908432.751894,141,0,1580907286.99823,41.20781296037784,29.0754925099451,275.2123,0.1345286,-1,23.46983528137207,200,-9999,12148.53544066667,0.989227294921875,0.1231842041015625,-0.1422576904296875,12148.52539966667,1.087195836607976,1.419327076789045,-0.1279972355640073,0.01254310831427574,0.05060897767543793,0.06147302687168121,0.01120543479919434,-0.0003635883331298828,0.008739709854125977,2,-0.3778403818535704,0.5314211737498472,0.3558842326535776,0.6694584229654125,0.9804636240005493,0.1276480257511139,-0.1496563702821732,41.07049560546875,35.9605827331543,31.15435791015625,2,12147.95389775,4,2,1580908432.195064,1580903939.50652,2812,0.4882443,0.8424244,1.869819,3369.779,14,15,1580908429.378576,12145.709872,0,18.42755,96.98923
1580908432.752858,142,0,1580907286.99823,41.20781296037784,29.0754925099451,275.2123,0.1345286,-1,23.46983528137207,200,-9999,12148.54548066667,0.990692138671875,0.1213836669921875,-0.1455841064453125,12148.53544066667,1.087105582465685,1.419557307845452,-0.1274802323077152,0.01829127408564091,0.02483969926834106,0.04945337772369385,0.00492560863494873,-0.003907948732376099,0.004662513732910156,2,-0.3776954207330051,0.5316257024972127,0.3559608941919844,0.6693371447185675,0.9805632829666138,0.12713523209095,-0.1494405567646027,41.07049560546875,35.9605827331543,31.15435791015625,2,12147.95389775,4,2,1580908432.195064,1580903939.50652,2812,0.4882443,0.8424244,1.869819,3369.779,14,15,1580908429.378576,12145.709872,0,18.42755,96.98923
1580908432.758573,143,0,1580907286.99823,41.20781296037784,29.0754925099451,275.2123,0.1345286,-1,23.46983528137207,200,-9999,12148.55552066667,0.96435546875,0.1154022216796875,-0.15606689453125,12148.54548066667,1.087042720979113,1.419617654245032,-0.1270834014897349,0.01266957726329565,0.004148917272686958,0.03685815259814262,0.008025109767913818,-0.00558808445930481,0.001360654830932617,2,-0.3775651482203191,0.5317424836635514,0.3560438606006442,0.6692737706973251,0.9806221127510071,0.1267416030168533,-0.1493889838457108,41.11420440673828,36.09925079345703,31.0535888671875,2,12147.95389775,4,2,1580908432.195064,1580903939.50652,2812,0.4882443,0.8424244,1.869819,3369.779,14,15,1580908429.378576,12145.709872,0,18.42755,96.98923
1580908432.768552,144,0,1580907286.99823,41.20781296037784,29.0754925099451,275.2123,0.1345286,-1,23.46983528137207,200,-9999,12148.56556066667,0.9474334716796875,0.1123809814453125,-0.163848876953125,12148.55552066667,1.087058505923223,1.419809547929629,-0.1267364822481303,0.003604710102081299,0.01993214152753353,0.03361575305461884,-0.01720911264419556,-0.01079696416854858,-0.008724689483642578,2,-0.377494884359193,0.531877729685412,0.3561137793562152,0.6691686113705604,0.9806939959526062,0.1263974756002426,-0.1492073833942413,41.11420440673828,36.09925079345703,31.0535888671875,2,12147.95389775,4,2,1580908432.195064,1580903939.50652,2812,0.4882443,0.8424244,1.869819,3369.779,14,15,1580908429.378576,12145.709872,0,18.42755,96.98923
1580908432.778613,145,0,1580907286.99823,41.20781296037784,29.0754925099451,275.2123,0.1345286,-1,23.46983528137207,200,-9999,12148.57560166667,0.93426513671875,0.124237060546875,-0.15277099609375,12148.56556066667,1.08712543685423,1.420219030997044,-0.1263428939378019,-0.002385241445153952,0.04067192599177361,0.04050249606370926,-0.03517234325408936,-0.01461660861968994,-0.01832127571105957,2,-0.377462325161883,0.5320860551230115,0.356173335241428,0.6689896354038297,0.9808041453361511,0.1260070353746414,-0.1488132476806641,41.15798950195312,35.90440368652344,31.18804931640625,2,12147.95389775,4,2,1580908432.195064,1580903939.50652,2812,0.4882443,0.8424244,1.869819,3369.779,14,15,1580908429.378576,12145.709872,0,18.42755,96.98923
1580908432.810314,146,0,1580907286.99823,41.20781296037784,29.0754925099451,275.2123,0.1345286,-1,23.46983528137207,200,-9999,12148.58564166667,0.9427032470703125,0.132843017578125,-0.136962890625,12148.57560166667,1.087170039009011,1.420794864958901,-0.1257842116450777,0.0004680696874856949,0.05993430316448212,0.0571613684296608,-0.04925918579101562,-0.002494275569915771,-0.008852601051330566,2,-0.3774017807052401,0.5323893570233251,0.3562420573703198,0.6687458478951263,0.9809591174125671,0.1254527866840363,-0.1482589393854141,41.15798950195312,35.90440368652344,31.18804931640625,2,12147.95389775,4,2,1580908432.195064,1580903939.50652,2812,0.4882443,0.8424244,1.869819,3369.779,14,15,1580908429.378576,12145.709872,0,18.42755,96.98923
1580908432.811533,147,0,1580907286.99823,41.20781296037784,29.0754925099451,275.2123,0.1345286,-1,23.46983528137207,200,-9999,12148.59568166667,0.9663543701171875,0.1337127685546875,-0.1280059814453125,12148.58564166667,1.087068302884428,1.421141682372284,-0.1250267433995788,0.02191261202096939,0.03687490522861481,0.07291336357593536,-0.04403352737426758,0.006789594888687134,0.006186127662658691,2,-0.377199179831554,0.5326859701726318,0.3563629416685922,0.6685597075491554,0.9811043739318848,0.1247012689709663,-0.1479328721761703,41.26363372802734,35.90287017822266,31.1834716796875,2,12147.95389775,4,2,1580908432.195064,1580903939.50652,2812,0.4882443,0.8424244,1.869819,3369.779,14,15,1580908429.378576,12145.709872,0,18.42755,96.98923
1580908432.812554,148,0,1580907286.99823,41.20781296037784,29.0754925099451,275.2123,0.1345286,-1,23.46983528137207,200,-9999,12148.60575266667,0.981109619140625,0.1190338134765625,-0.14111328125,12148.59568166667,1.086888598437887,1.421038731924661,-0.1241590797806732,0.03111942484974861,-0.01121033076196909,0.084754578769207,-0.02026057243347168,0.01033908128738403,0.01727437973022461,2,-0.37686120416018,0.5328702128130414,0.3565745703356161,0.6684904934718529,0.9811955690383911,0.12384033203125,-0.1480499356985092,41.26363372802734,35.90287017822266,31.1834716796875,2,12147.95389775,4,2,1580908432.195064,1580903939.50652,2812,0.4882443,0.8424244,1.869819,3369.779,14,15,1580908429.378576,12145.709872,0,18.42755,96.98923
1580908432.818801,149,0,1580907286.99823,41.20781296037784,29.0754925099451,275.2123,0.1345286,-1,23.46983528137207,200,-9999,12148.61579266667,0.9946136474609375,0.1134033203125,-0.1463165283203125,12148.60575266667,1.086732601928521,1.420682632035408,-0.1233710090999604,0.02726905606687069,-0.03323186188936234,0.07555954903364182,-0.00498431921005249,-0.003188908100128174,0.005737781524658203,2,-0.3765091479903802,0.5329483272775377,0.3568185878661225,0.668496409033362,0.9812390208244324,0.1230582892894745,-0.1484138816595078,40.9522705078125,35.9623908996582,31.10400390625,2,12147.95389775,4,2,1580908432.195064,1580903939.50652,2812,0.4882443,0.8424244,1.869819,3369.779,14,15,1580908429.378576,12145.709872,0,18.42755,96.98923
1580908432.828881,150,0,1580907286.99823,41.20781296037784,29.0754925099451,275.2123,0.1345286,-1,23.46983528137207,200,-9999,12148.62583366667,0.9947967529296875,0.1091156005859375,-0.1443939208984375,12148.61579266667,1.086607346234936,1.420153519382403,-0.1227884648526237,0.02136376313865185,-0.05056530982255936,0.05532032251358032,0.008985340595245361,-0.009261578321456909,-0.0003832578659057617,2,-0.3761986495012319,0.5329190129611541,0.3570455758573455,0.6685735085409591,0.9812312126159668,0.122480146586895,-0.1489437967538834,40.9522705078125,35.9623908996582,31.10400390625,2,12147.95389775,4,2,1580908432.195064,1580903939.50652,2812,0.4882443,0.8424244,1.869819,3369.779,14,15,1580908429.378576,12145.709872,0,18.42755,96.98923
1580908432.838927,151,0,1580907286.99823,41.20781296037784,29.0754925099451,275.2123,0.1345286,-1,23.46983528137207,200,-9999,12148.63587366667,0.9799957275390625,0.113006591796875,-0.1429901123046875,12148.62583366667,1.086549147215873,1.419429431019176,-0.1224304779124341,0.009539189748466015,-0.07306480407714844,0.03484265878796577,0.01112550497055054,-0.01273497939109802,0.002029716968536377,2,-0.3759416109234592,0.532764008977292,0.3572662207251042,0.6687235520524655,0.9811661839485168,0.1221248507499695,-0.1496608257293701,41.19745635986328,35.87002182006836,31.12039184570312,2,12147.95389775,4,2,1580908432.195064,1580903939.50652,2812,0.4882443,0.8424244,1.869819,3369.779,14,15,1580908429.378576,12145.709872,0,18.42755,96.98923
1580908432.870103,152,0,1580907286.99823,41.20781296037784,29.0754925099451,275.2123,0.1345286,-1,23.46983528137207,200,-9999,12148.64591366667,0.9610443115234375,0.11785888671875,-0.1500091552734375,12148.63587366667,1.086495753027667,1.418558877950409,-0.1221842199873251,0.00968779344111681,-0.08534863591194153,0.02310451120138168,-0.002780914306640625,-0.01029247045516968,0.004646182060241699,2,-0.3756945131891684,0.5325353317087129,0.3574834513121438,0.6689285462960347,0.9810653328895569,0.1218804344534874,-0.1505195051431656,41.19745635986328,35.87002182006836,31.12039184570312,2,12147.95389775,4,2,1580908432.195064,1580903939.50652,2812,0.4882443,0.8424244,1.869819,3369.779,14,15,1580908429.378576,12145.709872,0,18.42755,96.98923
1580908432.871488,153,0,1580907286.99823,41.20781296037784,29.0754925099451,275.2123,0.1345286,-1,23.46983528137207,200,-9999,12148.65595466667,0.942108154296875,0.1093597412109375,-0.1697540283203125,12148.64591366667,1.086456933710435,1.417725644167939,-0.1219593234625256,0.006428479216992855,-0.08634071052074432,0.02085192501544952,-0.02108407020568848,-0.003812402486801147,-0.0003736615180969238,2,-0.3754646163959511,0.5323117371420343,0.3576921796592865,0.6691239048970012,0.9809665083885193,0.121657207608223,-0.1513410657644272,41.37417602539062,35.84755325317383,30.996337890625,2,12147.95389775,4,2,1580908432.195064,1580903939.50652,2812,0.4882443,0.8424244,1.869819,3369.779,14,15,1580908429.378576,12145.709872,0,18.42755,96.98923
1580908432.872664,154,0,1580907286.99823,41.20781296037784,29.0754925099451,275.2123,0.1345286,-1,23.46983528137207,200,-9999,12148.66599466667,0.954010009765625,0.106536865234375,-0.1694183349609375,12148.65595466667,1.086452914907357,1.417412356650175,-0.1218184964108415,0.003693412989377975,-0.02991524711251259,0.01438603550195694,-0.04136276245117188,-0.01189655065536499,-0.01927316188812256,2,-0.3753632137828026,0.5322376717608762,0.3577905109785205,0.6691873176847054,0.9809361696243286,0.1215174272656441,-0.1516510397195816,41.37417602539062,35.84755325317383,30.996337890625,2,12147.95389775,4,2,1580908432.195064,1580903939.50652,2812,0.4882443,0.8424244,1.869819,3369.779,14,15,1580908429.378576,12145.709872,0,18.42755,96.98923
1580908432.879102,155,0,1580907286.99823,41.20781296037784,29.0754925099451,275.2123,0.1345286,-1,23.46983528137207,200,-9999,12148.67603466667,0.9800567626953125,0.1119384765625,-0.1506195068359375,12148.66599466667,1.086526979939591,1.417502026219433,-0.1218370098199188,-0.007982336916029453,0.01170846819877625,0.0009356895461678505,-0.0329359769821167,-0.01562291383743286,-0.02238321304321289,2,-0.3754048404193925,0.532249804190325,0.3577930695741206,0.66915278099178,0.9809473752975464,0.1215358003973961,-0.1515627056360245,41.37368774414062,35.81753158569336,30.91622924804688,2,12147.95389775,4,2,1580908432.195064,1580903939.50652,2812,0.4882443,0.8424244,1.869819,3369.779,14,15,1580908429.378576,12145.709872,0,18.42755,96.98923
1580908432.88921,156,0,1580907286.99823,41.20781296037784,29.0754925099451,275.2123,0.1345286,-1,23.46983528137207,200,-9999,12148.68607466667,0.990936279296875,0.1185760498046875,-0.136871337890625,12148.67603466667,1.0866061902814,1.417496540803955,-0.1220305668590612,-0.01010567601770163,-3.314390778541565e-05,-0.01590161398053169,-0.006193637847900391,-0.01070401072502136,-0.003674030303955078,2,-0.375485708483843,0.5321919134411629,0.3577644740217698,0.6691688019620762,0.9809233546257019,0.1217279210686684,-0.1515644937753677,41.37368774414062,35.81753158569336,30.91622924804688,2,12147.95389775,4,2,1580908432.195064,1580903939.50652,2812,0.4882443,0.8424244,1.869819,3369.779,14,15,1580908429.378576,12145.709872,0,18.42755,96.98923
1580908432.899498,157,0,1580907286.99823,41.20781296037784,29.0754925099451,275.2123,0.1345286,-1,23.46983528137207,200,-9999,12148.69614566667,0.98516845703125,0.123077392578125,-0.14166259765625,12148.68607466667,1.086609571089869,1.417057194684638,-0.1223498063800327,-0.003990872297435999,-0.04564067721366882,-0.03016571886837482,0.006286740303039551,-0.004979521036148071,0.01106518507003784,2,-0.3755082951463081,0.5319762935160458,0.357755506327388,0.6693323232635079,0.9808181524276733,0.1220447793602943,-0.1519894897937775,41.26789855957031,35.96926498413086,30.79949951171875,2,12147.95389775,4,2,1580908432.195064,1580903939.50652,2812,0.4882443,0.8424244,1.869819,3369.779,14,15,1580908429.378576,12145.709872,0,18.42755,96.98923
1580908432.93352,158,0,1580907286.99823,41.20781296037784,29.0754925099451,275.2123,0.1345286,-1,23.46983528137207,200,-9999,12148.70618566667,0.965728759765625,0.1128997802734375,-0.1553192138671875,12148.69614566667,1.086540765288736,1.416337099562459,-0.1227821638146415,-0.0001806877553462982,-0.07289120554924011,-0.04380882531404495,0.002558231353759766,0.0005255639553070068,0.009919404983520508,2,-0.3754969989953797,0.531656093704748,0.3577423152557929,0.6696001057052747,0.9806562662124634,0.1224738955497742,-0.1526876091957092,41.26789855957031,35.96926498413086,30.79949951171875,2,12147.95389775,4,2,1580908432.195064,1580903939.50652,2812,0.4882443,0.8424244,1.869819,3369.779,14,15,1580908429.378576,12145.709872,0,18.42755,96.98923
1580908432.935021,159,0,1580907286.99823,41.20781296037784,29.0754925099451,275.2123,0.1345286,-1,23.46983528137207,200,-9999,12148.71622666667,0.959564208984375,0.1129913330078125,-0.1607208251953125,12148.70618566667,1.086455200950434,1.415688767518978,-0.123366844986723,-0.001177103724330664,-0.06521087884902954,-0.06084338575601578,-0.01674151420593262,-0.00966981053352356,-0.004392266273498535,2,-0.3755420315806908,0.531330453972937,0.3576658875965492,0.6698740351141929,0.9804860949516296,0.1230541542172432,-0.1533122658729553,41.27546691894531,35.87454605102539,30.76388549804688,2,12147.95389775,4,2,1580908432.195064,1580903939.50652,2812,0.4882443,0.8424244,1.869819,3369.779,14,15,1580908429.378576,12145.709872,0,18.42755,96.98923
1580908432.9361,160,0,1580907286.99823,41.20781296037784,29.0754925099451,275.2123,0.1345286,-1,23.46983528137207,200,-9999,12148.72626666667,0.9521026611328125,0.1180419921875,-0.1626739501953125,12148.71622666667,1.086370461997091,1.415230828911081,-0.1240274402746451,-0.001502009574323893,-0.04505421221256256,-0.06764749437570572,-0.02402114868164062,-0.01186880469322205,-0.009386539459228516,2,-0.3756452256923116,0.5310521208878962,0.3575320109778085,0.6701083017702855,0.9803352355957031,0.1237097010016441,-0.1537486165761948,41.27546691894531,35.87454605102539,30.76388549804688,2,12147.95389775,4,2,1580908432.195064,1580903939.50652,2812,0.4882443,0.8424244,1.869819,3369.779,14,15,1580908429.378576,12145.709872,0,18.42755,96.98923
1580908432.939556,161,0,1580907286.99823,41.20781296037784,29.0754925099451,275.2123,0.1345286,-1,23.46983528137207,200,-9999,12148.73630666667,0.95928955078125,0.1134490966796875,-0.1606292724609375,12148.72626666667,1.086309369483712,1.415008151356705,-0.12471378099971,-0.005821981001645327,-0.02162738516926765,-0.0656081810593605,-0.030448317527771,-0.006631761789321899,-0.01166784763336182,2,-0.3758048673058263,0.5308425840582135,0.35735441486593,0.6702795364170279,0.980216920375824,0.1243907436728477,-0.1539537012577057,41.15779876708984,36.09022903442383,30.98794555664062,2,12147.95389775,4,2,1580908432.195064,1580903939.50652,2812,0.4882443,0.8424244,1.869819,3369.779,14,15,1580908429.378576,12145.709872,0,18.42755,96.98923
