loggingTime,loggingSample,identifierForVendor,locationTimestamp_since1970,locationLatitude,locationLongitude,locationAltitude,locationSpeed,locationCourse,locationVerticalAccuracy,locationHorizontalAccuracy,locationFloor,accelerometerTimestamp_sinceReboot,accelerometerAccelerationX,accelerometerAccelerationY,accelerometerAccelerationZ,motionTimestamp_sinceReboot,motionYaw,motionRoll,motionPitch,motionRotationRateX,motionRotationRateY,motionRotationRateZ,motionUserAccelerationX,motionUserAccelerationY,motionUserAccelerationZ,motionAttitudeReferenceFrame,motionQuaternionX,motionQuaternionY,motionQuaternionZ,motionQuaternionW,motionGravityX,motionGravityY,motionGravityZ,motionMagneticFieldX,motionMagneticFieldY,motionMagneticFieldZ,motionMagneticFieldCalibrationAccuracy,activityTimestamp_sinceReboot,activity,activityActivityConfidence,activityActivityStartDate,pedometerStartDate,pedometerNumberofSteps,pedometerAverageActivePace,pedometerCurrentPace,pedometerCurrentCadence,pedometerDistance,pedometerFloorAscended,pedometerFloorDescended,pedometerEndDate,altimeterTimestamp_sinceReboot,altimeterReset,altimeterRelativeAltitude,altimeterPressure
1580908945.230842,1,0,1580907286.99823,41.20781296037784,29.0754925099451,275.2123,0.1345286,-1,23.46983528137207,200,-9999,12660.99205804167,0.9768524169921875,0.1211395263671875,-0.131317138671875,12660.98201804167,1.728361781673307,1.44268607364374,-0.1117357978235117,-0.003462449181824923,0.06266199052333832,0.002634554170072079,-0.03040480613708496,0.007144331932067871,-0.01505649089813232,2,-0.5287118061613723,0.3962096953905553,0.5462890405188586,0.5148300678705038,0.9856202602386475,0.1115034446120262,-0.1269634068012238,33.97621917724609,15.1206169128418,4.7012939453125,2,12659.937994,2,0,1580908944.17916,1580903939.50652,3116,0.4890548,1.136537,1.799347,3752.709,14,17,1580908943.612764,12658.317169,0,9.86377,97.08857
1580908945.232087,2,0,1580907286.99823,41.20781296037784,29.0754925099451,275.2123,0.1345286,-1,23.46983528137207,200,-9999,12661.00209804167,0.95916748046875,0.121063232421875,-0.146636962890625,12660.99205804167,1.728366764007389,1.442866877414719,-0.1116920110964345,-0.001093175262212753,0.0180133581161499,0.007051759399473667,-0.01167964935302734,0.008744388818740845,-0.007162868976593018,2,-0.5287521272381879,0.3962679327476072,0.5462526049544814,0.5147825234573585,0.9856480956077576,0.1114599257707596,-0.1267858296632767,33.84228515625,15.21588897705078,4.62115478515625,2,12659.937994,2,0,1580908944.17916,1580903939.50652,3116,0.4890548,1.136537,1.799347,3752.709,14,17,1580908943.612764,12658.317169,0,9.86377,97.08857
1580908945.23334,3,0,1580907286.99823,41.20781296037784,29.0754925099451,275.2123,0.1345286,-1,23.46983528137207,200,-9999,12661.01213904167,0.966522216796875,0.1212310791015625,-0.1412200927734375,12661.00209804167,1.728393259129987,1.443119282487336,-0.1116231985354363,-0.002817305736243725,0.02537593245506287,0.007415813393890858,-0.03033512830734253,0.00936242938041687,-0.02344852685928345,2,-0.5288105070611423,0.3963463553975034,0.5462085511378332,0.5147090246720981,0.9856877326965332,0.111391544342041,-0.126538023352623,33.84228515625,15.21588897705078,4.62115478515625,2,12659.937994,2,0,1580908944.17916,1580903939.50652,3116,0.4890548,1.136537,1.799347,3752.709,14,17,1580908943.612764,12658.317169,0,9.86377,97.08857
1580908945.234383,4,0,1580907286.99823,41.20781296037784,29.0754925099451,275.2123,0.1345286,-1,23.46983528137207,200,-9999,12661.02217904167,0.97003173828125,0.1200408935546875,-0.137847900390625,12661.01213904167,1.728401533085336,1.443327903124727,-0.1115491189502392,0.001021435484290123,0.02670867368578911,0.008232888765633106,-0.02382385730743408,0.009329497814178467,-0.01893913745880127,2,-0.5288521366106557,0.3964198518523894,0.5461725525881522,0.5146478304705442,0.9857223033905029,0.1113179251551628,-0.1263334304094315,33.77279663085938,15.19802284240723,4.56622314453125,2,12659.937994,2,0,1580908944.17916,1580903939.50652,3116,0.4890548,1.136537,1.799347,3752.709,14,17,1580908943.612764,12658.317169,0,9.86377,97.08857
1580908945.235593,5,0,1580907286.99823,41.20781296037784,29.0754925099451,275.2123,0.1345286,-1,23.46983528137207,200,-9999,12661.03221904167,0.967498779296875,0.117645263671875,-0.141357421875,12661.02217904167,1.728389592443824,1.443394637260294,-0.1115023468691175,0.001682166010141373,0.008321410045027733,0.006380925886332989,-0.01973295211791992,0.008521676063537598,-0.01531195640563965,2,-0.5288573102305789,0.3964540288777074,0.546162537361199,0.5146266388002131,0.9857357144355774,0.1112714409828186,-0.1262682974338531,33.77279663085938,15.19802284240723,4.56622314453125,2,12659.937994,2,0,1580908944.17916,1580903939.50652,3116,0.4890548,1.136537,1.799347,3752.709,14,17,1580908943.612764,12658.317169,0,9.86377,97.08857
1580908945.259981,6,0,1580907286.99823,41.20781296037784,29.0754925099451,275.2123,0.1345286,-1,23.46983528137207,200,-9999,12661.04229004167,0.9688262939453125,0.117218017578125,-0.1395721435546875,12661.03221904167,1.728357227425067,1.443395629906848,-0.1115131028466831,0.002949422225356102,0.00502496212720871,-0.001275614835321903,-0.02218854427337646,0.00638994574546814,-0.01848697662353516,2,-0.5288536255514105,0.3964596549742013,0.5461514812602191,0.5146378522767882,0.9857347011566162,0.1112821325659752,-0.1262671649456024,33.86640167236328,15.13536071777344,4.754974365234375,2,12659.937994,2,0,1580908944.17916,1580903939.50652,3116,0.4890548,1.136537,1.799347,3752.709,14,17,1580908943.612764,12658.317169,0,9.86377,97.08857
1580908945.261023,7,0,1580907286.99823,41.20781296037784,29.0754925099451,275.2123,0.1345286,-1,23.46983528137207,200,-9999,12661.05233004167,0.962982177734375,0.1201934814453125,-0.141693115234375,12661.04229004167,1.72831359028382,1.443328739196565,-0.1115503899710786,0.004121479578316212,-0.003172779455780983,-0.00429350882768631,-0.02049744129180908,0.005223542451858521,-0.01680397987365723,2,-0.5288352804994298,0.3964428861714835,0.5461493346520075,0.5146718126997187,0.9857220053672791,0.1113191843032837,-0.1263325661420822,33.86640167236328,15.13536071777344,4.754974365234375,2,12659.937994,2,0,1580908944.17916,1580903939.50652,3116,0.4890548,1.136537,1.799347,3752.709,14,17,1580908943.612764,12658.317169,0,9.86377,97.08857
1580908945.263098,8,0,1580907286.99823,41.20781296037784,29.0754925099451,275.2123,0.1345286,-1,23.46983528137207,200,-9999,12661.06237104167,0.96392822265625,0.1204376220703125,-0.143890380859375,12661.05233004167,1.728286329595848,1.443253515304227,-0.1115641519187528,0.001926502212882042,-0.005687869153916836,-0.0005003688856959343,-0.02663552761077881,0.008337914943695068,-0.01849937438964844,2,-0.5288124334761467,0.3964267080246374,0.546159120135793,0.5146976072202156,0.9857112169265747,0.1113328635692596,-0.1264065504074097,33.68975830078125,15.23892974853516,4.7352294921875,2,12659.937994,2,0,1580908944.17916,1580903939.50652,3116,0.4890548,1.136537,1.799347,3752.709,14,17,1580908943.612764,12658.317169,0,9.86377,97.08857
1580908945.273156,9,0,1580907286.99823,41.20781296037784,29.0754925099451,275.2123,0.1345286,-1,23.46983528137207,200,-9999,12661.07241104167,0.968170166015625,0.1204986572265625,-0.142852783203125,12661.06237104167,1.728282255724937,1.443230910557469,-0.1115456989878789,0.0005203532055020332,0.0001724157482385635,0.002287961542606354,-0.02597874402999878,0.008539438247680664,-0.02099472284317017,2,-0.5288012473350617,0.3964274212156333,0.546168258506582,0.5146987429607595,0.9857103228569031,0.1113145276904106,-0.1264290809631348,33.68975830078125,15.23892974853516,4.7352294921875,2,12659.937994,2,0,1580908944.17916,1580903939.50652,3116,0.4890548,1.136537,1.799347,3752.709,14,17,1580908943.612764,12658.317169,0,9.86377,97.08857
1580908945.283154,10,0,1580907286.99823,41.20781296037784,29.0754925099451,275.2123,0.1345286,-1,23.46983528137207,200,-9999,12661.08245104167,0.9666748046875,0.120025634765625,-0.1427764892578125,12661.07241104167,1.728316144464979,1.443263067642695,-0.111510447390433,-0.00327022559940815,0.003551745787262917,0.004778956063091755,-0.02166849374771118,0.008544057607650757,-0.0201106071472168,2,-0.5288086778158921,0.3964371891864444,0.5461765648787663,0.5146747024293127,0.9857181906700134,0.1112794950604439,-0.1263978779315948,33.75882720947266,15.28123092651367,4.852020263671875,2,12659.937994,2,0,1580908944.17916,1580903939.50652,3116,0.4890548,1.136537,1.799347,3752.709,14,17,1580908943.612764,12658.317169,0,9.86377,97.08857
1580908945.293105,11,0,1580907286.99823,41.20781296037784,29.0754925099451,275.2123,0.1345286,-1,23.46983528137207,200,-9999,12661.09249104167,0.95965576171875,0.11883544921875,-0.14227294921875,12661.08245104167,1.728348609880396,1.443306166541352,-0.1114944401276024,-0.003346391953527927,0.00651983916759491,0.00282499473541975,-0.02260667085647583,0.008437991142272949,-0.02000033855438232,2,-0.5288231832664712,0.3964444792396161,0.5461772439191909,0.5146535825919549,0.9857255220413208,0.1112635880708694,-0.1263556331396103,33.75882720947266,15.28123092651367,4.852020263671875,2,12659.937994,2,0,1580908944.17916,1580903939.50652,3116,0.4890548,1.136537,1.799347,3752.709,14,17,1580908943.612764,12658.317169,0,9.86377,97.08857
1580908945.325414,12,0,1580907286.99823,41.20781296037784,29.0754925099451,275.2123,0.1345286,-1,23.46983528137207,200,-9999,12661.10253204167,0.9579315185546875,0.121337890625,-0.1426544189453125,12661.09249104167,1.728356440672206,1.443415656214068,-0.1114817360101554,0.0001266701146960258,0.01418269798159599,0.001801657490432262,-0.02924424409866333,0.00709262490272522,-0.01929974555969238,2,-0.5288516883078005,0.3964743899732042,0.5461532749828855,0.514626827733907,0.9857409000396729,0.1112509593367577,-0.1262478977441788,33.74790191650391,15.24154472351074,4.759735107421875,2,12659.937994,2,0,1580908944.17916,1580903939.50652,3116,0.4890548,1.136537,1.799347,3752.709,14,17,1580908943.612764,12658.317169,0,9.86377,97.08857
1580908945.326804,13,0,1580907286.99823,41.20781296037784,29.0754925099451,275.2123,0.1345286,-1,23.46983528137207,200,-9999,12661.11257204167,0.9618682861328125,0.12030029296875,-0.141143798828125,12661.10253204167,1.728352528286068,1.44351701659705,-0.1114583199426439,0.0004459833726286888,0.01183965057134628,0.002128426916897297,-0.03231143951416016,0.009542107582092285,-0.02037644386291504,2,-0.5288732538177218,0.3965084259536012,0.5461308094651351,0.5146021479749119,0.9857561588287354,0.1112276911735535,-0.1261482983827591,33.74790191650391,15.24154472351074,4.759735107421875,2,12659.937994,2,0,1580908944.17916,1580903939.50652,3116,0.4890548,1.136537,1.799347,3752.709,14,17,1580908943.612764,12658.317169,0,9.86377,97.08857
1580908945.327702,14,0,1580907286.99823,41.20781296037784,29.0754925099451,275.2123,0.1345286,-1,23.46983528137207,200,-9999,12661.12261204167,0.96588134765625,0.1209564208984375,-0.14056396484375,12661.11257204167,1.728328868165367,1.443600486915631,-0.1114042625712226,0.003126637078821659,0.01269294321537018,0.005682725459337234,-0.02805548906326294,0.008650004863739014,-0.0184897780418396,2,-0.5288789646446257,0.3965522060498042,0.5461150783436612,0.5145792156808791,0.9857726097106934,0.111173965036869,-0.1260667741298676,33.75863647460938,15.28569030761719,4.59002685546875,2,12659.937994,2,0,1580908944.17916,1580903939.50652,3116,0.4890548,1.136537,1.799347,3752.709,14,17,1580908943.612764,12658.317169,0,9.86377,97.08857
1580908945.333355,15,0,1580907286.99823,41.20781296037784,29.0754925099451,275.2123,0.1345286,-1,23.46983528137207,200,-9999,12661.13268304167,0.9685821533203125,0.1196441650390625,-0.1422882080078125,12661.12261204167,1.728321032764617,1.443642275120259,-0.1113547944700528,0.000718340277671814,0.004494668915867805,0.004640630446374416,-0.02445006370544434,0.009416490793228149,-0.01827132701873779,2,-0.5288775121298244,0.3965796831262989,0.5461133469580204,0.5145612259882362,0.9857832193374634,0.1111248061060905,-0.1260262578725815,33.75863647460938,15.28569030761719,4.59002685546875,2,12659.937994,2,0,1580908944.17916,1580903939.50652,3116,0.4890548,1.136537,1.799347,3752.709,14,17,1580908943.612764,12658.317169,0,9.86377,97.08857
1580908945.34328,16,0,1580907286.99823,41.20781296037784,29.0754925099451,275.2123,0.1345286,-1,23.46983528137207,200,-9999,12661.14272304167,0.9719085693359375,0.119659423828125,-0.1429901123046875,12661.13268304167,1.728348673760998,1.443718419865152,-0.1113085505468692,-0.002983589190989733,0.01048065349459648,0.00552351213991642,-0.02132135629653931,0.008150458335876465,-0.01956641674041748,2,-0.5288931297797893,0.3966057470411299,0.5461110288751181,0.5145277588026634,0.9857980608940125,0.1110788509249687,-0.1259518712759018,33.78385162353516,15.23680114746094,4.78070068359375,2,12659.937994,2,0,1580908944.17916,1580903939.50652,3116,0.4890548,1.136537,1.799347,3752.709,14,17,1580908943.612764,12658.317169,0,9.86377,97.08857
1580908945.353452,17,0,1580907286.99823,41.20781296037784,29.0754925099451,275.2123,0.1345286,-1,23.46983528137207,200,-9999,12661.15276404167,0.96624755859375,0.1184234619140625,-0.141693115234375,12661.14272304167,1.728391339633079,1.443800087074937,-0.1112559058878059,-0.003782537765800953,0.01129345037043095,0.008003447204828262,-0.01798063516616821,0.008264034986495972,-0.02066892385482788,2,-0.528911830573828,0.3966310921718708,0.5461125035017045,0.514487382597182,0.985814094543457,0.1110265329480171,-0.1258721053600311,33.78385162353516,15.23680114746094,4.78070068359375,2,12659.937994,2,0,1580908944.17916,1580903939.50652,3116,0.4890548,1.136537,1.799347,3752.709,14,17,1580908943.612764,12658.317169,0,9.86377,97.08857
1580908945.386922,18,0,1580907286.99823,41.20781296037784,29.0754925099451,275.2123,0.1345286,-1,23.46983528137207,200,-9999,12661.16280404167,0.9626922607421875,0.1195220947265625,-0.142608642578125,12661.15276404167,1.728423525410679,1.443896231131484,-0.1112306939027155,-0.003192245494574308,0.01192009449005127,0.004290158860385418,-0.02258861064910889,0.006915837526321411,-0.01934492588043213,2,-0.5289386925584401,0.3966547898907997,0.5461011467216624,0.5144535198340399,0.9858289361000061,0.1110014766454697,-0.1257776767015457,33.85373687744141,15.43656349182129,4.745361328125,2,12659.937994,2,0,1580908944.17916,1580903939.50652,3116,0.4890548,1.136537,1.799347,3752.709,14,17,1580908943.612764,12658.317169,0,9.86377,97.08857
1580908945.388254,19,0,1580907286.99823,41.20781296037784,29.0754925099451,275.2123,0.1345286,-1,23.46983528137207,200,-9999,12661.17284404167,0.96044921875,0.11883544921875,-0.14007568359375,12661.16280404167,1.728427155745937,1.444021168236598,-0.1112397053385015,-0.0007879436016082764,0.01599765941500664,-0.0005743708461523056,-0.02722686529159546,0.007913917303085327,-0.02059775590896606,2,-0.5289755838715962,0.3966832988968162,0.546066974655258,0.5144299125409116,0.9858437180519104,0.1110104322433472,-0.1256543844938278,33.85373687744141,15.43656349182129,4.745361328125,2,12659.937994,2,0,1580908944.17916,1580903939.50652,3116,0.4890548,1.136537,1.799347,3752.709,14,17,1580908943.612764,12658.317169,0,9.86377,97.08857
1580908945.389222,20,0,1580907286.99823,41.20781296037784,29.0754925099451,275.2123,0.1345286,-1,23.46983528137207,200,-9999,12661.18288404167,0.9543304443359375,0.1197662353515625,-0.14263916015625,12661.17284404167,1.728401538505583,1.44412451652382,-0.1112786605462392,0.0009950287640094757,0.01214621588587761,-0.003109073732048273,-0.02871567010879517,0.007386773824691772,-0.01824390888214111,2,-0.5290076367535951,0.3967051060092404,0.5460241053736266,0.5144256969025115,0.9858524203300476,0.1110491454601288,-0.1255519539117813,33.85037994384766,15.30946731567383,4.660369873046875,2,12659.937994,2,0,1580908944.17916,1580903939.50652,3116,0.4890548,1.136537,1.799347,3752.709,14,17,1580908943.612764,12658.317169,0,9.86377,97.08857
1580908945.393603,21,0,1580907286.99823,41.20781296037784,29.0754925099451,275.2123,0.1345286,-1,23.46983528137207,200,-9999,12661.19292504167,0.967559814453125,0.121063232421875,-0.1419830322265625,12661.18288404167,1.728340915889533,1.444275225086576,-0.1113255707192563,0.005136510357260704,0.01869039982557297,-0.003425723407417536,-0.03547382354736328,0.007950305938720703,-0.02017903327941895,2,-0.5290475251899741,0.3967459623635448,0.5459578312360267,0.5144234378896886,0.9858661293983459,0.1110957637429237,-0.1254027187824249,33.85037994384766,15.30946731567383,4.660369873046875,2,12659.937994,2,0,1580908944.17916,1580903939.50652,3116,0.4890548,1.136537,1.799347,3752.709,14,17,1580908943.612764,12658.317169,0,9.86377,97.08857
1580908945.403951,22,0,1580907286.99823,41.20781296037784,29.0754925099451,275.2123,0.1345286,-1,23.46983528137207,200,-9999,12661.20296504167,0.976226806640625,0.1196746826171875,-0.1377716064453125,12661.19292504167,1.728280904455695,1.444387967638799,-0.1113455279005108,0.005319203250110149,0.0133073516190052,-0.001336739864200354,-0.02445369958877563,0.009502053260803223,-0.02091658115386963,2,-0.5290709797511178,0.3967849014564615,0.5459079658605241,0.5144221611381069,0.9858779907226562,0.1111155971884727,-0.1252912878990173,33.96604156494141,15.35151863098145,4.638946533203125,2,12659.937994,2,0,1580908944.17916,1580903939.50652,3116,0.4890548,1.136537,1.799347,3752.709,14,17,1580908943.612764,12658.317169,0,9.86377,97.08857
1580908945.413663,23,0,1580907286.99823,41.20781296037784,29.0754925099451,275.2123,0.1345286,-1,23.46983528137207,200,-9999,12661.21300504167,0.9706878662109375,0.1187896728515625,-0.1415863037109375,12661.20296504167,1.728250034610437,1.444449770211569,-0.111354022534781,0.002691195346415043,0.007104851305484772,7.623806595802307e-06,-0.0131843090057373,0.008532285690307617,-0.01592719554901123,2,-0.529083668039768,0.3968064459468083,0.5458817259912887,0.5144203524191673,0.9858848452568054,0.1111240386962891,-0.1252302378416061,33.96604156494141,15.35151863098145,4.638946533203125,2,12659.937994,2,0,1580908944.17916,1580903939.50652,3116,0.4890548,1.136537,1.799347,3752.709,14,17,1580908943.612764,12658.317169,0,9.86377,97.08857
1580908945.448125,24,0,1580907286.99823,41.20781296037784,29.0754925099451,275.2123,0.1345286,-1,23.46983528137207,200,-9999,12661.22307604167,0.975341796875,0.11907958984375,-0.1382904052734375,12661.21300504167,1.728237437584374,1.44457151735053,-0.1113782410240934,0.002646518871188164,0.01680736243724823,-0.001938867382705212,-0.01934617757797241,0.006951749324798584,-0.01989322900772095,2,-0.5291199349563288,0.3968339182584423,0.5458407215720894,0.514405426651627,0.9858974814414978,0.1111481040716171,-0.1251098662614822,33.86559295654297,15.3347339630127,4.593597412109375,2,12659.937994,2,0,1580908944.17916,1580903939.50652,3116,0.4890548,1.136537,1.799347,3752.709,14,17,1580908943.612764,12658.317169,0,9.86377,97.08857
1580908945.449363,25,0,1580907286.99823,41.20781296037784,29.0754925099451,275.2123,0.1345286,-1,23.46983528137207,200,-9999,12661.23311604167,0.9678192138671875,0.117462158203125,-0.13824462890625,12661.22307604167,1.728265393148085,1.444616904121478,-0.1114324762310371,-0.004426303785294294,0.00640186108648777,-0.003501876723021269,-0.01481401920318604,0.007492691278457642,-0.01751279830932617,2,-0.5291503092344769,0.3968220880716363,0.5458234072747613,0.5144016407901628,0.9858971238136292,0.1112020090222359,-0.1250643581151962,33.86521148681641,15.29574584960938,4.65081787109375,2,12659.937994,2,0,1580908944.17916,1580903939.50652,3116,0.4890548,1.136537,1.799347,3752.709,14,17,1580908943.612764,12658.317169,0,9.86377,97.08857
1580908945.450399,26,0,1580907286.99823,41.20781296037784,29.0754925099451,275.2123,0.1345286,-1,23.46983528137207,200,-9999,12661.24315704167,0.9599761962890625,0.1169586181640625,-0.14166259765625,12661.23311604167,1.728265255179281,1.444588735021717,-0.1115566254300872,-0.001451451331377029,-0.00147421658039093,-0.01106219924986362,-0.02079367637634277,0.005888700485229492,-0.01629680395126343,2,-0.5291710722198255,0.3967780044307876,0.5458022149969578,0.5144366732168046,0.9858797788619995,0.1113253831863403,-0.1250903904438019,33.86521148681641,15.29574584960938,4.65081787109375,2,12659.937994,2,0,1580908944.17916,1580903939.50652,3116,0.4890548,1.136537,1.799347,3752.709,14,17,1580908943.612764,12658.317169,0,9.86377,97.08857
1580908945.45387,27,0,1580907286.99823,41.20781296037784,29.0754925099451,275.2123,0.1345286,-1,23.46983528137207,200,-9999,12661.25319704167,0.959136962890625,0.121826171875,-0.13916015625,12661.24315704167,1.728242349799919,1.444556290570796,-0.1117398482017083,0.0003051692619919777,0.0001737475395202637,-0.01756084337830544,-0.02961933612823486,0.004714041948318481,-0.02006661891937256,2,-0.5291996441898094,0.396721353019059,0.5457627556322617,0.5144929236094952,0.9858555793762207,0.1115074679255486,-0.1251198053359985,33.83751678466797,15.01887512207031,4.662506103515625,2,12659.937994,2,0,1580908944.17916,1580903939.50652,3116,0.4890548,1.136537,1.799347,3752.709,14,17,1580908943.612764,12658.317169,0,9.86377,97.08857
1580908945.463857,28,0,1580907286.99823,41.20781296037784,29.0754925099451,275.2123,0.1345286,-1,23.46983528137207,200,-9999,12661.26323704167,0.9550018310546875,0.1223907470703125,-0.1422271728515625,12661.25319704167,1.728215495280606,1.444506525255996,-0.1118873951436584,0.0006536757573485374,-0.002197220921516418,-0.01350444369018078,-0.03039008378982544,0.009251266717910767,-0.017822265625,2,-0.5292145748504109,0.3966718305050135,0.5457350126884519,0.5145450738652044,0.9858329296112061,0.111654095351696,-0.1251667886972427,33.83751678466797,15.01887512207031,4.662506103515625,2,12659.937994,2,0,1580908944.17916,1580903939.50652,3116,0.4890548,1.136537,1.799347,3752.709,14,17,1580908943.612764,12658.317169,0,9.86377,97.08857
1580908945.473982,29,0,1580907286.99823,41.20781296037784,29.0754925099451,275.2123,0.1345286,-1,23.46983528137207,200,-9999,12661.27327804167,0.95904541015625,0.1225738525390625,-0.142303466796875,12661.26323704167,1.728189628264683,1.444503522859729,-0.1119659166387017,0.001220130361616611,0.00525963120162487,-0.006906195543706417,-0.03459227085113525,0.0103478729724884,-0.02010899782180786,2,-0.5292265815752064,0.3966546307260478,0.5457111226979592,0.5145714793511964,0.9858239889144897,0.1117321252822876,-0.125168651342392,33.78491973876953,15.39193153381348,4.69378662109375,2,12659.937994,2,0,1580908944.17916,1580903939.50652,3116,0.4890548,1.136537,1.799347,3752.709,14,17,1580908943.612764,12658.317169,0,9.86377,97.08857
1580908945.508452,30,0,1580907286.99823,41.20781296037784,29.0754925099451,275.2123,0.1345286,-1,23.46983528137207,200,-9999,12661.28331804167,0.96453857421875,0.1234130859375,-0.14166259765625,12661.27327804167,1.728155535588476,1.444513220901034,-0.1119948124992196,0.002923985011875629,0.004283042624592781,-0.003186821937561035,-0.03124845027923584,0.01036489009857178,-0.02085119485855103,2,-0.5292290995695215,0.3966575567787566,0.5456931155192639,0.5145856808514151,0.9858219623565674,0.1117608398199081,-0.1251586824655533,33.78491973876953,15.39193153381348,4.69378662109375,2,12659.937994,2,0,1580908944.17916,1580903939.50652,3116,0.4890548,1.136537,1.799347,3752.709,14,17,1580908943.612764,12658.317169,0,9.86377,97.08857
1580908945.510684,31,0,1580907286.99823,41.20781296037784,29.0754925099451,275.2123,0.1345286,-1,23.46983528137207,200,-9999,12661.29335804167,0.9720458984375,0.122314453125,-0.140594482421875,12661.28331804167,1.728136394464105,1.444540764161398,-0.1119622388058412,0.001755922101438046,0.004370659589767456,0.003165883012115955,-0.02571654319763184,0.01122131943702698,-0.02006930112838745,2,-0.5292253373850317,0.396679395400307,0.5456884248091367,0.514577759088281,0.9858290553092957,0.1117284670472145,-0.1251319944858551,33.94236755371094,15.25856971740723,4.614044189453125,2,12659.937994,2,0,1580908944.17916,1580903939.50652,3116,0.4890548,1.136537,1.799347,3752.709,14,17,1580908943.612764,12658.317169,0,9.86377,97.08857
1580908945.512145,32,0,1580907286.99823,41.20781296037784,29.0754925099451,275.2123,0.1345286,-1,23.46983528137207,200,-9999,12661.30339804167,0.96673583984375,0.1178741455078125,-0.1426239013671875,12661.29335804167,1.728122409142698,1.444554122079766,-0.11190886526664,0.001329191029071808,0.002961587160825729,0.006767227314412594,-0.01833885908126831,0.01048111915588379,-0.01924252510070801,2,-0.5292139983263761,0.3967023551556328,0.5456935533858575,0.5145661918608654,0.9858365654945374,0.111675426363945,-0.1251195669174194,33.94236755371094,15.25856971740723,4.614044189453125,2,12659.937994,2,0,1580908944.17916,1580903939.50652,3116,0.4890548,1.136537,1.799347,3752.709,14,17,1580908943.612764,12658.317169,0,9.86377,97.08857
1580908945.514113,33,0,1580907286.99823,41.20781296037784,29.0754925099451,275.2123,0.1345286,-1,23.46983528137207,200,-9999,12661.31346904167,0.957733154296875,0.1168670654296875,-0.1428375244140625,12661.30339804167,1.728084739367798,1.444674247296498,-0.1119703507064092,0.001961158588528633,0.01600921340286732,-0.006480401381850243,-0.02139884233474731,0.0061473548412323,-0.02033877372741699,2,-0.5292534023805885,0.3967249650918276,0.5456378997345148,0.5145671993553511,0.9858447313308716,0.1117365285754204,-0.1250002831220627,33.90216827392578,15.05227470397949,4.58074951171875,2,12659.937994,2,0,1580908944.17916,1580903939.50652,3116,0.4890548,1.136537,1.799347,3752.709,14,17,1580908943.612764,12658.317169,0,9.86377,97.08857
1580908945.52435,34,0,1580907286.99823,41.20781296037784,29.0754925099451,275.2123,0.1345286,-1,23.46983528137207,200,-9999,12661.32350904167,0.958282470703125,0.120086669921875,-0.140960693359375,12661.31346904167,1.72803249923718,1.444827909812543,-0.1121088750891963,0.003082394599914551,0.0170530192553997,-0.01404527015984058,-0.03237378597259521,0.004239141941070557,-0.02200347185134888,2,-0.529316677502895,0.3967372289807758,0.5455519190003499,0.5145839162062993,0.9858486652374268,0.1118741855025291,-0.1248468533158302,33.90216827392578,15.05227470397949,4.58074951171875,2,12659.937994,2,0,1580908944.17916,1580903939.50652,3116,0.4890548,1.136537,1.799347,3752.709,14,17,1580908943.612764,12658.317169,0,9.86377,97.08857
1580908945.534212,35,0,1580907286.99823,41.20781296037784,29.0754925099451,275.2123,0.1345286,-1,23.46983528137207,200,-9999,12661.33355004167,0.96514892578125,0.12176513671875,-0.14056396484375,12661.32350904167,1.727978125277295,1.44501287611632,-0.1122309083104443,0.004173758439719677,0.02566541731357574,-0.01071818266063929,-0.03140687942504883,0.007520049810409546,-0.01954859495162964,2,-0.5293842954154235,0.3967629933788155,0.5454608681437167,0.5145910344207607,0.9858582019805908,0.1119954511523247,-0.1246627867221832,33.65870666503906,15.11013031005859,4.66064453125,2,12659.937994,2,0,1580908944.17916,1580903939.50652,3116,0.4890548,1.136537,1.799347,3752.709,14,17,1580908943.612764,12658.317169,0,9.86377,97.08857
1580908945.567955,36,0,1580907286.99823,41.20781296037784,29.0754925099451,275.2123,0.1345286,-1,23.46983528137207,200,-9999,12661.34359004167,0.97723388671875,0.122467041015625,-0.1390380859375,12661.33355004167,1.727910732901111,1.445177432019678,-0.1123824795885319,0.005135510116815567,0.01963990181684494,-0.01536492817103863,-0.02597832679748535,0.00900152325630188,-0.01956093311309814,2,-0.5294505421151867,0.3967781654381214,0.5453650210858181,0.5146126870454499,0.9858617782592773,0.1121460646390915,-0.1244984194636345,33.65870666503906,15.11013031005859,4.66064453125,2,12659.937994,2,0,1580908944.17916,1580903939.50652,3116,0.4890548,1.136537,1.799347,3752.709,14,17,1580908943.612764,12658.317169,0,9.86377,97.08857
1580908945.569311,37,0,1580907286.99823,41.20781296037784,29.0754925099451,275.2123,0.1345286,-1,23.46983528137207,200,-9999,12661.35363004167,0.97357177734375,0.122833251953125,-0.1389007568359375,12661.34359004167,1.72787576392269,1.445229271013366,-0.1125104881722888,0.0001452788710594177,0.006242869421839714,-0.01099494658410549,-0.01350420713424683,0.009636759757995605,-0.01848506927490234,2,-0.5294870726504565,0.3967627558751874,0.5453127856517169,0.5146422856675945,0.985853910446167,0.1122732684016228,-0.1244455128908157,33.67356109619141,15.16002464294434,4.62335205078125,2,12659.937994,2,0,1580908944.17916,1580903939.50652,3116,0.4890548,1.136537,1.799347,3752.709,14,17,1580908943.612764,12658.317169,0,9.86377,97.08857
1580908945.57056,38,0,1580907286.99823,41.20781296037784,29.0754925099451,275.2123,0.1345286,-1,23.46983528137207,200,-9999,12661.36367104167,0.96527099609375,0.1246337890625,-0.1400604248046875,12661.35363004167,1.727862207325712,1.445221382760529,-0.1125622489879062,0.0002300012856721878,0.003975601866841316,-0.003393903374671936,-0.01491647958755493,0.009676665067672729,-0.01763874292373657,2,-0.5294940718478262,0.3967489687794774,0.5452994786657646,0.5146598813412137,0.9858472347259521,0.1123246997594833,-0.124452568590641,33.67356109619141,15.16002464294434,4.62335205078125,2,12659.937994,2,0,1580908944.17916,1580903939.50652,3116,0.4890548,1.136537,1.799347,3752.709,14,17,1580908943.612764,12658.317169,0,9.86377,97.08857
1580908945.574434,39,0,1580907286.99823,41.20781296037784,29.0754925099451,275.2123,0.1345286,-1,23.46983528137207,200,-9999,12661.37371104167,0.9498443603515625,0.11956787109375,-0.14569091796875,12661.36367104167,1.727870869286087,1.445181321978858,-0.1125387955464795,-0.0003652153536677361,-0.004088183864951134,0.004891989752650261,-0.02368789911270142,0.01200413703918457,-0.01903319358825684,2,-0.5294795188552794,0.3967433038973573,0.5453176872984894,0.5146598292390877,0.9858447909355164,0.1123013943433762,-0.1244923770427704,33.69966125488281,15.15206718444824,4.638824462890625,2,12659.937994,2,0,1580908944.17916,1580903939.50652,3116,0.4890548,1.136537,1.799347,3752.709,14,17,1580908943.612764,12658.317169,0,9.86377,97.08857
1580908945.584781,40,0,1580907286.99823,41.20781296037784,29.0754925099451,275.2123,0.1345286,-1,23.46983528137207,200,-9999,12661.38375104167,0.9379425048828125,0.121490478515625,-0.145355224609375,12661.37371104167,1.727866563234426,1.445280063559794,-0.1125015109818686,0.00183232594281435,0.01366661489009857,0.004578140564262867,-0.03801697492599487,0.007051736116409302,-0.02424180507659912,2,-0.5294970261047225,0.3967809403223937,0.5452990582651012,0.5146326288805871,0.9858613014221191,0.1122643500566483,-0.1243955716490746,33.69966125488281,15.15206718444824,4.638824462890625,2,12659.937994,2,0,1580908944.17916,1580903939.50652,3116,0.4890548,1.136537,1.799347,3752.709,14,17,1580908943.612764,12658.317169,0,9.86377,97.08857
1580908945.594491,41,0,1580907286.99823,41.20781296037784,29.0754925099451,275.2123,0.1345286,-1,23.46983528137207,200,-9999,12661.39379104167,0.9407806396484375,0.1213836669921875,-0.1462860107421875,12661.38375104167,1.727849672582169,1.445523349312994,-0.1124358244230997,0.001706625334918499,0.02564471215009689,0.007145960815250874,-0.0514976978302002,0.008597373962402344,-0.02510732412338257,2,-0.5295449459203909,0.3968675178335781,0.5452454555762719,0.5145734093387457,0.9858989119529724,0.1121990755200386,-0.1241566464304924,33.73822784423828,15.01761817932129,4.82208251953125,2,12659.937994,2,0,1580908944.17916,1580903939.50652,3116,0.4890548,1.136537,1.799347,3752.709,14,17,1580908943.612764,12658.317169,0,9.86377,97.08857
1580908945.627953,42,0,1580907286.99823,41.20781296037784,29.0754925099451,275.2123,0.1345286,-1,23.46983528137207,200,-9999,12661.40386204167,0.955718994140625,0.1220245361328125,-0.146270751953125,12661.39379104167,1.727807450689163,1.445992050831699,-0.1123329903687913,0.005910461768507957,0.05076983571052551,0.01056319288909435,-0.05004173517227173,0.009157687425613403,-0.0255395770072937,2,-0.5296408152839227,0.3970297550623476,0.5451341415235779,0.5144673745192012,0.985968291759491,0.1120968908071518,-0.1236959621310234,33.73822784423828,15.01761817932129,4.82208251953125,2,12659.937994,2,0,1580908944.17916,1580903939.50652,3116,0.4890548,1.136537,1.799347,3752.709,14,17,1580908943.612764,12658.317169,0,9.86377,97.08857
1580908945.6292,43,0,1580907286.99823,41.20781296037784,29.0754925099451,275.2123,0.1345286,-1,23.46983528137207,200,-9999,12661.41390304167,0.9703826904296875,0.1223297119140625,-0.1418914794921875,12661.40386204167,1.727781413290467,1.44666531152495,-0.1122023239085558,0.003686721436679363,0.06973527371883392,0.01432464085519314,-0.03613221645355225,0.00939488410949707,-0.02711969614028931,2,-0.5297891799280597,0.3972486022152931,0.5449792921700733,0.5143098338635157,0.9860659837722778,0.1119670495390892,-0.1230339482426643,33.65711975097656,15.02643013000488,4.728729248046875,2,12659.937994,2,0,1580908944.17916,1580903939.50652,3116,0.4890548,1.136537,1.799347,3752.709,14,17,1580908943.612764,12658.317169,0,9.86377,97.08857
1580908945.630493,44,0,1580907286.99823,41.20781296037784,29.0754925099451,275.2123,0.1345286,-1,23.46983528137207,200,-9999,12661.42394304167,0.97857666015625,0.1226959228515625,-0.13739013671875,12661.41390304167,1.727751325894043,1.447395253734325,-0.1120781492842247,0.00483875535428524,0.07650595903396606,0.01216521207243204,-0.0208856463432312,0.01017490029335022,-0.02365970611572266,2,-0.5299536451477607,0.3974810776884759,0.5448068098264383,0.5141435031602715,0.9861693382263184,0.111843653023243,-0.1223158538341522,33.65711975097656,15.02643013000488,4.728729248046875,2,12659.937994,2,0,1580908944.17916,1580903939.50652,3116,0.4890548,1.136537,1.799347,3752.709,14,17,1580908943.612764,12658.317169,0,9.86377,97.08857
1580908945.634743,45,0,1580907286.99823,41.20781296037784,29.0754925099451,275.2123,0.1345286,-1,23.46983528137207,200,-9999,12661.43398304167,0.9803924560546875,0.1208953857421875,-0.1378021240234375,12661.42394304167,1.727755662541951,1.448081368269747,-0.1119557778436189,0.0005452074110507965,0.07105260342359543,0.01445419806987047,-0.01207220554351807,0.01026645302772522,-0.01937836408615112,2,-0.5301133836910437,0.3976925504939587,0.5446543136727944,0.5139768113824097,0.986266553401947,0.11172204464674,-0.1216408684849739,33.69212341308594,15.10573387145996,4.649017333984375,2,12659.937994,2,0,1580908944.17916,1580903939.50652,3116,0.4890548,1.136537,1.799347,3752.709,14,17,1580908943.612764,12658.317169,0,9.86377,97.08857
1580908945.644722,46,0,1580907286.99823,41.20781296037784,29.0754925099451,275.2123,0.1345286,-1,23.46983528137207,200,-9999,12661.44402304167,0.9704742431640625,0.115875244140625,-0.137237548828125,12661.43398304167,1.727781487453005,1.448750682312718,-0.1119199895975716,-0.001985033042728901,0.06740262359380722,0.005959715694189072,-0.009823262691497803,0.009523957967758179,-0.02049869298934937,2,-0.5302926207665134,0.3978682469787415,0.5444917141486211,0.5138280158508501,0.9863516092300415,0.1116864830255508,-0.1209811866283417,33.69212341308594,15.10573387145996,4.649017333984375,2,12659.937994,2,0,1580908944.17916,1580903939.50652,3116,0.4890548,1.136537,1.799347,3752.709,14,17,1580908943.612764,12658.317169,0,9.86377,97.08857
1580908945.65471,47,0,1580907286.99823,41.20781296037784,29.0754925099451,275.2123,0.1345286,-1,23.46983528137207,200,-9999,12661.45406404167,0.958404541015625,0.117156982421875,-0.136260986328125,12661.44402304167,1.72779255895205,1.449448642200349,-0.1120145144902826,-0.002916340716183186,0.07378355413675308,-0.008903386071324348,-0.01824378967285156,0.003844946622848511,-0.02042800188064575,2,-0.5305063559929671,0.3980166674244507,0.5442877273992256,0.5137088220449091,0.986425518989563,0.1117804124951363,-0.1202914789319038,33.60697174072266,15.10606384277344,4.493133544921875,2,12659.937994,2,0,1580908944.17916,1580903939.50652,3116,0.4890548,1.136537,1.799347,3752.709,14,17,1580908943.612764,12658.317169,0,9.86377,97.08857
1580908945.688703,48,0,1580907286.99823,41.20781296037784,29.0754925099451,275.2123,0.1345286,-1,23.46983528137207,200,-9999,12661.46410404167,0.955413818359375,0.1183624267578125,-0.138427734375,12661.45406404167,1.727780519308526,1.450136346032727,-0.1121429034635195,-0.0009496118873357773,0.07160422205924988,-0.01269725244492292,-0.03141963481903076,0.004571318626403809,-0.020149827003479,2,-0.5307204832607806,0.3981583932040753,0.5440724572158347,0.5136056050379938,0.9864935874938965,0.111907996237278,-0.1196113228797913,33.60697174072266,15.10606384277344,4.493133544921875,2,12659.937994,2,0,1580908944.17916,1580903939.50652,3116,0.4890548,1.136537,1.799347,3752.709,14,17,1580908943.612764,12658.317169,0,9.86377,97.08857
1580908945.690063,49,0,1580907286.99823,41.20781296037784,29.0754925099451,275.2123,0.1345286,-1,23.46983528137207,200,-9999,12661.47414404167,0.9666595458984375,0.1201324462890625,-0.138885498046875,12661.46410404167,1.727794870242008,1.450910509189253,-0.1122328510597786,-0.002870283555239439,0.0793076753616333,-0.006518186070024967,-0.0351492166519165,0.00574803352355957,-0.02277934551239014,2,-0.530954404774308,0.3983267760372299,0.543849945854712,0.5134691110205708,0.9865760207176208,0.1119973808526993,-0.1188464015722275,33.59552001953125,15.00531768798828,4.797943115234375,2,12659.937994,2,0,1580908944.17916,1580903939.50652,3116,0.4890548,1.136537,1.799347,3752.709,14,17,1580908943.612764,12658.317169,0,9.86377,97.08857
1580908945.691207,50,0,1580907286.99823,41.20781296037784,29.0754925099451,275.2123,0.1345286,-1,23.46983528137207,200,-9999,12661.48418504167,0.986846923828125,0.1199951171875,-0.1281585693359375,12661.47414404167,1.727850264584392,1.451765225437029,-0.112293706390105,-0.00680881692096591,0.09063977003097534,-0.003870810382068157,-0.0259515643119812,0.007548928260803223,-0.02483236789703369,2,-0.5312117032442636,0.3985134544119062,0.5436231443265852,0.5132982994087256,0.9866704940795898,0.1120578572154045,-0.1180023029446602,33.59552001953125,15.00531768798828,4.797943115234375,2,12659.937994,2,0,1580908944.17916,1580903939.50652,3116,0.4890548,1.136537,1.799347,3752.709,14,17,1580908943.612764,12658.317169,0,9.86377,97.08857
1580908945.694984,51,0,1580907286.99823,41.20781296037784,29.0754925099451,275.2123,0.1345286,-1,23.46983528137207,200,-9999,12661.49425504167,0.983245849609375,0.1219024658203125,-0.1257781982421875,12661.48418504167,1.727955094343853,1.452413912147962,-0.1123320243174862,-0.01162327919155359,0.06607530266046524,-0.001236145384609699,-0.005180597305297852,0.007739543914794922,-0.01548111438751221,2,-0.531417643227686,0.3986407190277534,0.5434688491672479,0.5131496503498212,0.9867425560951233,0.1120959296822548,-0.1173617318272591,33.67243194580078,14.90284729003906,4.5723876953125,2,12659.937994,2,0,1580908944.17916,1580903939.50652,3116,0.4890548,1.136537,1.799347,3752.709,14,17,1580908943.612764,12658.317169,0,9.86377,97.08857
1580908945.705122,52,0,1580907286.99823,41.20781296037784,29.0754925099451,275.2123,0.1345286,-1,23.46983528137207,200,-9999,12661.50429604167,0.9746551513671875,0.123046875,-0.12908935546875,12661.49425504167,1.728099298297312,1.452828715181114,-0.1123105162500308,-0.01472931168973446,0.04094552993774414,0.005493858829140663,-0.006421983242034912,0.008981674909591675,-0.01230597496032715,2,-0.5315541865587681,0.3987151809041579,0.5434005908989036,0.5130226617378379,0.986793577671051,0.1120745539665222,-0.1169527024030685,33.67243194580078,14.90284729003906,4.5723876953125,2,12659.937994,2,0,1580908944.17916,1580903939.50652,3116,0.4890548,1.136537,1.799347,3752.709,14,17,1580908943.612764,12658.317169,0,9.86377,97.08857
1580908945.715005,53,0,1580907286.99823,41.20781296037784,29.0754925099451,275.2123,0.1345286,-1,23.46983528137207,200,-9999,12661.51433604167,0.9688568115234375,0.1184539794921875,-0.1317901611328125,12661.50429604167,1.728258848446887,1.453132146929018,-0.1122300582154267,-0.0151655375957489,0.03118637762963772,0.01184549741446972,-0.01560664176940918,0.01087775826454163,-0.01577961444854736,2,-0.5316501132398537,0.3987743707996827,0.5433794250397391,0.5128995264550589,0.9868378639221191,0.1119946092367172,-0.1166543141007423,33.81821441650391,15.11484527587891,4.8299560546875,2,12659.937994,2,0,1580908944.17916,1580903939.50652,3116,0.4890548,1.136537,1.799347,3752.709,14,17,1580908943.612764,12658.317169,0,9.86377,97.08857
1580908945.749029,54,0,1580907286.99823,41.20781296037784,29.0754925099451,275.2123,0.1345286,-1,23.46983528137207,200,-9999,12661.52437604167,0.95849609375,0.1190948486328125,-0.1345977783203125,12661.51433604167,1.728418627976355,1.453391933998717,-0.1121618535450106,-0.01420092675834894,0.02618775889277458,0.009410538710653782,-0.02119868993759155,0.006444454193115234,-0.01864516735076904,2,-0.5317369832554451,0.3988187030159897,0.5433671243503215,0.5127880803006006,0.9868757724761963,0.111926831305027,-0.116398848593235,33.81821441650391,15.11484527587891,4.8299560546875,2,12659.937994,2,0,1580908944.17916,1580903939.50652,3116,0.4890548,1.136537,1.799347,3752.709,14,17,1580908943.612764,12658.317169,0,9.86377,97.08857
1580908945.750376,55,0,1580907286.99823,41.20781296037784,29.0754925099451,275.2123,0.1345286,-1,23.46983528137207,200,-9999,12661.53441604167,0.9564666748046875,0.1195526123046875,-0.136199951171875,12661.52437604167,1.728575177728285,1.453707832618659,-0.1120839791974837,-0.01307760551571846,0.03234019502997398,0.01021321583539248,-0.03128468990325928,0.006567925214767456,-0.02170395851135254,2,-0.5318362842499542,0.3988810828411822,0.543341249436456,0.5126639087923701,0.9869210720062256,0.1118494421243668,-0.1160880997776985,33.75692749023438,15.10215187072754,4.84307861328125,2,12659.937994,2,0,1580908944.17916,1580903939.50652,3116,0.4890548,1.136537,1.799347,3752.709,14,17,1580908943.612764,12658.317169,0,9.86377,97.08857
1580908945.751507,56,0,1580907286.99823,41.20781296037784,29.0754925099451,275.2123,0.1345286,-1,23.46983528137207,200,-9999,12661.54445704167,0.9687042236328125,0.1204376220703125,-0.1326751708984375,12661.53441604167,1.728740669325116,1.454111329947336,-0.1119896406757477,-0.0155101977288723,0.04202362149953842,0.01208859588950872,-0.03495842218399048,0.007302939891815186,-0.02417755126953125,2,-0.5319573686772872,0.3989684238745869,0.5432982149325535,0.5125160349725812,0.9869784116744995,0.1117556989192963,-0.1156911104917526,33.75692749023438,15.10215187072754,4.84307861328125,2,12659.937994,2,0,1580908944.17916,1580903939.50652,3116,0.4890548,1.136537,1.799347,3752.709,14,17,1580908943.612764,12658.317169,0,9.86377,97.08857
1580908945.755227,57,0,1580907286.99823,41.20781296037784,29.0754925099451,275.2123,0.1345286,-1,23.46983528137207,200,-9999,12661.55449704167,0.9794158935546875,0.1219329833984375,-0.1273651123046875,12661.54445704167,1.728910698339175,1.454471735835674,-0.1118467193606702,-0.01533469557762146,0.03702779486775398,0.01736698299646378,-0.02396881580352783,0.00814741849899292,-0.02155733108520508,2,-0.5320566050402178,0.3990578226829603,0.5432789814104827,0.5123638352278043,0.9870359301567078,0.1116136685013771,-0.1153372451663017,33.61708068847656,15.04534530639648,4.900909423828125,2,12659.937994,2,0,1580908944.17916,1580903939.50652,3116,0.4890548,1.136537,1.799347,3752.709,14,17,1580908943.612764,12658.317169,0,9.86377,97.08857
1580908945.765208,58,0,1580907286.99823,41.20781296037784,29.0754925099451,275.2123,0.1345286,-1,23.46983528137207,200,-9999,12661.56453704167,0.9825897216796875,0.1233673095703125,-0.125579833984375,12661.55449704167,1.729087536055059,1.454703367136128,-0.111623294753819,-0.01507730409502983,0.02681015990674496,0.02520411461591721,-0.01216429471969604,0.009865731000900269,-0.01584827899932861,2,-0.5321039086579911,0.3991361709343868,0.5433143110465727,0.5122161459357393,0.9870873093605042,0.1113916411995888,-0.1151114925742149,33.61708068847656,15.04534530639648,4.900909423828125,2,12659.937994,2,0,1580908944.17916,1580903939.50652,3116,0.4890548,1.136537,1.799347,3752.709,14,17,1580908943.612764,12658.317169,0,9.86377,97.08857
1580908945.775323,59,0,1580907286.99823,41.20781296037784,29.0754925099451,275.2123,0.1345286,-1,23.46983528137207,200,-9999,12661.57457804167,0.97650146484375,0.1208953857421875,-0.128204345703125,12661.56453704167,1.729275413544141,1.454762832718248,-0.1113333653499303,-0.01519368402659893,0.005491821095347404,0.03138238191604614,-0.008480250835418701,0.01192501187324524,-0.01430141925811768,2,-0.5320914796253339,0.3991871613333758,0.5434136562424411,0.5120839555574157,0.9871262311935425,0.1111035123467445,-0.115056537091732,33.64058685302734,15.02495765686035,4.82708740234375,2,12659.937994,2,0,1580908944.17916,1580903939.50652,3116,0.4890548,1.136537,1.799347,3752.709,14,17,1580908943.612764,12658.317169,0,9.86377,97.08857
1580908945.803614,60,0,1580907286.99823,41.20781296037784,29.0754925099451,275.2123,0.1345286,-1,23.46983528137207,200,-9999,12661.58464804167,0.966766357421875,0.118011474609375,-0.137451171875,12661.57457804167,1.729503842805945,1.454757401422164,-0.1110214356399215,-0.01883824542164803,-0.003966560587286949,0.03470668569207191,-0.01382404565811157,0.009977966547012329,-0.01613825559616089,2,-0.5320645338995681,0.3992172158561521,0.5435456600418446,0.5119483080074076,0.9871599078178406,0.1107935085892677,-0.1150658950209618,33.64058685302734,15.02495765686035,4.82708740234375,2,12659.937994,2,0,1580908944.17916,1580903939.50652,3116,0.4890548,1.136537,1.799347,3752.709,14,17,1580908943.612764,12658.317169,0,9.86377,97.08857
1580908945.804939,61,0,1580907286.99823,41.20781296037784,29.0754925099451,275.2123,0.1345286,-1,23.46983528137207,200,-9999,12661.59468904167,0.9627838134765625,0.1163330078125,-0.1343841552734375,12661.58464804167,1.729783653973336,1.454906846806167,-0.1107217183010878,-0.02442795410752296,0.01597172766923904,0.03373409807682037,-0.02333486080169678,0.007301598787307739,-0.02523952722549438,2,-0.532092723841409,0.3992696301898683,0.5436467580443082,0.5117706784594451,0.9872099757194519,0.1104956269264221,-0.1149221882224083,33.57357788085938,15.10327529907227,4.984344482421875,2,12659.937994,2,0,1580908944.17916,1580903939.50652,3116,0.4890548,1.136537,1.799347,3752.709,14,17,1580908943.612764,12658.317169,0,9.86377,97.08857
1580908945.806153,62,0,1580907286.99823,41.20781296037784,29.0754925099451,275.2123,0.1345286,-1,23.46983528137207,200,-9999,12661.60472904167,0.965362548828125,0.1163177490234375,-0.1316375732421875,12661.59468904167,1.730104683114559,1.455080592783021,-0.110455900516186,-0.02838000655174255,0.01646989770233631,0.03163493424654007,-0.02864837646484375,0.005751043558120728,-0.02424865961074829,2,-0.532143483926792,0.3993072597535809,0.5437440725026685,0.511585091383588,0.9872590303421021,0.1102314367890358,-0.1147540509700775,33.57357788085938,15.10327529907227,4.984344482421875,2,12659.937994,2,0,1580908944.17916,1580903939.50652,3116,0.4890548,1.136537,1.799347,3752.709,14,17,1580908943.612764,12658.317169,0,9.86377,97.08857
1580908945.815392,63,0,1580907286.99823,41.20781296037784,29.0754925099451,275.2123,0.1345286,-1,23.46983528137207,200,-9999,12661.61476904167,0.958587646484375,0.118927001953125,-0.13427734375,12661.60472904167,1.730467314856545,1.455275058595475,-0.1102091160016236,-0.03257288411259651,0.01947394199669361,0.02993210591375828,-0.02555453777313232,0.005997329950332642,-0.02001315355300903,2,-0.532212520162515,0.3993334871415609,0.5438420982729721,0.5113886399267918,0.9873083829879761,0.1099861487746239,-0.1145652011036873,33.75877380371094,14.95797729492188,4.991851806640625,2,12659.937994,2,0,1580908944.17916,1580903939.50652,3116,0.4890548,1.136537,1.799347,3752.709,14,17,1580908943.612764,12658.317169,0,9.86377,97.08857
1580908945.825962,64,0,1580907286.99823,41.20781296037784,29.0754925099451,275.2123,0.1345286,-1,23.46983528137207,200,-9999,12661.62481004167,0.960296630859375,0.1220550537109375,-0.1294403076171875,12661.61476904167,1.730853118401287,1.455543923233812,-0.1099118143742214,-0.035625871270895,0.02642967738211155,0.03527176007628441,-0.03234714269638062,0.008353918790817261,-0.02360224723815918,2,-0.532294930235624,0.399387472579375,0.5439378640384107,0.5111589030597224,0.9873716831207275,0.1096906512975693,-0.1143035069108009,33.75877380371094,14.95797729492188,4.991851806640625,2,12659.937994,2,0,1580908944.17916,1580903939.50652,3116,0.4890548,1.136537,1.799347,3752.709,14,17,1580908943.612764,12658.317169,0,9.86377,97.08857
1580908945.836013,65,0,1580907286.99823,41.20781296037784,29.0754925099451,275.2123,0.1345286,-1,23.46983528137207,200,-9999,12661.63485004167,0.9646453857421875,0.120758056640625,-0.1264801025390625,12661.62481004167,1.731218820904716,1.455763244836628,-0.1095708508192833,-0.03334993496537209,0.02195556648075581,0.0405149906873703,-0.03182989358901978,0.01218843460083008,-0.01952767372131348,2,-0.5323499435115135,0.3994470085563853,0.5440516904846708,0.5109340035205692,0.987433910369873,0.1093517318367958,-0.1140912473201752,33.69991302490234,15.20122528076172,5.218505859375,2,12659.937994,2,0,1580908944.17916,1580903939.50652,3116,0.4890548,1.136537,1.799347,3752.709,14,17,1580908943.612764,12658.317169,0,9.86377,97.08857
1580908945.869063,66,0,1580907286.99823,41.20781296037784,29.0754925099451,275.2123,0.1345286,-1,23.46983528137207,200,-9999,12661.64489004167,0.9595947265625,0.1190948486328125,-0.13250732421875,12661.63485004167,1.731557862611776,1.455913766038121,-0.1092203710085511,-0.0289419163018465,0.01132451184093952,0.04061806574463844,-0.02672773599624634,0.01145488023757935,-0.0159035325050354,2,-0.5323788160436195,0.3994988065795918,0.5441791009551562,0.5107276407035046,0.9874890446662903,0.1090033501386642,-0.1139469966292381,33.69991302490234,15.20122528076172,5.218505859375,2,12659.937994,2,0,1580908944.17916,1580903939.50652,3116,0.4890548,1.136537,1.799347,3752.709,14,17,1580908943.612764,12658.317169,0,9.86377,97.08857
1580908945.870639,67,0,1580907286.99823,41.20781296037784,29.0754925099451,275.2123,0.1345286,-1,23.46983528137207,200,-9999,12661.65493004167,0.96685791015625,0.1192626953125,-0.1275482177734375,12661.64489004167,1.7318925858411,1.456158038374791,-0.1088593664967199,-0.02936509251594543,0.02494152076542377,0.04198107123374939,-0.03179967403411865,0.01022824645042419,-0.02201592922210693,2,-0.5324299684716651,0.3995787712920146,0.5442828189659269,0.5105011384686075,0.9875558018684387,0.1086444929242134,-0.1137102693319321,33.82078552246094,14.86666679382324,5.223236083984375,2,12659.937994,2,0,1580908944.17916,1580903939.50652,3116,0.4890548,1.136537,1.799347,3752.709,14,17,1580908943.612764,12658.317169,0,9.86377,97.08857
1580908945.871645,68,0,1580907286.99823,41.20781296037784,29.0754925099451,275.2123,0.1345286,-1,23.46983528137207,200,-9999,12661.66497104167,0.9700775146484375,0.1165924072265625,-0.1273193359375,12661.65493004167,1.732176935529708,1.456343676168778,-0.1084949510032784,-0.02410673908889294,0.01573793590068817,0.04050368070602417,-0.02583307027816772,0.01062247157096863,-0.01835030317306519,2,-0.532454346045649,0.3996581585064247,0.5443900275753109,0.5102992024916131,0.9876161217689514,0.1082822233438492,-0.1135314479470253,33.81092834472656,14.94100379943848,5.1376953125,2,12659.937994,2,0,1580908944.17916,1580903939.50652,3116,0.4890548,1.136537,1.799347,3752.709,14,17,1580908943.612764,12658.317169,0,9.86377,97.08857
1580908945.875585,69,0,1580907286.99823,41.20781296037784,29.0754925099451,275.2123,0.1345286,-1,23.46983528137207,200,-9999,12661.67504104167,0.973297119140625,0.1160888671875,-0.1279754638671875,12661.66497104167,1.732435564033832,1.456513555357451,-0.1081336776956154,-0.02219272404909134,0.0175909660756588,0.04043151065707207,-0.02175623178482056,0.008556962013244629,-0.01703405380249023,2,-0.5324700289597044,0.3997394197690062,0.5444941006055042,0.5101081285645402,0.9876742362976074,0.1079230681061745,-0.1133681312203407,33.81092834472656,14.94100379943848,5.1376953125,2,12659.937994,2,0,1580908944.17916,1580903939.50652,3116,0.4890548,1.136537,1.799347,3752.709,14,17,1580908943.612764,12659.261309,0,9.895477,97.0882
1580908945.885896,70,0,1580907286.99823,41.20781296037784,29.0754925099451,275.2123,0.1345286,-1,23.46983528137207,200,-9999,12661.68508204167,0.981689453125,0.1147918701171875,-0.1237640380859375,12661.67504104167,1.732654577914437,1.456643090886249,-0.1078045210813061,-0.01790107972919941,0.01458901539444923,0.03556475788354874,-0.01909035444259644,0.008168309926986694,-0.01848602294921875,2,-0.5324741216691915,0.399811443228326,0.5445913885644095,0.5099436238510581,0.987724244594574,0.107595831155777,-0.1132442355155945,33.79564666748047,15.01213836669922,5.282684326171875,2,12659.937994,2,0,1580908944.17916,1580903939.50652,3116,0.4890548,1.136537,1.799347,3752.709,14,17,1580908943.612764,12659.261309,0,9.895477,97.0882
1580908945.895735,71,0,1580907286.99823,41.20781296037784,29.0754925099451,275.2123,0.1345286,-1,23.46983528137207,200,-9999,12661.69512204167,0.9813385009765625,0.1159515380859375,-0.1226348876953125,12661.68508204167,1.732830798433545,1.45663654998073,-0.1075129863990529,-0.01360699906945229,0.0004356447607278824,0.03123738616704941,-0.01063704490661621,0.007177561521530151,-0.01444786787033081,2,-0.5324412605134186,0.3998489506210478,0.5447051767448693,0.5098267249836803,0.9877544045448303,0.1073059812188148,-0.1132542416453362,33.79564666748047,15.01213836669922,5.282684326171875,2,12659.937994,2,0,1580908944.17916,1580903939.50652,3116,0.4890548,1.136537,1.799347,3752.709,14,17,1580908943.612764,12659.261309,0,9.895477,97.0882
1580908945.931036,72,0,1580907286.99823,41.20781296037784,29.0754925099451,275.2123,0.1345286,-1,23.46983528137207,200,-9999,12661.70516204167,0.9722900390625,0.1201171875,-0.126129150390625,12661.69512204167,1.732980595978802,1.456439859292005,-0.1072306751279595,-0.01097508147358894,-0.01844578236341476,0.03129177913069725,-0.009759843349456787,0.008176535367965698,-0.01276922225952148,2,-0.5323533415420557,0.3998423813371597,0.5448607926397663,0.5097574555828159,0.9877622127532959,0.1070252954959869,-0.1134519800543785,33.86750030517578,15.2470531463623,5.4415283203125,2,12659.937994,2,0,1580908944.17916,1580903939.50652,3116,0.4890548,1.136537,1.799347,3752.709,14,17,1580908943.612764,12659.261309,0,9.895477,97.0882
1580908945.932365,73,0,1580907286.99823,41.20781296037784,29.0754925099451,275.2123,0.1345286,-1,23.46983528137207,200,-9999,12661.71520304167,0.961669921875,0.1175537109375,-0.130767822265625,12661.70516204167,1.733128990979639,1.456143845585505,-0.1068862317064437,-0.01145152095705271,-0.02935781888663769,0.03828843310475349,-0.01856714487075806,0.01288437843322754,-0.01547747850418091,2,-0.532223896271672,0.3998292544042422,0.545056759085717,0.5096934801896508,0.9877651929855347,0.1066828221082687,-0.1137485802173615,33.86750030517578,15.2470531463623,5.4415283203125,2,12659.937994,2,0,1580908944.17916,1580903939.50652,3116,0.4890548,1.136537,1.799347,3752.709,14,17,1580908943.612764,12659.261309,0,9.895477,97.0882
1580908945.93335,74,0,1580907286.99823,41.20781296037784,29.0754925099451,275.2123,0.1345286,-1,23.46983528137207,200,-9999,12661.72524304167,0.948944091796875,0.1136474609375,-0.1413421630859375,12661.71520304167,1.73328333074468,1.455898408128622,-0.1065057836684049,-0.009128067642450333,-0.0281273927539587,0.04080864042043686,-0.02868092060089111,0.01125004887580872,-0.01976120471954346,2,-0.5321011628236436,0.3998381131863444,0.5452490323237911,0.5096091369425051,0.9877775907516479,0.1063045412302017,-0.1139956712722778,33.81066131591797,15.07111549377441,5.374786376953125,2,12659.937994,2,0,1580908944.17916,1580903939.50652,3116,0.4890548,1.136537,1.799347,3752.709,14,17,1580908943.612764,12659.261309,0,9.895477,97.0882
1580908945.935925,75,0,1580907286.99823,41.20781296037784,29.0754925099451,275.2123,0.1345286,-1,23.46983528137207,200,-9999,12661.73528304167,0.951171875,0.113006591796875,-0.1386566162109375,12661.72524304167,1.733490665786888,1.455984698658195,-0.1061595915305885,-0.01704218424856663,0.009887101128697395,0.03788661956787109,-0.04201781749725342,0.007567375898361206,-0.02979117631912231,2,-0.5320872794436338,0.3999072462884791,0.5453585762053167,0.5094521304153929,0.9878239035606384,0.105960302054882,-0.1139146462082863,33.81066131591797,15.07111549377441,5.374786376953125,2,12659.937994,2,0,1580908944.17916,1580903939.50652,3116,0.4890548,1.136537,1.799347,3752.709,14,17,1580908943.612764,12659.261309,0,9.895477,97.0882
1580908945.945912,76,0,1580907286.99823,41.20781296037784,29.0754925099451,275.2123,0.1345286,-1,23.46983528137207,200,-9999,12661.74532304167,0.955841064453125,0.113525390625,-0.1317291259765625,12661.73528304167,1.733738815511342,1.456260544253434,-0.1058482104404843,-0.02076651901006699,0.02757446095347404,0.03499295935034752,-0.04124313592910767,0.006947427988052368,-0.03010702133178711,2,-0.5321412055876671,0.4000034775592613,0.5454200197278937,0.5092543798076707,0.987887978553772,0.1056506708264351,-0.1136459112167358,33.90792846679688,15.22252082824707,5.431182861328125,2,12659.937994,2,0,1580908944.17916,1580903939.50652,3116,0.4890548,1.136537,1.799347,3752.709,14,17,1580908943.612764,12659.261309,0,9.895477,97.0882
1580908945.955979,77,0,1580907286.99823,41.20781296037784,29.0754925099451,275.2123,0.1345286,-1,23.46983528137207,200,-9999,12661.75536404167,0.9583587646484375,0.1159210205078125,-0.1349945068359375,12661.74532304167,1.734048652189978,1.456649317436642,-0.105559108946404,-0.02893496677279472,0.03705398365855217,0.0334848128259182,-0.03609931468963623,0.00757172703742981,-0.02130341529846191,2,-0.5322433645139132,0.4001054185530721,0.5454619560467221,0.5090225512345571,0.9879623651504517,0.1053631827235222,-0.1132653132081032,33.90792846679688,15.22252082824707,5.431182861328125,2,12659.937994,2,0,1580908944.17916,1580903939.50652,3116,0.4890548,1.136537,1.799347,3752.709,14,17,1580908943.612764,12659.261309,0,9.895477,97.0882
1580908945.987092,78,0,1580907286.99823,41.20781296037784,29.0754925099451,275.2123,0.1345286,-1,23.46983528137207,200,-9999,12661.76545825,0.967742919921875,0.114166259765625,-0.1251373291015625,12661.75536404167,1.734363184234687,1.457119858166847,-0.105268052047359,-0.02772484719753265,0.0471237488090992,0.03386392071843147,-0.03468787670135498,0.01039531826972961,-0.02635955810546875,2,-0.5323683513396297,0.4002274233941975,0.545483716614398,0.5087725672205434,0.9880459904670715,0.1050737425684929,-0.1128038987517357,33.82868957519531,15.21962928771973,5.464874267578125,2,12659.937994,2,0,1580908944.17916,1580903939.50652,3116,0.4890548,1.136537,1.799347,3752.709,14,17,1580908943.612764,12659.261309,0,9.895477,97.0882
1580908945.988397,79,0,1580907286.99823,41.20781296037784,29.0754925099451,275.2123,0.1345286,-1,23.46983528137207,200,-9999,12661.77549825,0.964630126953125,0.115814208984375,-0.1294708251953125,12661.76545825,1.734694108870856,1.457508032722642,-0.1049558368474455,-0.02920796349644661,0.03481941297650337,0.03556674718856812,-0.02452600002288818,0.008814901113510132,-0.0165482759475708,2,-0.5324694055420245,0.4003302499408755,0.5455363300115673,0.5085293482161415,0.9881221652030945,0.1047632470726967,-0.1124240458011627,33.82868957519531,15.21962928771973,5.464874267578125,2,12659.937994,2,0,1580908944.17916,1580903939.50652,3116,0.4890548,1.136537,1.799347,3752.709,14,17,1580908943.612764,12659.261309,0,9.895477,97.0882
1580908945.989371,80,0,1580907286.99823,41.20781296037784,29.0754925099451,275.2123,0.1345286,-1,23.46983528137207,200,-9999,12661.78553825,0.968658447265625,0.11431884765625,-0.1285247802734375,12661.77549825,1.734999906321559,1.457907654694115,-0.1046134186664816,-0.02633475139737129,0.03852859884500504,0.03840327262878418,-0.02733826637268066,0.01083531975746155,-0.02060270309448242,2,-0.5325616497937607,0.4004515953408946,0.5455864805769766,0.5082835593236211,0.9882028102874756,0.1044227108359337,-0.1120332181453705,33.92942810058594,14.95446014404297,5.677581787109375,2,12659.937994,2,0,1580908944.17916,1580903939.50652,3116,0.4890548,1.136537,1.799347,3752.709,14,17,1580908943.612764,12659.261309,0,9.895477,97.0882
1580908945.996156,81,0,1580907286.99823,41.20781296037784,29.0754925099451,275.2123,0.1345286,-1,23.46983528137207,200,-9999,12661.79557825,0.97088623046875,0.1094970703125,-0.1283416748046875,12661.78553825,1.735291952699302,1.458269320165228,-0.1043002961481023,-0.02535763755440712,0.03327950835227966,0.03656595945358276,-0.02419185638427734,0.01036980748176575,-0.02045434713363647,2,-0.5326475453115862,0.4005581779906721,0.5456363729512897,0.5080559560504487,0.9882757067680359,0.1041112914681435,-0.1116794794797897,33.92942810058594,14.95446014404297,5.677581787109375,2,12659.937994,2,0,1580908944.17916,1580903939.50652,3116,0.4890548,1.136537,1.799347,3752.709,14,17,1580908943.612764,12659.261309,0,9.895477,97.0882
1580908946.006419,82,0,1580907286.99823,41.20781296037784,29.0754925099451,275.2123,0.1345286,-1,23.46983528137207,200,-9999,12661.80561925,0.979217529296875,0.1120452880859375,-0.1230316162109375,12661.79557825,1.735581248495689,1.458596679771173,-0.1040694640954365,-0.02715707942843437,0.03409842401742935,0.0281419288367033,-0.02190268039703369,0.005335956811904907,-0.02076143026351929,2,-0.5327423194234555,0.4006323872100218,0.5456756835758974,0.5078556708639327,0.988335907459259,0.1038817092776299,-0.1113586202263832,33.93172454833984,14.91583251953125,5.73846435546875,2,12659.937994,2,0,1580908944.17916,1580903939.50652,3116,0.4890548,1.136537,1.799347,3752.709,14,17,1580908943.612764,12659.261309,0,9.895477,97.0882
1580908946.01632,83,0,1580907286.99823,41.20781296037784,29.0754925099451,275.2123,0.1345286,-1,23.46983528137207,200,-9999,12661.81565925,0.97021484375,0.113555908203125,-0.1260223388671875,12661.80561925,1.735848198308267,1.458784974233045,-0.1038659185985327,-0.02489845454692841,0.01901348121464252,0.02425717748701572,-0.01358306407928467,0.007583916187286377,-0.01575803756713867,2,-0.5328008654868859,0.4006691830749891,0.5457401013011844,0.5076960101949103,0.9883778691291809,0.1036792695522308,-0.1111748889088631,33.93172454833984,14.91583251953125,5.73846435546875,2,12659.937994,2,0,1580908944.17916,1580903939.50652,3116,0.4890548,1.136537,1.799347,3752.709,14,17,1580908943.612764,12659.261309,0,9.895477,97.0882
1580908946.047537,84,0,1580907286.99823,41.20781296037784,29.0754925099451,275.2123,0.1345286,-1,23.46983528137207,200,-9999,12661.82569925,0.9676513671875,0.11553955078125,-0.125518798828125,12661.81565925,1.736110854996451,1.458930310243444,-0.1036291265659081,-0.02411119267344475,0.01684768125414848,0.02866536192595959,-0.02076482772827148,0.009483575820922852,-0.01823395490646362,2,-0.5328393038785387,0.4007059903807868,0.5458224545307492,0.5075380117721402,0.9884183406829834,0.1034437492489815,-0.1110339686274529,33.75318908691406,14.98624610900879,5.89715576171875,2,12659.937994,2,0,1580908944.17916,1580903939.50652,3116,0.4890548,1.136537,1.799347,3752.709,14,17,1580908943.612764,12659.261309,0,9.895477,97.0882
1580908946.048915,85,0,1580907286.99823,41.20781296037784,29.0754925099451,275.2123,0.1345286,-1,23.46983528137207,200,-9999,12661.83574025,0.9733428955078125,0.114593505859375,-0.1246337890625,12661.82569925,1.736347374065494,1.45901238251938,-0.1033896626538096,-0.02083070948719978,0.008392944931983948,0.02750315703451633,-0.02513211965560913,0.01193523406982422,-0.01831269264221191,2,-0.5328546207615077,0.4007345079518948,0.5459156455623595,0.5073992222841842,0.9884520769119263,0.1032055616378784,-0.110955610871315,33.75318908691406,14.98624610900879,5.89715576171875,2,12659.937994,2,0,1580908944.17916,1580903939.50652,3116,0.4890548,1.136537,1.799347,3752.709,14,17,1580908943.612764,12659.261309,0,9.895477,97.0882
1580908946.049882,86,0,1580907286.99823,41.20781296037784,29.0754925099451,275.2123,0.1345286,-1,23.46983528137207,200,-9999,12661.84578025,0.9742279052734375,0.1161956787109375,-0.1234283447265625,12661.83574025,1.736574503870473,1.459029094058214,-0.1031308305742192,-0.02062319964170456,0.002345448359847069,0.03000394627451897,-0.01927077770233154,0.0109730064868927,-0.0173649787902832,2,-0.5328458295886425,0.4007546454454702,0.5460282726443244,0.5072713487899976,0.9884804487228394,0.1029481142759323,-0.1109420731663704,33.95299530029297,15.18593978881836,5.72747802734375,2,12659.937994,2,0,1580908944.17916,1580903939.50652,3116,0.4890548,1.136537,1.799347,3752.709,14,17,1580908943.612764,12659.261309,0,9.895477,97.0882
1580908946.056588,87,0,1580907286.99823,41.20781296037784,29.0754925099451,275.2123,0.1345286,-1,23.46983528137207,200,-9999,12661.85585125,0.973419189453125,0.1103668212890625,-0.1247711181640625,12661.84578025,1.736762469005324,1.458959486305957,-0.1028781416788448,-0.01431257463991642,-0.006506101228296757,0.02727100998163223,-0.01826667785644531,0.01345312595367432,-0.01604181528091431,2,-0.5328070123181079,0.4007615215208393,0.5461525336761665,0.5071729448179887,0.9884986281394958,0.1026967614889145,-0.1110137775540352,33.95299530029297,15.18593978881836,5.72747802734375,2,12659.937994,2,0,1580908944.17916,1580903939.50652,3116,0.4890548,1.136537,1.799347,3752.709,14,17,1580908943.612764,12659.261309,0,9.895477,97.0882
1580908946.066363,88,0,1580907286.99823,41.20781296037784,29.0754925099451,275.2123,0.1345286,-1,23.46983528137207,200,-9999,12661.86589125,0.95550537109375,0.1118621826171875,-0.1266326904296875,12661.85585125,1.736948292225757,1.458815149822646,-0.1026471502765388,-0.01599974930286407,-0.01415931433439255,0.02601239085197449,-0.01824367046356201,0.007671922445297241,-0.01671981811523438,2,-0.5327522704096047,0.400743636197468,0.5462911657009759,0.5070953571453387,0.9885061979293823,0.102466993033886,-0.1111591160297394,33.92243194580078,15.28505325317383,5.832550048828125,2,12659.937994,2,0,1580908944.17916,1580903939.50652,3116,0.4890548,1.136537,1.799347,3752.709,14,17,1580908943.612764,12659.261309,0,9.895477,97.0882
1580908946.076553,89,0,1580907286.99823,41.20781296037784,29.0754925099451,275.2123,0.1345286,-1,23.46983528137207,200,-9999,12661.87593125,0.943603515625,0.1072998046875,-0.135772705078125,12661.86589125,1.737136472031963,1.45863447375534,-0.1024752634003695,-0.01356961484998465,-0.0199961643666029,0.02096410468220711,-0.03441554307937622,0.008911669254302979,-0.01916325092315674,2,-0.532701535006075,0.4006984374560953,0.5464264349720667,0.5070385643240671,0.9885035157203674,0.1022960022091866,-0.1113396733999252,33.92243194580078,15.28505325317383,5.832550048828125,2,12659.937994,2,0,1580908944.17916,1580903939.50652,3116,0.4890548,1.136537,1.799347,3752.709,14,17,1580908943.612764,12659.261309,0,9.895477,97.0882
1580908946.109461,90,0,1580907286.99823,41.20781296037784,29.0754925099451,275.2123,0.1345286,-1,23.46983528137207,200,-9999,12661.88597125,0.9575042724609375,0.11065673828125,-0.1413421630859375,12661.87593125,1.737344496903212,1.45878348605415,-0.1023964114853012,-0.01959448307752609,0.01503745093941689,0.01146300975233316,-0.04890555143356323,0.005068957805633545,-0.02606993913650513,2,-0.5327660110629495,0.4007040609468321,0.5464575451591394,0.5069327536456253,0.9885280132293701,0.1022175699472427,-0.1111932694911957,33.94613647460938,15.24158477783203,6.121368408203125,2,12659.937994,2,0,1580908944.17916,1580903939.50652,3116,0.4890548,1.136537,1.799347,3752.709,14,17,1580908943.612764,12659.261309,0,9.895477,97.0882
1580908946.110856,91,0,1580907286.99823,41.20781296037784,29.0754925099451,275.2123,0.1345286,-1,23.46983528137207,200,-9999,12661.89601225,0.9810028076171875,0.1092529296875,-0.1229095458984375,12661.88597125,1.737540374142248,1.459223275585015,-0.1023583868646833,-0.01953323185443878,0.04682521149516106,0.008028064854443073,-0.03777366876602173,0.007655113935470581,-0.03582918643951416,2,-0.5329167744631478,0.4007745511248908,0.5463987361618428,0.5067819065878229,0.9885807037353516,0.1021797433495522,-0.110758937895298,33.94613647460938,15.24158477783203,6.121368408203125,2,12659.937994,2,0,1580908944.17916,1580903939.50652,3116,0.4890548,1.136537,1.799347,3752.709,14,17,1580908943.612764,12659.261309,0,9.895477,97.0882
1580908946.111876,92,0,1580907286.99823,41.20781296037784,29.0754925099451,275.2123,0.1345286,-1,23.46983528137207,200,-9999,12661.90605225,0.9813079833984375,0.10906982421875,-0.1260986328125,12661.89601225,1.737763964718438,1.459547846129389,-0.1023794941773995,-0.02307763323187828,0.03175278380513191,0.0018106484785676,-0.0126306414604187,0.006932109594345093,-0.0163303017616272,2,-0.5330550418656074,0.4007909743439545,0.5463640532317231,0.5066609059680959,0.9886144399642944,0.1022007390856743,-0.1104378327727318,33.8109130859375,15.1550350189209,6.02349853515625,2,12659.937994,2,0,1580908944.17916,1580903939.50652,3116,0.4890548,1.136537,1.799347,3752.709,14,17,1580908943.612764,12659.261309,0,9.895477,97.0882
1580908946.116582,93,0,1580907286.99823,41.20781296037784,29.0754925099451,275.2123,0.1345286,-1,23.46983528137207,200,-9999,12661.91609225,0.9804229736328125,0.10906982421875,-0.1239776611328125,12661.90605225,1.737988233527353,1.459777821474171,-0.1024642814762854,-0.02326085790991783,0.02151639014482498,-0.004773750435560942,-0.01116716861724854,0.006252318620681763,-0.0194585919380188,2,-0.5331820484239213,0.4007644452553564,0.5463401350290955,0.5065741478341406,0.9886313080787659,0.1022850796580315,-0.1102095246315002,33.8109130859375,15.1550350189209,6.02349853515625,2,12659.937994,2,0,1580908944.17916,1580903939.50652,3116,0.4890548,1.136537,1.799347,3752.709,14,17,1580908943.612764,12659.261309,0,9.895477,97.0882
1580908946.126674,94,0,1580907286.99823,41.20781296037784,29.0754925099451,275.2123,0.1345286,-1,23.46983528137207,200,-9999,12661.92613325,0.9795989990234375,0.1030426025390625,-0.1234588623046875,12661.91609225,1.73820090765943,1.459937941419296,-0.1026200697810799,-0.02269546873867512,0.01653148606419563,-0.009183678776025772,-0.01176410913467407,0.006386667490005493,-0.01757460832595825,2,-0.5333037933504154,0.400702301421427,0.5463155471235103,0.5065216600266171,0.9886330962181091,0.1024400517344475,-0.1100494563579559,33.74528503417969,15.04301071166992,6.207366943359375,2,12659.937994,2,0,1580908944.17916,1580903939.50652,3116,0.4890548,1.136537,1.799347,3752.709,14,17,1580908943.612764,12659.261309,0,9.895477,97.0882
1580908946.13674,95,0,1580907286.99823,41.20781296037784,29.0754925099451,275.2123,0.1345286,-1,23.46983528137207,200,-9999,12661.93617325,0.9769287109375,0.1050262451171875,-0.1210784912109375,12661.92613325,1.738428338471638,1.459938764386101,-0.1029500168717842,-0.02634959295392036,0.0009234976023435593,-0.02887109667062759,-0.0132257342338562,0.0006250441074371338,-0.01747238636016846,2,-0.5334245209624556,0.4005444212307961,0.5462971689315347,0.5065391658261476,0.9885994791984558,0.1027682572603226,-0.1100448966026306,33.74528503417969,15.04301071166992,6.207366943359375,2,12659.937994,2,0,1580908944.17916,1580903939.50652,3116,0.4890548,1.136537,1.799347,3752.709,14,17,1580908943.612764,12659.261309,0,9.895477,97.0882
1580908946.171729,96,0,1580907286.99823,41.20781296037784,29.0754925099451,275.2123,0.1345286,-1,23.46983528137207,200,-9999,12661.94624425,0.967742919921875,0.11224365234375,-0.1289215087890625,12661.93617325,1.738690040342373,1.459822972273685,-0.1033491123314065,-0.03093449026346207,-0.01393188163638115,-0.03563499450683594,-0.01431655883789062,0.0004095733165740967,-0.01385271549224854,2,-0.5335359032814321,0.4003274094826166,0.5463027085975052,0.5065873956857576,0.988545835018158,0.1031652316451073,-0.1101548075675964,33.75539398193359,15.19384002685547,5.98614501953125,2,12659.937994,2,0,1580908944.17916,1580903939.50652,3116,0.4890548,1.136537,1.799347,3752.709,14,17,1580908946.184237,12659.261309,0,9.895477,97.0882
1580908946.173405,97,0,1580907286.99823,41.20781296037784,29.0754925099451,275.2123,0.1345286,-1,23.46983528137207,200,-9999,12661.95628425,0.97979736328125,0.1104583740234375,-0.1210479736328125,12661.94624425,1.738970914002609,1.459723287350447,-0.103801859828853,-0.03188630566000938,-0.007406070828437805,-0.04181059822440147,-0.02524513006210327,0.007907241582870483,-0.02224278450012207,2,-0.5336676044263587,0.4000934909836253,0.5462965390734149,0.5066402070992998,0.9884884357452393,0.1036155521869659,-0.1102481707930565,33.75539398193359,15.19384002685547,5.98614501953125,2,12661.94261225,4,2,1580908946.183779,1580903939.50652,3116,0.4890548,1.136537,1.799347,3752.709,14,17,1580908946.184237,12659.261309,0,9.895477,97.0882
1580908946.174504,98,0,1580907286.99823,41.20781296037784,29.0754925099451,275.2123,0.1345286,-1,23.46983528137207,200,-9999,12661.96632425,0.9589385986328125,0.113739013671875,-0.1318359375,12661.95628425,1.739319821738437,1.459472253006243,-0.1042168787625913,-0.0400993786752224,-0.02722569182515144,-0.03788058459758759,-0.01302838325500488,0.00607377290725708,-0.01453697681427002,2,-0.5337629570085765,0.3998141355142061,0.5463566354457032,0.5066954658318495,0.9884178638458252,0.1040283292531967,-0.1104915291070938,33.90498352050781,14.81817817687988,6.0902099609375,2,12661.94261225,4,2,1580908946.183779,1580903939.50652,3116,0.4890548,1.136537,1.799347,3752.709,14,17,1580908946.184237,12659.261309,0,9.895477,97.0882
1580908946.176993,99,0,1580907286.99823,41.20781296037784,29.0754925099451,275.2123,0.1345286,-1,23.46983528137207,200,-9999,12661.97636525,0.9278106689453125,0.1136474609375,-0.138031005859375,12661.96632425,1.739686260126284,1.459333944298397,-0.1044859411932381,-0.03868523985147476,-0.01230826135724783,-0.02032768726348877,-0.02973920106887817,0.008460134267807007,-0.02335965633392334,2,-0.5338594206914881,0.3996017535257642,0.5464246243137348,0.506688074112644,0.9883747696876526,0.1042959243059158,-0.1106251180171967,33.90498352050781,14.81817817687988,6.0902099609375,2,12661.94261225,4,2,1580908946.183779,1580903939.50652,3116,0.4890548,1.136537,1.799347,3752.709,14,17,1580908946.184237,12659.261309,0,9.895477,97.0882
1580908946.18723,100,0,1580907286.99823,41.20781296037784,29.0754925099451,275.2123,0.1345286,-1,23.46983528137207,200,-9999,12661.98640525,0.933563232421875,0.1161651611328125,-0.1373138427734375,12661.97636525,1.740104180989956,1.459543344210449,-0.1046805399877845,-0.04461020976305008,0.01774799078702927,-0.01436224766075611,-0.06299102306365967,0.009333908557891846,-0.03089404106140137,2,-0.5340442488579259,0.3994856666967935,0.5464298945669288,0.5065790760834598,0.9883776307106018,0.1044894605875015,-0.1104158833622932,33.79130554199219,14.96648216247559,6.24371337890625,2,12661.94261225,4,2,1580908946.183779,1580903939.50652,3116,0.4890548,1.136537,1.799347,3752.709,14,17,1580908946.184237,12659.261309,0,9.895477,97.0882
1580908946.19709,101,0,1580907286.99823,41.20781296037784,29.0754925099451,275.2123,0.1345286,-1,23.46983528137207,200,-9999,12661.99644525,0.961212158203125,0.119781494140625,-0.123321533203125,12661.98640525,1.740513945365619,1.460013585743236,-0.1047456421731316,-0.03930412605404854,0.046856340020895,-0.001604374498128891,-0.06083899736404419,0.01000130176544189,-0.03191077709197998,2,-0.5342693147059376,0.3994760651258756,0.5463931329970039,0.5063889607199461,0.988422691822052,0.1045542061328888,-0.1099503487348557,33.79130554199219,14.96648216247559,6.24371337890625,2,12661.94261225,4,2,1580908946.183779,1580903939.50652,3116,0.4890548,1.136537,1.799347,3752.709,14,17,1580908946.184237,12659.261309,0,9.895477,97.0882
1580908946.226474,102,0,1580907286.99823,41.20781296037784,29.0754925099451,275.2123,0.1345286,-1,23.46983528137207,200,-9999,12662.00648525,0.9755096435546875,0.109527587890625,-0.128936767578125,12661.99644525,1.7409488173247,1.460445208142653,-0.1047569320419398,-0.04275185614824295,0.03555841371417046,0.004291597753763199,-0.03383183479309082,0.01539164781570435,-0.01798081398010254,2,-0.5344766318405384,0.3994658141345514,0.5463853244677177,0.5061867265689828,0.9884689450263977,0.1045654341578484,-0.1095235869288445,33.92217254638672,15.19619369506836,6.32440185546875,2,12661.94261225,4,2,1580908946.183779,1580903939.50652,3116,0.4890548,1.136537,1.799347,3752.709,14,17,1580908946.184237,12659.261309,0,9.895477,97.0882
1580908946.228259,103,0,1580907286.99823,41.20781296037784,29.0754925099451,275.2123,0.1345286,-1,23.46983528137207,200,-9999,12662.01652625,0.975128173828125,0.11175537109375,-0.13031005859375,12662.00648525,1.741378609566495,1.460988727951833,-0.1048664619675184,-0.04154358059167862,0.0509813092648983,-0.007717394270002842,-0.01747685670852661,0.005104631185531616,-0.02276384830474854,2,-0.534735783634645,0.3994560299130001,0.5463235917970914,0.5059871509726113,0.9885168075561523,0.1046743616461754,-0.1089850440621376,33.92217254638672,15.19619369506836,6.32440185546875,2,12661.94261225,4,2,1580908946.183779,1580903939.50652,3116,0.4890548,1.136537,1.799347,3752.709,14,17,1580908946.184237,12659.261309,0,9.895477,97.0882
1580908946.229271,104,0,1580907286.99823,41.20781296037784,29.0754925099451,275.2123,0.1345286,-1,23.46983528137207,200,-9999,12662.02656625,0.9796142578125,0.11273193359375,-0.1280670166015625,12662.01652625,1.741839769372482,1.461700212523961,-0.1050327576485482,-0.04850894212722778,0.06845548748970032,-0.01045780722051859,-0.01727783679962158,0.006052494049072266,-0.02562332153320312,2,-0.535059807697003,0.3994635084011929,0.5462118008415833,0.5057594523205253,0.9885768294334412,0.1048397496342659,-0.1082798168063164,33.92444610595703,15.1094799041748,6.280609130859375,2,12661.94261225,4,2,1580908946.183779,1580903939.50652,3116,0.4890548,1.136537,1.799347,3752.709,14,17,1580908946.184237,12659.261309,0,9.895477,97.0882
1580908946.237197,105,0,1580907286.99823,41.20781296037784,29.0754925099451,275.2123,0.1345286,-1,23.46983528137207,200,-9999,12662.03663725,0.981353759765625,0.1088714599609375,-0.1210174560546875,12662.02656625,1.742277950194274,1.462455563741211,-0.1052926837110412,-0.04577547311782837,0.07646866142749786,-0.0201362669467926,-0.01414346694946289,0.007685065269470215,-0.02497243881225586,2,-0.5354123475835526,0.3994603441522,0.5460607164148275,0.5055518816169573,0.9886311292648315,0.105098232626915,-0.1075301021337509,33.92444610595703,15.1094799041748,6.280609130859375,2,12661.94261225,4,2,1580908946.183779,1580903939.50652,3116,0.4890548,1.136537,1.799347,3752.709,14,17,1580908946.184237,12659.261309,0,9.895477,97.0882
1580908946.248123,106,0,1580907286.99823,41.20781296037784,29.0754925099451,275.2123,0.1345286,-1,23.46983528137207,200,-9999,12662.04667725,0.9654388427734375,0.1147613525390625,-0.1225738525390625,12662.03663725,1.742723380279416,1.463130770606318,-0.1056445255303995,-0.04757820069789886,0.06433595716953278,-0.03026785142719746,-0.01007461547851562,0.002862900495529175,-0.01777315139770508,2,-0.5357650575927382,0.399407704746529,0.5459116749217321,0.5053808318936128,0.9886667728424072,0.1054481193423271,-0.1068585738539696,33.88764190673828,15.1422233581543,6.411529541015625,2,12661.94261225,4,2,1580908946.183779,1580903939.50652,3116,0.4890548,1.136537,1.799347,3752.709,14,17,1580908946.184237,12659.261309,0,9.895477,97.0882
1580908946.25743,107,0,1580907286.99823,41.20781296037784,29.0754925099451,275.2123,0.1345286,-1,23.46983528137207,200,-9999,12662.05671725,0.94927978515625,0.1181488037109375,-0.123809814453125,12662.04667725,1.743144666266812,1.463745272670851,-0.105996999784592,-0.04449426010251045,0.05769696086645126,-0.0296153761446476,-0.02595710754394531,0.007836312055587769,-0.0199587345123291,2,-0.5360963927064322,0.399345880412153,0.5457724822731899,0.5052287402899165,0.9886953234672546,0.1057986244559288,-0.1062470525503159,33.88764190673828,15.1422233581543,6.411529541015625,2,12661.94261225,4,2,1580908946.183779,1580903939.50652,3116,0.4890548,1.136537,1.799347,3752.709,14,17,1580908946.184237,12659.261309,0,9.895477,97.0882
1580908946.286725,108,0,1580907286.99823,41.20781296037784,29.0754925099451,275.2123,0.1345286,-1,23.46983528137207,200,-9999,12662.06675825,0.939178466796875,0.1221771240234375,-0.1295318603515625,12662.05671725,1.743509794130995,1.464468022560894,-0.1062623417122313,-0.03809082135558128,0.0717213898897171,-0.02193703502416611,-0.04138690233230591,0.01134029030799866,-0.02119827270507812,2,-0.5364263468187241,0.3993520383433332,0.5456098735556429,0.505049116190205,0.988743782043457,0.1060624718666077,-0.1055294498801231,33.60015869140625,14.94887733459473,6.539154052734375,2,12661.94261225,4,2,1580908946.183779,1580903939.50652,3116,0.4890548,1.136537,1.799347,3752.709,14,17,1580908946.184237,12659.261309,0,9.895477,97.0882
1580908946.288252,109,0,1580907286.99823,41.20781296037784,29.0754925099451,275.2123,0.1345286,-1,23.46983528137207,200,-9999,12662.07679825,0.9535980224609375,0.1223907470703125,-0.1242218017578125,12662.06675825,1.743805573087976,1.465428031251065,-0.1064054657163642,-0.03150056302547455,0.09817510843276978,-0.01035015564411879,-0.0540461540222168,0.01513421535491943,-0.0283476710319519,2,-0.5367794636702075,0.3994727780088319,0.5453941137118408,0.5048115941126219,0.9888296723365784,0.1062047928571701,-0.1045786142349243,33.60015869140625,14.94887733459473,6.539154052734375,2,12661.94261225,4,2,1580908946.183779,1580903939.50652,3116,0.4890548,1.136537,1.799347,3752.709,14,17,1580908946.184237,12659.261309,0,9.895477,97.0882
1580908946.289293,110,0,1580907286.99823,41.20781296037784,29.0754925099451,275.2123,0.1345286,-1,23.46983528137207,200,-9999,12662.08683825,0.968719482421875,0.127227783203125,-0.1086883544921875,12662.07679825,1.744037619241184,1.466455185523437,-0.1063892510789137,-0.02372946031391621,0.107311338186264,0.006208580918610096,-0.04104793071746826,0.01556235551834106,-0.02562916278839111,2,-0.537102258531242,0.3996744210888572,0.5451805842885051,0.5045390587457567,0.9889381527900696,0.1061886698007584,-0.1035630404949188,33.64768218994141,15.01351165771484,6.5443115234375,2,12661.94261225,4,2,1580908946.183779,1580903939.50652,3116,0.4890548,1.136537,1.799347,3752.709,14,17,1580908946.184237,12659.261309,0,9.895477,97.0882
1580908946.297604,111,0,1580907286.99823,41.20781296037784,29.0754925099451,275.2123,0.1345286,-1,23.46983528137207,200,-9999,12662.09687825,0.9683837890625,0.12109375,-0.1132659912109375,12662.08683825,1.744176604857882,1.467203846468838,-0.1062004679617781,-0.01093163900077343,0.07254138588905334,0.02158407494425774,-0.02532219886779785,0.02034375071525574,-0.0105624794960022,2,-0.5372916278123806,0.3998816768913287,0.54505798034151,0.504305594758945,0.9890353083610535,0.1060009524226189,-0.1028247028589249,33.75511932373047,15.10062599182129,6.5516357421875,2,12661.94261225,4,2,1580908946.183779,1580903939.50652,3116,0.4890548,1.136537,1.799347,3752.709,14,17,1580908946.184237,12659.261309,0,9.895477,97.0882
1580908946.307476,112,0,1580907286.99823,41.20781296037784,29.0754925099451,275.2123,0.1345286,-1,23.46983528137207,200,-9999,12662.10691925,0.96136474609375,0.1156768798828125,-0.1190185546875,12662.09687825,1.744248306110441,1.467861641491902,-0.1059522513931513,-0.003742488101124763,0.06798624247312546,0.02443687245249748,-0.02405828237533569,0.01605960726737976,-0.01339513063430786,2,-0.5374293867063332,0.4001015550696979,0.5449564508397468,0.5040941083149397,0.9891288876533508,0.105754129588604,-0.1021768003702164,33.75511932373047,15.10062599182129,6.5516357421875,2,12661.94261225,4,2,1580908946.183779,1580903939.50652,3116,0.4890548,1.136537,1.799347,3752.709,14,17,1580908946.184237,12659.261309,0,9.895477,97.0882
1580908946.317674,113,0,1580907286.99823,41.20781296037784,29.0754925099451,275.2123,0.1345286,-1,23.46983528137207,200,-9999,12662.11695925,0.955657958984375,0.1199188232421875,-0.11688232421875,12662.10691925,1.744283199138453,1.468511198413842,-0.105626154362459,-0.001128062605857849,0.06815642118453979,0.03324447944760323,-0.03126966953277588,0.009671390056610107,-0.02113193273544312,2,-0.5375400158830781,0.40035213533578,0.5448657356444304,0.5038752088829415,0.9892293214797974,0.1054298505187035,-0.1015378013253212,33.76401519775391,14.98880386352539,6.727020263671875,2,12661.94261225,4,2,1580908946.183779,1580903939.50652,3116,0.4890548,1.136537,1.799347,3752.709,14,17,1580908946.184237,12659.261309,0,9.895477,97.0882
1580908946.343538,114,0,1580907286.99823,41.20781296037784,29.0754925099451,275.2123,0.1345286,-1,23.46983528137207,200,-9999,12662.12703025,0.9445648193359375,0.1223907470703125,-0.1254425048828125,12662.11695925,1.744297966157072,1.46916347086254,-0.1051478598247518,0.0009526163339614868,0.06337283551692963,0.04694583266973495,-0.03651332855224609,0.01384153962135315,-0.01948589086532593,2,-0.537613098143033,0.4006536349537095,0.5448042584252761,0.5036241006793152,0.9893454909324646,0.1049542129039764,-0.1008976399898529,33.76401519775391,14.98880386352539,6.727020263671875,2,12661.94261225,4,2,1580908946.183779,1580903939.50652,3116,0.4890548,1.136537,1.799347,3752.709,14,17,1580908946.184237,12659.261309,0,9.895477,97.0882
1580908946.344944,115,0,1580907286.99823,41.20781296037784,29.0754925099451,275.2123,0.1345286,-1,23.46983528137207,200,-9999,12662.13707025,0.9658355712890625,0.1127471923828125,-0.1190032958984375,12662.12703025,1.744252414161113,1.470092491984984,-0.1044828367351722,0.01185612939298153,0.09901764988899231,0.06781648844480515,-0.04885274171829224,0.01792359352111816,-0.02803093194961548,2,-0.5377074947327276,0.4010958931214899,0.5446961213404815,0.5032881256585751,0.9895079731941223,0.1042928397655487,-0.09998547285795212,33.73889923095703,14.96352767944336,6.6553955078125,2,12661.94261225,4,2,1580908946.183779,1580903939.50652,3116,0.4890548,1.136537,1.799347,3752.709,14,17,1580908946.184237,12659.261309,0,9.895477,97.0882
1580908946.347666,116,0,1580907286.99823,41.20781296037784,29.0754925099451,275.2123,0.1345286,-1,23.46983528137207,200,-9999,12662.14711025,0.991607666015625,0.110931396484375,-0.104461669921875,12662.13707025,1.7441844948008,1.471042272458731,-0.1038211453124746,0.01292402576655149,0.09999408572912216,0.06662087887525558,-0.03105652332305908,0.009612172842025757,-0.02539700269699097,2,-0.5378037568190256,0.4015481190762651,0.5445759760447848,0.5029545117028633,0.9896708726882935,0.103634737432003,-0.09905245155096054,33.73889923095703,14.96352767944336,6.6553955078125,2,12661.94261225,4,2,1580908946.183779,1580903939.50652,3116,0.4890548,1.136537,1.799347,3752.709,14,17,1580908946.184237,12659.261309,0,9.895477,97.0882
1580908946.357846,117,0,1580907286.99823,41.20781296037784,29.0754925099451,275.2123,0.1345286,-1,23.46983528137207,200,-9999,12662.15715125,1.001571655273438,0.10650634765625,-0.103668212890625,12662.14711025,1.744119736492314,1.471685627495275,-0.1032728123271329,0.01293787453323603,0.06713946908712387,0.05734535306692123,-0.003451764583587646,0.007428437471389771,-0.01040560007095337,2,-0.5378426146474602,0.4018888540417943,0.5445129678112632,0.5027090719672747,0.9897909164428711,0.103089340031147,-0.09842134267091751,33.72572326660156,15.02058982849121,6.76129150390625,2,12661.94261225,4,2,1580908946.183779,1580903939.50652,3116,0.4890548,1.136537,1.799347,3752.709,14,17,1580908946.184237,12659.261309,0,9.895477,97.0882
1580908946.367585,118,0,1580907286.99823,41.20781296037784,29.0754925099451,275.2123,0.1345286,-1,23.46983528137207,200,-9999,12662.16719125,1.002197265625,0.1033172607421875,-0.10528564453125,12662.15715125,1.744114682098673,1.472043331540133,-0.1029316659701551,0.003709790296852589,0.03991986811161041,0.03672752156853676,0.006670594215393066,0.004000186920166016,-0.009018301963806152,2,-0.5378623031368337,0.4020805569572887,0.5444940180696406,0.5025551300403615,0.9898608922958374,0.1027500033378601,-0.09807074069976807,33.72572326660156,15.02058982849121,6.76129150390625,2,12661.94261225,4,2,1580908946.183779,1580903939.50652,3116,0.4890548,1.136537,1.799347,3752.709,14,17,1580908946.184237,12659.261309,0,9.895477,97.0882
1580908946.377918,119,0,1580907286.99823,41.20781296037784,29.0754925099451,275.2123,0.1345286,-1,23.46983528137207,200,-9999,12662.17723125,0.9883880615234375,0.1097869873046875,-0.1040496826171875,12662.16719125,1.744119983683246,1.472139979837127,-0.1027852681585427,0.000807211734354496,0.01174176298081875,0.01542463153600693,0.009606301784515381,0.0002553761005401611,-0.0107608437538147,2,-0.5378567901664528,0.4021464953023846,0.5445030288992716,0.5024983960718422,0.9898852109909058,0.1026043817400932,-0.09797653555870056,33.69915771484375,14.89871215820312,6.793243408203125,2,12661.94261225,4,2,1580908946.183779,1580903939.50652,3116,0.4890548,1.136537,1.799347,3752.709,14,17,1580908946.184237,12659.261309,0,9.895477,97.0882
1580908946.408052,120,0,1580907286.99823,41.20781296037784,29.0754925099451,275.2123,0.1345286,-1,23.46983528137207,200,-9999,12662.18727125,0.973876953125,0.1147613525390625,-0.112030029296875,12662.17723125,1.744133745919474,1.471994574854609,-0.1026505386516557,-0.001057001762092113,-0.01675778813660145,0.01513141766190529,-0.004248142242431641,0.005989909172058105,-0.009501159191131592,2,-0.5377896779820592,0.4021459259139645,0.5445765958141791,0.5024909371751025,0.9898847341537476,0.1024703606963158,-0.09812182933092117,33.69915771484375,14.89871215820312,6.793243408203125,2,12661.94261225,4,2,1580908946.183779,1580903939.50652,3116,0.4890548,1.136537,1.799347,3752.709,14,17,1580908946.184237,12659.261309,0,9.895477,97.0882
1580908946.409271,121,0,1580907286.99823,41.20781296037784,29.0754925099451,275.2123,0.1345286,-1,23.46983528137207,200,-9999,12662.19731225,0.9687652587890625,0.11590576171875,-0.1130828857421875,12662.18727125,1.744136595585197,1.47179671659548,-0.102435295146211,0.00133957713842392,-0.01653940975666046,0.02224578522145748,-0.01889902353286743,0.01198798418045044,-0.01630574464797974,2,-0.5376879000521826,0.4021588949987384,0.5446801382402754,0.5024775264789849,0.9898874759674072,0.1022562459111214,-0.0983198881149292,33.69293975830078,14.91278839111328,6.667236328125,2,12661.94261225,4,2,1580908946.183779,1580903939.50652,3116,0.4890548,1.136537,1.799347,3752.709,14,17,1580908946.184237,12659.261309,0,9.895477,97.0882
1580908946.410202,122,0,1580907286.99823,41.20781296037784,29.0754925099451,275.2123,0.1345286,-1,23.46983528137207,200,-9999,12662.20735225,0.9602508544921875,0.120574951171875,-0.1126556396484375,12662.19731225,1.744103301715586,1.47154180136611,-0.1020861243741954,0.006707387045025826,-0.02202988602221012,0.0345010980963707,-0.02486038208007812,0.01302334666252136,-0.01841425895690918,2,-0.5375332822379683,0.4022065444072128,0.5448205532186521,0.5024523152919587,0.989897608757019,0.1019088998436928,-0.09857573360204697,33.69293975830078,14.91278839111328,6.667236328125,2,12661.94261225,4,2,1580908946.183779,1580903939.50652,3116,0.4890548,1.136537,1.799347,3752.709,14,17,1580908946.184237,12659.261309,0,9.895477,97.0882
1580908946.418037,123,0,1580907286.99823,41.20781296037784,29.0754925099451,275.2123,0.1345286,-1,23.46983528137207,200,-9999,12662.21742325,0.9475860595703125,0.110809326171875,-0.1235198974609375,12662.20735225,1.744061454303538,1.471187393831256,-0.1015510892281868,0.01047895662486553,-0.03404287248849869,0.05668176710605621,-0.03226476907730103,0.0188068151473999,-0.01695775985717773,2,-0.5373078426191071,0.4022863325607232,0.5450283940822046,0.5024043396976561,0.9899168610572815,0.1013766378164291,-0.09893197566270828,33.57990264892578,14.76386451721191,6.74932861328125,2,12661.94261225,4,2,1580908946.183779,1580903939.50652,3116,0.4890548,1.136537,1.799347,3752.709,14,17,1580908946.184237,12659.261309,0,9.895477,97.0882
1580908946.428083,124,0,1580907286.99823,41.20781296037784,29.0754925099451,275.2123,0.1345286,-1,23.46983528137207,200,-9999,12662.22746325,0.96160888671875,0.108551025390625,-0.12152099609375,12662.21742325,1.744014263440645,1.471037794856718,-0.1009890351341996,0.009148381650447845,-0.009878511540591717,0.05665086582303047,-0.04559707641601562,0.01056391000747681,-0.02649271488189697,2,-0.5371309982771688,0.4024269181597551,0.5451859682072332,0.5023099406722265,0.989958643913269,0.1008174642920494,-0.099085733294487,33.57990264892578,14.76386451721191,6.74932861328125,2,12661.94261225,4,2,1580908946.183779,1580903939.50652,3116,0.4890548,1.136537,1.799347,3752.709,14,17,1580908946.184237,12659.261309,0,9.895477,97.0882
1580908946.438141,125,0,1580907286.99823,41.20781296037784,29.0754925099451,275.2123,0.1345286,-1,23.46983528137207,200,-9999,12662.23750325,0.9713897705078125,0.10443115234375,-0.1133880615234375,12662.22746325,1.743935566118413,1.470973520478945,-0.1004826159351475,0.01352928020060062,-0.004946338012814522,0.05177408456802368,-0.03526568412780762,0.007850110530853271,-0.02772104740142822,2,-0.5369836121986986,0.4025809148426266,0.5452997788736855,0.5022203334509778,0.9900027513504028,0.1003136113286018,-0.09915441274642944,33.63511657714844,14.61524772644043,6.58905029296875,2,12661.94261225,4,2,1580908946.183779,1580903939.50652,3116,0.4890548,1.136537,1.799347,3752.709,14,17,1580908946.184237,12659.261309,0,9.895477,97.0882
1580908946.469987,126,0,1580907286.99823,41.20781296037784,29.0754925099451,275.2123,0.1345286,-1,23.46983528137207,200,-9999,12662.24754425,0.9553375244140625,0.1036224365234375,-0.1276702880859375,12662.23750325,1.743900003180743,1.470943843636118,-0.1001182995416619,0.006721155717968941,-0.005142410285770893,0.03666658326983452,-0.02123063802719116,0.004536718130111694,-0.01696091890335083,2,-0.5368862483254906,0.4026902500426675,0.5453825508280241,0.5021469610090346,0.9900361299514771,0.0999511256814003,-0.09918744117021561,33.63511657714844,14.61524772644043,6.58905029296875,2,12661.94261225,4,2,1580908946.183779,1580903939.50652,3116,0.4890548,1.136537,1.799347,3752.709,14,17,1580908946.184237,12659.261309,0,9.895477,97.0882
1580908946.471315,127,0,1580907286.99823,41.20781296037784,29.0754925099451,275.2123,0.1345286,-1,23.46983528137207,200,-9999,12662.25758425,0.9775238037109375,0.100860595703125,-0.1168060302734375,12662.24754425,1.743837082230178,1.471226501771936,-0.09993106060945332,0.01019791327416897,0.03325424715876579,0.01794296130537987,-0.03856563568115234,0.00315210223197937,-0.03179681301116943,2,-0.5369084425719898,0.4028332120542595,0.5453339106371268,0.5020614320892735,0.9900828003883362,0.09976482391357422,-0.09890945255756378,33.59383392333984,14.59181976318359,6.61456298828125,2,12661.94261225,4,2,1580908946.183779,1580903939.50652,3116,0.4890548,1.136537,1.799347,3752.709,14,17,1580908946.184237,12659.261309,0,9.895477,97.0882
1580908946.472315,128,0,1580907286.99823,41.20781296037784,29.0754925099451,275.2123,0.1345286,-1,23.46983528137207,200,-9999,12662.26762425,0.9838409423828125,0.1028594970703125,-0.113067626953125,12662.25758425,1.743830297834812,1.471595856233291,-0.0999333057101435,-0.001845830120146275,0.0356268584728241,-0.0001556603237986565,-0.01914715766906738,0.001150995492935181,-0.02348172664642334,2,-0.5370082503476827,0.4029271214251432,0.5452325737223018,0.501989529819948,0.9901191592216492,0.0997670516371727,-0.09854374825954437,33.59383392333984,14.59181976318359,6.61456298828125,2,12661.94261225,4,2,1580908946.183779,1580903939.50652,3116,0.4890548,1.136537,1.799347,3752.709,14,17,1580908946.184237,12659.261309,0,9.895477,97.0882
1580908946.478292,129,0,1580907286.99823,41.20781296037784,29.0754925099451,275.2123,0.1345286,-1,23.46983528137207,200,-9999,12662.27766525,0.9752655029296875,0.1052398681640625,-0.1154937744140625,12662.26762425,1.743816876395623,1.472018140587802,-0.1000863334616112,-0.0004348866641521454,0.04171803593635559,-0.01597350463271141,-0.009575843811035156,0.002111941576004028,-0.0180438756942749,2,-0.5371551661788736,0.4029916558586231,0.5450805795833361,0.5019454368743227,0.9901453256607056,0.09991931915283203,-0.09812410920858383,33.73583221435547,14.6298656463623,6.533843994140625,2,12661.94261225,4,2,1580908946.183779,1580903939.50652,3116,0.4890548,1.136537,1.799347,3752.709,14,17,1580908946.184237,12659.261309,0,9.895477,97.0882
1580908946.488323,130,0,1580907286.99823,41.20781296037784,29.0754925099451,275.2123,0.1345286,-1,23.46983528137207,200,-9999,12662.28770525,0.9750213623046875,0.1060333251953125,-0.11260986328125,12662.27766525,1.743796016292028,1.47251892290442,-0.1003063381694761,0.0001603253185749054,0.05274176970124245,-0.02030324749648571,-0.01814806461334229,0.004577696323394775,-0.02170252799987793,2,-0.537336981553628,0.4030582176340904,0.5448902254079254,0.5019040233105714,0.9901724457740784,0.1001382172107697,-0.09762608259916306,33.73583221435547,14.6298656463623,6.533843994140625,2,12661.94261225,4,2,1580908946.183779,1580903939.50652,3116,0.4890548,1.136537,1.799347,3752.709,14,17,1580908946.184237,12659.261309,0,9.895477,97.0882
1580908946.498403,131,0,1580907286.99823,41.20781296037784,29.0754925099451,275.2123,0.1345286,-1,23.46983528137207,200,-9999,12662.29774525,0.9760589599609375,0.108917236328125,-0.1101226806640625,12662.28770525,1.743758170704229,1.473035698000404,-0.1006041634079709,0.001305218786001205,0.056418526917696,-0.02840484865009785,-0.01935899257659912,0.004966855049133301,-0.01915222406387329,2,-0.5375371516803157,0.4031105035041075,0.5446733801718912,0.5018831376245668,0.9901930689811707,0.1004345417022705,-0.09711146354675293,33.55509185791016,14.59517288208008,6.608245849609375,2,12661.94261225,4,2,1580908946.183779,1580903939.50652,3116,0.4890548,1.136537,1.799347,3752.709,14,17,1580908946.184237,12659.261309,0,9.895477,97.0882
1580908946.525922,132,0,1580907286.99823,41.20781296037784,29.0754925099451,275.2123,0.1345286,-1,23.46983528137207,200,-9999,12662.30781625,0.976409912109375,0.1116790771484375,-0.1083526611328125,12662.29774525,1.743701614170097,1.473469820445452,-0.1008832363479428,0.003227803856134415,0.04900349676609039,-0.02696293219923973,-0.01829004287719727,0.007343083620071411,-0.01732850074768066,2,-0.5377067659348389,0.403152580040301,0.5444782665837715,0.5018793434719331,0.9902071952819824,0.1007122024893761,-0.09667886048555374,33.55509185791016,14.59517288208008,6.608245849609375,2,12661.94261225,4,2,1580908946.183779,1580903939.50652,3116,0.4890548,1.136537,1.799347,3752.709,14,17,1580908946.184237,12659.261309,0,9.895477,97.0882
1580908946.527214,133,0,1580907286.99823,41.20781296037784,29.0754925099451,275.2123,0.1345286,-1,23.46983528137207,200,-9999,12662.31785625,0.977203369140625,0.110748291015625,-0.1088104248046875,12662.30781625,1.743642834431408,1.47380925657008,-0.1010904445395279,0.003647783771157265,0.03823713585734367,-0.01993538439273834,-0.01773756742477417,0.01046252250671387,-0.01562345027923584,2,-0.5378339585445361,0.4031926066142026,0.5443245057970582,0.5018775572202223,0.9902190566062927,0.1009183526039124,-0.09634070843458176,33.66410064697266,14.70356941223145,6.56024169921875,2,12661.94261225,4,2,1580908946.183779,1580903939.50652,3116,0.4890548,1.136537,1.799347,3752.709,14,17,1580908946.184237,12659.261309,0,9.895477,97.0882
1580908946.528489,134,0,1580907286.99823,41.20781296037784,29.0754925099451,275.2123,0.1345286,-1,23.46983528137207,200,-9999,12662.32789625,0.9797821044921875,0.109130859375,-0.109893798828125,12662.31785625,1.743596923920773,1.474087443751035,-0.1012092603225397,0.003174042329192162,0.03073489107191563,-0.01169997174292803,-0.01724898815155029,0.009397745132446289,-0.01643526554107666,2,-0.5379271209189892,0.4032398414009837,0.5442108256089675,0.5018630920763004,0.9902338981628418,0.1010365635156631,-0.09606408327817917,33.66410064697266,14.70356941223145,6.56024169921875,2,12661.94261225,4,2,1580908946.183779,1580903939.50652,3116,0.4890548,1.136537,1.799347,3752.709,14,17,1580908946.184237,12659.261309,0,9.895477,97.0882
1580908946.538629,135,0,1580907286.99823,41.20781296037784,29.0754925099451,275.2123,0.1345286,-1,23.46983528137207,200,-9999,12662.33793725,0.9817657470703125,0.10589599609375,-0.1099090576171875,12662.32789625,1.743565386517474,1.47429732524924,-0.1012538109956159,0.001757240854203701,0.02569405920803547,-0.004304373171180487,-0.0145334005355835,0.007964760065078735,-0.01742249727249146,2,-0.5379878567280496,0.4032879257616511,0.5441362406411684,0.501840357453188,0.9902496933937073,0.1010808870196342,-0.09585583209991455,33.58229827880859,14.69120216369629,6.645538330078125,2,12661.94261225,4,2,1580908946.183779,1580903939.50652,3116,0.4890548,1.136537,1.799347,3752.709,14,17,1580908946.184237,12659.261309,0,9.895477,97.0882
1580908946.548592,136,0,1580907286.99823,41.20781296037784,29.0754925099451,275.2123,0.1345286,-1,23.46983528137207,200,-9999,12662.34797725,0.991424560546875,0.099761962890625,-0.1022186279296875,12662.33793725,1.74355558572401,1.474476380084762,-0.1012688449862149,0.0002853609621524811,0.02134272828698158,0.0004273513332009315,-0.01296228170394897,0.005111575126647949,-0.01804327964782715,2,-0.538037974576714,0.4033310693070435,0.544082150566067,0.5018105957784489,0.9902653098106384,0.1010958403348923,-0.09567837417125702,33.58229827880859,14.69120216369629,6.645538330078125,2,12661.94261225,4,2,1580908946.183779,1580903939.50652,3116,0.4890548,1.136537,1.799347,3752.709,14,17,1580908946.184237,12659.261309,0,9.895477,97.0882
1580908946.558649,137,0,1580907286.99823,41.20781296037784,29.0754925099451,275.2123,0.1345286,-1,23.46983528137207,200,-9999,12662.35801725,0.9961700439453125,0.1055145263671875,-0.0951385498046875,12662.34797725,1.74358080769628,1.474473467404553,-0.1013794860020744,-0.003806852735579014,0.003384232521057129,-0.01028308365494013,-0.003887057304382324,-0.001407623291015625,-0.01122075319290161,2,-0.5380671447903366,0.4032910326115172,0.5440637779744812,0.5018314223600002,0.9902539253234863,0.1012059152126312,-0.09568018466234207,33.69705963134766,14.67526817321777,6.63262939453125,2,12661.94261225,4,2,1580908946.183779,1580903939.50652,3116,0.4890548,1.136537,1.799347,3752.709,14,17,1580908946.184237,12659.261309,0,9.895477,97.0882
1580908946.591022,138,0,1580907286.99823,41.20781296037784,29.0754925099451,275.2123,0.1345286,-1,23.46983528137207,200,-9999,12662.36805825,0.987518310546875,0.1125946044921875,-0.1019439697265625,12662.35801725,1.743579411902861,1.474113265971545,-0.101572471693294,-0.0006466042250394821,-0.03336852043867111,-0.01896454766392708,0.002102792263031006,0.002336412668228149,-0.002960383892059326,2,-0.5380122497964117,0.4031442999860612,0.5441158960193295,0.5019517238572575,0.9901999831199646,0.1013979092240334,-0.09603498131036758,33.69705963134766,14.67526817321777,6.63262939453125,2,12661.94261225,4,2,1580908946.183779,1580903939.50652,3116,0.4890548,1.136537,1.799347,3752.709,14,17,1580908946.184237,12659.261309,0,9.895477,97.0882
1580908946.592246,139,0,1580907286.99823,41.20781296037784,29.0754925099451,275.2123,0.1345286,-1,23.46983528137207,200,-9999,12662.37809825,0.9783935546875,0.1107940673828125,-0.11114501953125,12662.36805825,1.743539410617525,1.473527817246469,-0.1018104087784549,0.0009699342772364616,-0.05459950491786003,-0.02300962433218956,-0.00533902645111084,0.01033845543861389,-0.007904410362243652,2,-0.5378984132210103,0.4029381235953947,0.5442085132283583,0.5021388029639557,0.9901195168495178,0.1016346141695976,-0.09661233425140381,33.53652191162109,14.75401306152344,6.577972412109375,2,12661.94261225,4,2,1580908946.183779,1580903939.50652,3116,0.4890548,1.136537,1.799347,3752.709,14,17,1580908946.184237,12659.261309,0,9.895477,97.0882
1580908946.593164,140,0,1580907286.99823,41.20781296037784,29.0754925099451,275.2123,0.1345286,-1,23.46983528137207,200,-9999,12662.38816925,0.980560302734375,0.1107177734375,-0.1176910400390625,12662.37809825,1.743504601501816,1.472885224937726,-0.1020950763114368,0.0003658346831798553,-0.06195326894521713,-0.02703538909554482,-0.01528799533843994,0.008497714996337891,-0.01662242412567139,2,-0.5377805843736868,0.4027023546024135,0.5443069864457769,0.5023472690469853,0.9900283217430115,0.1019178032875061,-0.0972457155585289,33.53652191162109,14.75401306152344,6.577972412109375,2,12661.94261225,4,2,1580908946.183779,1580903939.50652,3116,0.4890548,1.136537,1.799347,3752.709,14,17,1580908946.184237,12659.261309,0,9.895477,97.0882
1580908946.598842,141,0,1580907286.99823,41.20781296037784,29.0754925099451,275.2123,0.1345286,-1,23.46983528137207,200,-9999,12662.39820925,0.9860687255859375,0.112945556640625,-0.1104736328125,12662.38816925,1.743467636734998,1.472244394678231,-0.1024594579611139,0.001372243277728558,-0.06063660234212875,-0.03702623769640923,-0.01436412334442139,0.007798105478286743,-0.02352702617645264,2,-0.5376806823861386,0.4024440886853649,0.5443861073657308,0.5025754528670803,0.9899288415908813,0.102280281484127,-0.09787648171186447,33.77188110351562,14.83783340454102,6.4127197265625,2,12661.94261225,4,2,1580908946.183779,1580903939.50652,3116,0.4890548,1.136537,1.799347,3752.709,14,17,1580908946.184237,12659.261309,0,9.895477,97.0882
1580908946.608888,142,0,1580907286.99823,41.20781296037784,29.0754925099451,275.2123,0.1345286,-1,23.46983528137207,200,-9999,12662.40824925,0.9764556884765625,0.1159515380859375,-0.1126251220703125,12662.39820925,1.743435026974871,1.471535622827185,-0.102826058600342,-0.001151015050709248,-0.06753458082675934,-0.03519963845610619,-0.007481932640075684,0.009415596723556519,-0.01617366075515747,2,-0.5375637013584708,0.4021667463199939,0.5444839719891784,0.5028163618823798,0.9898216724395752,0.1026449576020241,-0.09857434779405594,33.77188110351562,14.83783340454102,6.4127197265625,2,12661.94261225,4,2,1580908946.183779,1580903939.50652,3116,0.4890548,1.136537,1.799347,3752.709,14,17,1580908946.184237,12659.261309,0,9.895477,97.0882
1580908946.619156,143,0,1580907286.99823,41.20781296037784,29.0754925099451,275.2123,0.1345286,-1,23.46983528137207,200,-9999,12662.41829025,0.9727630615234375,0.1146240234375,-0.1157379150390625,12662.40824925,1.743375959444306,1.470816419753179,-0.10319481370114,0.003044528886675835,-0.06985126435756683,-0.03629499673843384,-0.01616162061691284,0.01267889142036438,-0.01616442203521729,2,-0.5374389404575605,0.4018932235736735,0.5445775804478306,0.5030672254710673,0.9897130131721497,0.1030117571353912,-0.09928244352340698,33.84602355957031,14.70127296447754,6.614471435546875,2,12661.94261225,4,2,1580908946.183779,1580903939.50652,3116,0.4890548,1.136537,1.799347,3752.709,14,17,1580908946.184237,12659.261309,0,9.895477,97.0882
1580908946.647289,144,0,1580907286.99823,41.20781296037784,29.0754925099451,275.2123,0.1345286,-1,23.46983528137207,200,-9999,12662.42833025,0.9687652587890625,0.11444091796875,-0.1141815185546875,12662.41829025,1.743331220279961,1.470081357114802,-0.1035464714014021,0.0003610411658883095,-0.07021252810955048,-0.03455109521746635,-0.0207972526550293,0.01092398166656494,-0.01974070072174072,2,-0.5373089536306693,0.4016166798456604,0.5446828434390444,0.5033128164796687,0.989603579044342,0.1033615320920944,-0.1000062599778175,33.84602355957031,14.70127296447754,6.614471435546875,2,12661.94261225,4,2,1580908946.183779,1580903939.50652,3116,0.4890548,1.136537,1.799347,3752.709,14,17,1580908946.184237,12659.261309,0,9.895477,97.0882
1580908946.648569,145,0,1580907286.99823,41.20781296037784,29.0754925099451,275.2123,0.1345286,-1,23.46983528137207,200,-9999,12662.43837025,0.9661712646484375,0.1107940673828125,-0.1221466064453125,12662.42833025,1.743325922101296,1.46934078038125,-0.1038614372787001,-0.003593220375478268,-0.07391858100891113,-0.03123252838850021,-0.0237114429473877,0.01041099429130554,-0.01675009727478027,2,-0.5371771041501712,0.4013388329808687,0.5448079161209617,0.5035396625366109,0.9894967079162598,0.1036748066544533,-0.1007357984781265,33.54793548583984,14.909423828125,6.552398681640625,2,12661.94261225,4,2,1580908946.183779,1580903939.50652,3116,0.4890548,1.136537,1.799347,3752.709,14,17,1580908946.184237,12659.261309,0,9.895477,97.0882
1580908946.650169,146,0,1580907286.99823,41.20781296037784,29.0754925099451,275.2123,0.1345286,-1,23.46983528137207,200,-9999,12662.44841025,0.9873046875,0.1098480224609375,-0.115997314453125,12662.43837025,1.743357548541301,1.468698595740648,-0.104207305606758,-0.006299962755292654,-0.06201427802443504,-0.03410488367080688,-0.02797442674636841,0.006907075643539429,-0.02394360303878784,2,-0.5370863526144519,0.4010666618673302,0.5449087770614359,0.5037442239471677,0.9893961548805237,0.1040188074111938,-0.1013675630092621,33.54793548583984,14.909423828125,6.552398681640625,2,12661.94261225,4,2,1580908946.183779,1580903939.50652,3116,0.4890548,1.136537,1.799347,3752.709,14,17,1580908946.184237,12659.261309,0,9.895477,97.0882
1580908946.659167,147,0,1580907286.99823,41.20781296037784,29.0754925099451,275.2123,0.1345286,-1,23.46983528137207,200,-9999,12662.45845125,0.984954833984375,0.1138763427734375,-0.114105224609375,12662.44841025,1.743466808254763,1.467880363889741,-0.1046021198132484,-0.01510650292038918,-0.08250756561756134,-0.03669613972306252,-0.007769346237182617,0.004452913999557495,-0.01837432384490967,2,-0.5369741681803363,0.4007147465956921,0.5450651979823826,0.5039747059585793,0.9892720580101013,0.1044114753603935,-0.1021728664636612,33.59841918945312,14.83734321594238,6.5211181640625,2,12661.94261225,4,2,1580908946.183779,1580903939.50652,3116,0.4890548,1.136537,1.799347,3752.709,14,17,1580908946.184237,12659.261309,0,9.895477,97.0882
1580908946.669259,148,0,1580907286.99823,41.20781296037784,29.0754925099451,275.2123,0.1345286,-1,23.46983528137207,200,-9999,12662.46849125,0.96429443359375,0.1098785400390625,-0.1214752197265625,12662.45845125,1.743646363915226,1.466850249464696,-0.1049881495113447,-0.02134506963193417,-0.1040319204330444,-0.03502215445041656,-0.00631028413772583,0.008660316467285156,-0.01389169692993164,2,-0.5368163012621732,0.4002929213968955,0.5452981325698774,0.5042258845001407,0.9891259670257568,0.1047953814268112,-0.1031876727938652,33.59841918945312,14.83734321594238,6.5211181640625,2,12661.94261225,4,2,1580908946.183779,1580903939.50652,3116,0.4890548,1.136537,1.799347,3752.709,14,17,1580908946.184237,12659.261309,0,9.895477,97.0882
1580908946.679653,149,0,1580907286.99823,41.20781296037784,29.0754925099451,275.2123,0.1345286,-1,23.46983528137207,200,-9999,12662.47856225,0.9630584716796875,0.1135711669921875,-0.1185455322265625,12662.46849125,1.743861798860035,1.465774259648317,-0.1053992280603315,-0.02724104188382626,-0.1045142188668251,-0.03794816881418228,-0.02734935283660889,0.004633605480194092,-0.02047193050384521,2,-0.5366584961757911,0.3998424168239818,0.5455467795312189,0.5044825333969662,0.9889716506004333,0.1052041873335838,-0.1042473986744881,33.66585540771484,14.95030975341797,6.514495849609375,2,12661.94261225,4,2,1580908946.183779,1580903939.50652,3116,0.4890548,1.136537,1.799347,3752.709,14,17,1580908946.184237,12659.261309,0,9.895477,97.0882
1580908946.707112,150,0,1580907286.99823,41.20781296037784,29.0754925099451,275.2123,0.1345286,-1,23.46983528137207,200,-9999,12662.48860225,0.9663238525390625,0.1136627197265625,-0.121917724609375,12662.47856225,1.744063165848886,1.464657216768219,-0.1058406147120615,-0.02585039287805557,-0.1126010119915009,-0.03919215127825737,-0.03028267621994019,0.007198899984359741,-0.01729238033294678,2,-0.536493407665791,0.3993760897931602,0.5457958091804186,0.5047580279951288,0.988808274269104,0.1056431159377098,-0.1053471267223358,33.66585540771484,14.95030975341797,6.514495849609375,2,12661.94261225,4,2,1580908946.183779,1580903939.50652,3116,0.4890548,1.136537,1.799347,3752.709,14,17,1580908946.184237,12659.261309,0,9.895477,97.0882
1580908946.708342,151,0,1580907286.99823,41.20781296037784,29.0754925099451,275.2123,0.1345286,-1,23.46983528137207,200,-9999,12662.49864225,0.9765472412109375,0.10809326171875,-0.1255645751953125,12662.48860225,1.744228361103806,1.463623547315911,-0.1063882220202814,-0.02057573571801186,-0.1017968356609344,-0.05047090724110603,-0.02643740177154541,0.007262557744979858,-0.01848506927490234,2,-0.5363676738647876,0.398908820197497,0.5459888616782442,0.505052052514851,0.9886409640312195,0.106187641620636,-0.106362946331501,33.74832916259766,14.9499683380127,6.465362548828125,2,12661.94261225,4,2,1580908946.183779,1580903939.50652,3116,0.4890548,1.136537,1.799347,3752.709,14,17,1580908946.184237,12659.261309,0,9.895477,97.0882
1580908946.709638,152,0,1580907286.99823,41.20781296037784,29.0754925099451,275.2123,0.1345286,-1,23.46983528137207,200,-9999,12662.50868325,0.98956298828125,0.110015869140625,-0.121551513671875,12662.49864225,1.744414666863467,1.462581130304838,-0.1071278810510441,-0.0250451136380434,-0.1017431393265724,-0.06966618448495865,-0.01785439252853394,0.000939488410949707,-0.02186840772628784,2,-0.5362868047123321,0.3983766788613818,0.5461456133245394,0.5053885703446718,0.9884514212608337,0.1069230884313583,-0.1073849722743034,33.74832916259766,14.9499683380127,6.465362548828125,2,12661.94261225,4,2,1580908946.183779,1580903939.50652,3116,0.4890548,1.136537,1.799347,3752.709,14,17,1580908946.184237,12659.261309,0,9.895477,97.0882
1580908946.719369,153,0,1580907286.99823,41.20781296037784,29.0754925099451,275.2123,0.1345286,-1,23.46983528137207,200,-9999,12662.51872325,0.97576904296875,0.1135406494140625,-0.13140869140625,12662.50868325,1.744705259743917,1.46146454854939,-0.1080363823644777,-0.04024484008550644,-0.114653080701828,-0.08508695662021637,-0.002728104591369629,0.001268580555915833,-0.01652908325195312,2,-0.5362443877108318,0.3977473919588926,0.546309770192964,0.5057515992238878,0.9882338643074036,0.1078263372182846,-0.1084779351949692,33.79775238037109,14.81901931762695,6.4202880859375,2,12661.94261225,4,2,1580908946.183779,1580903939.50652,3116,0.4890548,1.136537,1.799347,3752.709,14,17,1580908946.184237,12659.261309,0,9.895477,97.0882
1580908946.729461,154,0,1580907286.99823,41.20781296037784,29.0754925099451,275.2123,0.1345286,-1,23.46983528137207,200,-9999,12662.52876325,0.966827392578125,0.1167755126953125,-0.1324920654296875,12662.51872325,1.745044998956699,1.460492168137038,-0.109055156140313,-0.04465444758534431,-0.09861065447330475,-0.09669489413499832,-0.01447439193725586,0.003929093480110168,-0.02436554431915283,2,-0.5362757347920232,0.3971082964532296,0.5464224578867074,0.5060986972127672,0.9880182147026062,0.1088391169905663,-0.1094266772270203,33.69595336914062,14.99993133544922,6.389434814453125,2,12661.94261225,4,2,1580908946.183779,1580903939.50652,3116,0.4890548,1.136537,1.799347,3752.709,14,17,1580908946.184237,12659.261309,0,9.895477,97.0882
1580908946.739367,155,0,1580907286.99823,41.20781296037784,29.0754925099451,275.2123,0.1345286,-1,23.46983528137207,200,-9999,12662.53880325,0.973846435546875,0.1172027587890625,-0.1264801025390625,12662.52876325,1.745378528645036,1.459716127428911,-0.1101602119581235,-0.04410343989729881,-0.07881937921047211,-0.1068814843893051,-0.02499490976333618,0.006061136722564697,-0.02643197774887085,2,-0.5363787002424113,0.3964945178245252,0.5464611672853138,0.5064288131688074,0.9878127574920654,0.1099375411868095,-0.1101799756288528,33.69595336914062,14.99993133544922,6.389434814453125,2,12661.94261225,4,2,1580908946.183779,1580903939.50652,3116,0.4890548,1.136537,1.799347,3752.709,14,17,1580908946.184237,12659.261309,0,9.895477,97.0882
1580908946.763008,156,0,1580907286.99823,41.20781296037784,29.0754925099451,275.2123,0.1345286,-1,23.46983528137207,200,-9999,12662.54884425,0.9790191650390625,0.11865234375,-0.1232757568359375,12662.53880325,1.745681617454014,1.458998612377286,-0.1113497738567094,-0.04264885559678078,-0.07072736322879791,-0.114670492708683,-0.01875674724578857,0.005606546998023987,-0.01966196298599243,2,-0.5365103814124776,0.3958782461822741,0.5464571561469749,0.5067756714515022,0.9876028299331665,0.1111198142170906,-0.1108740493655205,33.87505340576172,15.05604553222656,6.409881591796875,2,12661.94261225,4,2,1580908946.183779,1580903939.50652,3116,0.4890548,1.136537,1.799347,3752.709,14,17,1580908946.184237,12659.261309,0,9.895477,97.0882
1580908946.764543,157,0,1580907286.99823,41.20781296037784,29.0754925099451,275.2123,0.1345286,-1,23.46983528137207,200,-9999,12662.55888425,0.970794677734375,0.1161651611328125,-0.1258697509765625,12662.54884425,1.746014219313666,1.458175971435756,-0.1125322244274613,-0.0469013899564743,-0.08328896760940552,-0.112777516245842,-0.01203292608261108,0.006288379430770874,-0.01542794704437256,2,-0.5366172991725608,0.3952291239886067,0.5464905646103916,0.5071331479415823,0.9873801469802856,0.1122948676347733,-0.1116716265678406,33.87505340576172,15.05604553222656,6.409881591796875,2,12661.94261225,4,2,1580908946.183779,1580903939.50652,3116,0.4890548,1.136537,1.799347,3752.709,14,17,1580908946.184237,12659.261309,0,9.895477,97.0882
1580908946.769937,158,0,1580907286.99823,41.20781296037784,29.0754925099451,275.2123,0.1345286,-1,23.46983528137207,200,-9999,12662.56895525,0.9656219482421875,0.1201629638671875,-0.126678466796875,12662.55888425,1.746405847422284,1.457307206210898,-0.1136228804673546,-0.05184473469853401,-0.08961602300405502,-0.1025246828794479,-0.01922786235809326,0.002346962690353394,-0.01638102531433105,2,-0.5367024208414016,0.394579255424903,0.5465724186707663,0.5074607561809262,0.9871604442596436,0.1133785545825958,-0.1125154420733452,33.82032775878906,15.28476142883301,6.26953125,2,12661.94261225,4,2,1580908946.183779,1580903939.50652,3116,0.4890548,1.136537,1.799347,3752.709,14,17,1580908946.184237,12659.261309,0,9.895477,97.0882
1580908946.780094,159,0,1580907286.99823,41.20781296037784,29.0754925099451,275.2123,0.1345286,-1,23.46983528137207,200,-9999,12662.57899525,0.966796875,0.1260528564453125,-0.1202239990234375,12662.56895525,1.746817862382036,1.456391508356106,-0.1146208072388478,-0.05251425504684448,-0.09278199076652527,-0.0934494286775589,-0.02538877725601196,0.004815325140953064,-0.01722609996795654,2,-0.5367576354977911,0.3939391621623338,0.5466934243124076,0.5077691075628682,0.9869440197944641,0.1143699884414673,-0.1134063526988029,33.82032775878906,15.28476142883301,6.26953125,2,12661.94261225,4,2,1580908946.183779,1580903939.50652,3116,0.4890548,1.136537,1.799347,3752.709,14,17,1580908946.184237,12659.261309,0,9.895477,97.0882
1580908946.789711,160,0,1580907286.99823,41.20781296037784,29.0754925099451,275.2123,0.1345286,-1,23.46983528137207,200,-9999,12662.58903525,0.960357666015625,0.130126953125,-0.11749267578125,12662.57899525,1.747169020756988,1.455297800629559,-0.1155127104540531,-0.04508340731263161,-0.1108489036560059,-0.08529123663902283,-0.0236508846282959,0.009632542729377747,-0.009974360466003418,2,-0.5367280979502415,0.3933014017849603,0.5468712369384275,0.5081031228203982,0.9867176413536072,0.1152559965848923,-0.1144739091396332,33.76361846923828,15.32357215881348,6.069122314453125,2,12661.94261225,4,2,1580908946.183779,1580903939.50652,3116,0.4890548,1.136537,1.799347,3752.709,14,17,1580908946.184237,12659.261309,0,9.895477,97.0882
1580908946.79964,161,0,1580907286.99823,41.20781296037784,29.0754925099451,275.2123,0.1345286,-1,23.46983528137207,200,-9999,12662.59907625,0.947540283203125,0.1317138671875,-0.1256103515625,12662.58903525,1.747432587509119,1.453997363092983,-0.116295989893211,-0.03613625094294548,-0.1330897659063339,-0.07445643842220306,-0.02901017665863037,0.01315434277057648,-0.005095779895782471,2,-0.5366001740771538,0.3926665803481679,0.5471072678417146,0.5084749572645962,0.9864779710769653,0.116034023463726,-0.1157464161515236,33.76361846923828,15.32357215881348,6.069122314453125,2,12661.94261225,4,2,1580908946.183779,1580903939.50652,3116,0.4890548,1.136537,1.799347,3752.709,14,17,1580908946.184237,12659.261309,0,9.895477,97.0882
