loggingTime,loggingSample,identifierForVendor,locationTimestamp_since1970,locationLatitude,locationLongitude,locationAltitude,locationSpeed,locationCourse,locationVerticalAccuracy,locationHorizontalAccuracy,locationFloor,accelerometerTimestamp_sinceReboot,accelerometerAccelerationX,accelerometerAccelerationY,accelerometerAccelerationZ,motionTimestamp_sinceReboot,motionYaw,motionRoll,motionPitch,motionRotationRateX,motionRotationRateY,motionRotationRateZ,motionUserAccelerationX,motionUserAccelerationY,motionUserAccelerationZ,motionAttitudeReferenceFrame,motionQuaternionX,motionQuaternionY,motionQuaternionZ,motionQuaternionW,motionGravityX,motionGravityY,motionGravityZ,motionMagneticFieldX,motionMagneticFieldY,motionMagneticFieldZ,motionMagneticFieldCalibrationAccuracy,activityTimestamp_sinceReboot,activity,activityActivityConfidence,activityActivityStartDate,pedometerStartDate,pedometerNumberofSteps,pedometerAverageActivePace,pedometerCurrentPace,pedometerCurrentCadence,pedometerDistance,pedometerFloorAscended,pedometerFloorDescended,pedometerEndDate,altimeterTimestamp_sinceReboot,altimeterReset,altimeterRelativeAltitude,altimeterPressure
1580908497.221821,1,0,1580907286.99823,41.20781296037784,29.0754925099451,275.2123,0.1345286,-1,23.46983528137207,200,-9999,12212.99477125,0.9724578857421875,0.101837158203125,-0.1679229736328125,12212.98473125,1.174413976839257,1.404075947014556,-0.09996656257212075,-0.004244078882038593,0.0347713828086853,0.005060522817075253,-0.01762193441390991,-0.001156866550445557,-0.007716178894042969,2,-0.3890947626979204,0.5157954668141169,0.3956351365856839,0.652712160163294,0.9812110662460327,0.09980014711618423,-0.1651206016540527,31.5477294921875,22.68734741210938,5.592132568359375,2,12212.23233375,2,0,1580908496.4735,1580903939.50652,2854,0.4894773,0.3954083,2.068121,3412.259,14,15,1580908493.658015,12209.878201,0,13.6608,97.04453
1580908497.223616,2,0,1580907286.99823,41.20781296037784,29.0754925099451,275.2123,0.1345286,-1,23.46983528137207,200,-9999,12213.00481125,0.967926025390625,0.1011505126953125,-0.17071533203125,12212.99477125,1.174446568727695,1.404221828394979,-0.09994215458143817,-0.002997986041009426,0.01476038806140423,0.002355017699301243,-0.01212465763092041,0.001629382371902466,-0.005860447883605957,2,-0.3891244783279365,0.515842226596653,0.3956242095894836,0.6526641661948065,0.9812375903129578,0.09977585822343826,-0.1649778783321381,31.5477294921875,22.68734741210938,5.592132568359375,2,12212.23233375,2,0,1580908496.4735,1580903939.50652,2854,0.4894773,0.3954083,2.068121,3412.259,14,15,1580908493.658015,12209.878201,0,13.6608,97.04453
1580908497.246682,3,0,1580907286.99823,41.20781296037784,29.0754925099451,275.2123,0.1345286,-1,23.46983528137207,200,-9999,12213.01485225,0.9658355712890625,0.1021575927734375,-0.17132568359375,12213.00481125,1.174437951580818,1.404231404429654,-0.09990620559623906,0.001442735083401203,0.0008777789771556854,0.003381562419235706,-0.01678383350372314,0.001024365425109863,-0.008463561534881592,2,-0.3891131147337291,0.5158550774508867,0.3956295431133225,0.6526574000752167,0.9812425374984741,0.09974008798599243,-0.1649690419435501,31.35997772216797,22.77408218383789,5.7113037109375,2,12212.23233375,2,0,1580908496.4735,1580903939.50652,2854,0.4894773,0.3954083,2.068121,3412.259,14,15,1580908493.658015,12209.878201,0,13.6608,97.04453
1580908497.247925,4,0,1580907286.99823,41.20781296037784,29.0754925099451,275.2123,0.1345286,-1,23.46983528137207,200,-9999,12213.02489225,0.963775634765625,0.1011199951171875,-0.172119140625,12213.01485225,1.17439227456664,1.404149070737977,-0.0998668867439961,0.005530155263841152,-0.007581220008432865,0.00307183712720871,-0.01834571361541748,0.002177566289901733,-0.00908362865447998,2,-0.3890728946419964,0.5158459403484601,0.3956416363186911,0.6526813334574777,0.9812328815460205,0.09970096498727798,-0.1650504916906357,31.35997772216797,22.77408218383789,5.7113037109375,2,12212.23233375,2,0,1580908496.4735,1580903939.50652,2854,0.4894773,0.3954083,2.068121,3412.259,14,15,1580908493.658015,12209.878201,0,13.6608,97.04453
1580908497.248768,5,0,1580907286.99823,41.20781296037784,29.0754925099451,275.2123,0.1345286,-1,23.46983528137207,200,-9999,12213.03493225,0.961700439453125,0.0982208251953125,-0.176177978515625,12213.02489225,1.174345698375721,1.404037787845825,-0.09983415425798152,0.00512162409722805,-0.01089978776872158,0.002674821764230728,-0.02100086212158203,0.00130993127822876,-0.009736478328704834,2,-0.389028749347343,0.5158260472488077,0.3956572254778312,0.6527139758820517,0.9812178015708923,0.09966839849948883,-0.1651602387428284,31.52566528320312,22.6915283203125,5.5736083984375,2,12212.23233375,2,0,1580908496.4735,1580903939.50652,2854,0.4894773,0.3954083,2.068121,3412.259,14,15,1580908493.658015,12209.878201,0,13.6608,97.04453
1580908497.24955,6,0,1580907286.99823,41.20781296037784,29.0754925099451,275.2123,0.1345286,-1,23.46983528137207,200,-9999,12213.04497325,0.9589385986328125,0.0970458984375,-0.1776275634765625,12213.03493225,1.174322028660436,1.403977566562019,-0.09983343335238197,0.000944189727306366,-0.004840830340981483,4.441756755113602e-05,-0.02241003513336182,-0.00131380558013916,-0.01370537281036377,2,-0.3890105155153513,0.5158111558322769,0.3956614124645221,0.6527340540458717,0.9812079071998596,0.09966768324375153,-0.1652193367481232,31.53734588623047,22.82218933105469,5.576751708984375,2,12212.23233375,2,0,1580908496.4735,1580903939.50652,2854,0.4894773,0.3954083,2.068121,3412.259,14,15,1580908493.658015,12209.878201,0,13.6608,97.04453
1580908497.257696,7,0,1580907286.99823,41.20781296037784,29.0754925099451,275.2123,0.1345286,-1,23.46983528137207,200,-9999,12213.05504325,0.961669921875,0.09759521484375,-0.176361083984375,12213.04497325,1.174292278415022,1.403988053623955,-0.09984798216703736,0.002328399568796158,0.002661222591996193,-0.0009831939823925495,-0.02587413787841797,-0.003006845712661743,-0.01563858985900879,2,-0.3890093872366659,0.5158171060596091,0.3956456117751943,0.6527396545703874,0.9812082648277283,0.09968215972185135,-0.1652088165283203,31.53734588623047,22.82218933105469,5.576751708984375,2,12212.23233375,2,0,1580908496.4735,1580903939.50652,2854,0.4894773,0.3954083,2.068121,3412.259,14,15,1580908493.658015,12209.878201,0,13.6608,97.04453
1580908497.267861,8,0,1580907286.99823,41.20781296037784,29.0754925099451,275.2123,0.1345286,-1,23.46983528137207,200,-9999,12213.06508425,0.960693359375,0.0963592529296875,-0.1757354736328125,12213.05504325,1.174259597446915,1.404024433718186,-0.09987773208763576,0.003152381628751755,0.004533691331744194,-0.003391756676137447,-0.02328318357467651,-0.002502530813217163,-0.01411861181259155,2,-0.389017353481351,0.5158286426465806,0.3956195599810634,0.6527415236530145,0.9812113046646118,0.09971176087856293,-0.1651726216077805,31.57378387451172,22.66698837280273,5.5472412109375,2,12212.23233375,2,0,1580908496.4735,1580903939.50652,2854,0.4894773,0.3954083,2.068121,3412.259,14,15,1580908493.658015,12209.878201,0,13.6608,97.04453
1580908497.278362,9,0,1580907286.99823,41.20781296037784,29.0754925099451,275.2123,0.1345286,-1,23.46983528137207,200,-9999,12213.07512425,0.9556732177734375,0.0989990234375,-0.17877197265625,12213.06508425,1.174265640838796,1.404085558635516,-0.09992193091048679,-0.002887352369725704,0.005590973421931267,-0.004752050619572401,-0.02374684810638428,-0.00367581844329834,-0.0135694146156311,2,-0.3890446728887216,0.5158374698522213,0.3955972949069051,0.6527316630152423,0.9812169671058655,0.09975573420524597,-0.1651118993759155,31.57378387451172,22.66698837280273,5.5472412109375,2,12212.23233375,2,0,1580908496.4735,1580903939.50652,2854,0.4894773,0.3954083,2.068121,3412.259,14,15,1580908493.658015,12209.878201,0,13.6608,97.04453
1580908497.307671,10,0,1580907286.99823,41.20781296037784,29.0754925099451,275.2123,0.1345286,-1,23.46983528137207,200,-9999,12213.08516425,0.9553070068359375,0.0986480712890625,-0.1777801513671875,12213.07512425,1.1742776202648,1.404249977855282,-0.09994903158375265,-0.001165619120001793,0.0164465494453907,-0.002519522793591022,-0.02850162982940674,-0.001276701688766479,-0.01650875806808472,2,-0.3890886234390432,0.5158827206889559,0.3955616653625421,0.6526913515183397,0.9812414646148682,0.09978270530700684,-0.1649501174688339,31.62384796142578,22.62563323974609,5.4293212890625,2,12212.23233375,2,0,1580908496.4735,1580903939.50652,2854,0.4894773,0.3954083,2.068121,3412.259,14,15,1580908493.658015,12209.878201,0,13.6608,97.04453
1580908497.309451,11,0,1580907286.99823,41.20781296037784,29.0754925099451,275.2123,0.1345286,-1,23.46983528137207,200,-9999,12213.09520525,0.9582061767578125,0.0990447998046875,-0.1753997802734375,12213.08516425,1.17431956492089,1.404498506698561,-0.09995215961220867,-0.00468846270814538,0.02440830506384373,0.0004714718088507652,-0.02980899810791016,-0.001295089721679688,-0.0165095329284668,2,-0.3891495615246104,0.5159549585442961,0.3955261259096996,0.6526194516978899,0.981282114982605,0.09978581219911575,-0.1647062003612518,31.62384796142578,22.62563323974609,5.4293212890625,2,12212.23233375,2,0,1580908496.4735,1580903939.50652,2854,0.4894773,0.3954083,2.068121,3412.259,14,15,1580908493.658015,12209.878201,0,13.6608,97.04453
1580908497.310623,12,0,1580907286.99823,41.20781296037784,29.0754925099451,275.2123,0.1345286,-1,23.46983528137207,200,-9999,12213.10524525,0.9598236083984375,0.1002349853515625,-0.1749420166015625,12213.09520525,1.174358456841035,1.404789996467229,-0.09992732253143623,-0.002944624982774258,0.03031226433813572,0.002672574482858181,-0.02676194906234741,-0.001285523176193237,-0.0142173171043396,2,-0.3892095954885232,0.5160480705528619,0.395489020443376,0.6525324654586493,0.9813324809074402,0.09976109862327576,-0.164420560002327,31.44892120361328,22.85771942138672,5.53643798828125,2,12212.23233375,2,0,1580908496.4735,1580903939.50652,2854,0.4894773,0.3954083,2.068121,3412.259,14,15,1580908493.658015,12209.878201,0,13.6608,97.04453
1580908497.317969,13,0,1580907286.99823,41.20781296037784,29.0754925099451,275.2123,0.1345286,-1,23.46983528137207,200,-9999,12213.11528525,0.9628448486328125,0.101165771484375,-0.173614501953125,12213.10524525,1.174403185808218,1.405089451530781,-0.0998728662441602,-0.003272816073149443,0.03048746660351753,0.006426995620131493,-0.02515363693237305,8.106231689453125e-05,-0.0139162540435791,2,-0.3892635193803071,0.5161493108302739,0.3954605524107336,0.6524375841937341,0.9813871383666992,0.09970691800117493,-0.1641276031732559,31.44892120361328,22.85771942138672,5.53643798828125,2,12212.23233375,2,0,1580908496.4735,1580903939.50652,2854,0.4894773,0.3954083,2.068121,3412.259,14,15,1580908493.658015,12209.878201,0,13.6608,97.04453
1580908497.32813,14,0,1580907286.99823,41.20781296037784,29.0754925099451,275.2123,0.1345286,-1,23.46983528137207,200,-9999,12213.12532525,0.9702911376953125,0.1005096435546875,-0.169036865234375,12213.11528525,1.174429931931021,1.40534159831096,-0.09979461685984177,-0.0008954126387834549,0.02692043036222458,0.008704265579581261,-0.02289891242980957,0.0008458197116851807,-0.01312589645385742,2,-0.3892961785862231,0.5162439132883168,0.3954420343687841,0.6523543923674857,0.9814361333847046,0.09962905943393707,-0.1638814210891724,31.40424346923828,22.8552360534668,5.524169921875,2,12212.23233375,2,0,1580908496.4735,1580903939.50652,2854,0.4894773,0.3954083,2.068121,3412.259,14,15,1580908493.658015,12209.878201,0,13.6608,97.04453
1580908497.338025,15,0,1580907286.99823,41.20781296037784,29.0754925099451,275.2123,0.1345286,-1,23.46983528137207,200,-9999,12213.13536625,0.9706268310546875,0.1009674072265625,-0.1690673828125,12213.12532525,1.174435523260979,1.405453757474602,-0.09972797293357157,-0.0001417044550180435,0.01225092075765133,0.00638177152723074,-0.01503497362136841,0.0005767643451690674,-0.008382737636566162,2,-0.3892991950915475,0.516294400491679,0.3954406582790753,0.6523136272671379,0.981461226940155,0.09956274181604385,-0.1637724637985229,31.40424346923828,22.8552360534668,5.524169921875,2,12212.23233375,2,0,1580908496.4735,1580903939.50652,2854,0.4894773,0.3954083,2.068121,3412.259,14,15,1580908493.658015,12209.878201,0,13.6608,97.04453
1580908497.368252,16,0,1580907286.99823,41.20781296037784,29.0754925099451,275.2123,0.1345286,-1,23.46983528137207,200,-9999,12213.14540625,0.9693145751953125,0.099884033203125,-0.1705322265625,12213.13536625,1.174410329500147,1.405433287882331,-0.09968334222945377,0.002632509917020798,-0.001254236325621605,0.004593991674482822,-0.01434934139251709,0.001033276319503784,-0.008361935615539551,2,-0.3892749214029428,0.5163026299994158,0.3954488709806698,0.6523165148310743,0.9814621210098267,0.09951833635568619,-0.1637932658195496,31.41881561279297,22.67238998413086,5.632537841796875,2,12212.23233375,2,0,1580908496.4735,1580903939.50652,2854,0.4894773,0.3954083,2.068121,3412.259,14,15,1580908493.658015,12209.878201,0,13.6608,97.04453
1580908497.369653,17,0,1580907286.99823,41.20781296037784,29.0754925099451,275.2123,0.1345286,-1,23.46983528137207,200,-9999,12213.15547725,0.96697998046875,0.0992279052734375,-0.17254638671875,12213.14540625,1.174363693907682,1.405313179930308,-0.0996686146015011,0.00485219806432724,-0.0116361016407609,0.0007864199578762054,-0.01527714729309082,0.000223994255065918,-0.009311437606811523,2,-0.3892345581662772,0.5162758557137103,0.3954611632297072,0.6523544371390919,0.9814440011978149,0.09950368106365204,-0.1639114022254944,31.41881561279297,22.67238998413086,5.632537841796875,2,12212.23233375,2,0,1580908496.4735,1580903939.50652,2854,0.4894773,0.3954083,2.068121,3412.259,14,15,1580908493.658015,12209.878201,0,13.6608,97.04453
1580908497.370622,18,0,1580907286.99823,41.20781296037784,29.0754925099451,275.2123,0.1345286,-1,23.46983528137207,200,-9999,12213.16551725,0.964019775390625,0.0989532470703125,-0.1740264892578125,12213.15547725,1.174322580467042,1.40517789278561,-0.09966904125849739,0.002704891376197338,-0.0111037353053689,-0.0005904347635805607,-0.01763510704040527,-0.0006462037563323975,-0.0113602876663208,2,-0.3891973735044074,0.5162396079612052,0.3954739411748293,0.6523974275421606,0.9814216494560242,0.09950410574674606,-0.1640441417694092,31.46876525878906,22.84829711914062,5.601837158203125,2,12212.23233375,2,0,1580908496.4735,1580903939.50652,2854,0.4894773,0.3954083,2.068121,3412.259,14,15,1580908493.658015,12209.878201,0,13.6608,97.04453
1580908497.378463,19,0,1580907286.99823,41.20781296037784,29.0754925099451,275.2123,0.1345286,-1,23.46983528137207,200,-9999,12213.17555725,0.9617156982421875,0.097625732421875,-0.1756744384765625,12213.16551725,1.174277183060285,1.40501729801457,-0.09967989495964996,0.004210447892546654,-0.01579773053526878,-0.002712390385568142,-0.02050662040710449,-0.0007179975509643555,-0.01256000995635986,2,-0.3891572089808035,0.5161936360852737,0.3954873681675687,0.6524497287604407,0.9813942909240723,0.0995149090886116,-0.1642015874385834,31.46876525878906,22.84829711914062,5.601837158203125,2,12212.23233375,2,0,1580908496.4735,1580903939.50652,2854,0.4894773,0.3954083,2.068121,3412.259,14,15,1580908493.658015,12209.878201,0,13.6608,97.04453
1580908497.388331,20,0,1580907286.99823,41.20781296037784,29.0754925099451,275.2123,0.1345286,-1,23.46983528137207,200,-9999,12213.18559825,0.9583740234375,0.0979156494140625,-0.176544189453125,12213.17555725,1.174255931010027,1.404894453106813,-0.0996935814565779,0.002553694881498814,-0.01106689125299454,-0.002367245033383369,-0.02303338050842285,-0.002227097749710083,-0.01440787315368652,2,-0.3891316830513774,0.5161546063391405,0.3955005036737863,0.6524877823069521,0.9813727140426636,0.09952852129936218,-0.1643219143152237,31.57700347900391,22.73164367675781,5.59027099609375,2,12212.23233375,2,0,1580908496.4735,1580903939.50652,2854,0.4894773,0.3954083,2.068121,3412.259,14,15,1580908493.658015,12209.878201,0,13.6608,97.04453
1580908497.39829,21,0,1580907286.99823,41.20781296037784,29.0754925099451,275.2123,0.1345286,-1,23.46983528137207,200,-9999,12213.19563825,0.9587249755859375,0.09844970703125,-0.175201416015625,12213.18559825,1.174242441494764,1.4048388221976,-0.09969786001064092,0.002362432889640331,-0.005056943744421005,-0.001151295378804207,-0.02606022357940674,-0.001895666122436523,-0.01500934362411499,2,-0.3891185282763061,0.5161381165717387,0.3955057286755143,0.6525054815301823,0.9813631176948547,0.09953278303146362,-0.164376437664032,31.57700347900391,22.73164367675781,5.59027099609375,2,12212.23233375,2,0,1580908496.4735,1580903939.50652,2854,0.4894773,0.3954083,2.068121,3412.259,14,15,1580908493.658015,12209.878201,0,13.6608,97.04453
1580908497.427706,22,0,1580907286.99823,41.20781296037784,29.0754925099451,275.2123,0.1345286,-1,23.46983528137207,200,-9999,12213.20567825,0.958282470703125,0.09796142578125,-0.1748504638671875,12213.19563825,1.174241212106698,1.404813999465048,-0.09967429479266209,0.001416211016476154,-0.002910967916250229,0.003290590830147266,-0.02628731727600098,-0.001475393772125244,-0.01411467790603638,2,-0.3891060474310735,0.5161355421800801,0.3955167291948444,0.6525082552690755,0.9813613295555115,0.0995093360543251,-0.1644011735916138,31.56525421142578,22.86077499389648,5.497283935546875,2,12212.23233375,2,0,1580908496.4735,1580903939.50652,2854,0.4894773,0.3954083,2.068121,3412.259,14,15,1580908493.658015,12209.878201,0,13.6608,97.04453
1580908497.429345,23,0,1580907286.99823,41.20781296037784,29.0754925099451,275.2123,0.1345286,-1,23.46983528137207,200,-9999,12213.21571825,0.9568939208984375,0.0981597900390625,-0.177703857421875,12213.20567825,1.174251797240593,1.404835817526644,-0.09965448642589035,-0.0005070129409432411,0.001931581646203995,0.00196471530944109,-0.02646070718765259,-0.001669257879257202,-0.01308310031890869,2,-0.3891070091821889,0.5161450364809586,0.3955214564355179,0.6524972364778194,0.981366753578186,0.09948962181806564,-0.1643800735473633,31.56525421142578,22.86077499389648,5.497283935546875,2,12212.23233375,2,0,1580908496.4735,1580903939.50652,2854,0.4894773,0.3954083,2.068121,3412.259,14,15,1580908493.658015,12209.878201,0,13.6608,97.04453
1580908497.43037,24,0,1580907286.99823,41.20781296037784,29.0754925099451,275.2123,0.1345286,-1,23.46983528137207,200,-9999,12213.22575925,0.9586181640625,0.098724365234375,-0.1764068603515625,12213.21571825,1.174268726684426,1.404949234698876,-0.09962395900472377,-0.0008934373036026955,0.0122462697327137,0.002853677608072758,-0.02796256542205811,-0.001867622137069702,-0.01636803150177002,2,-0.3891243448819886,0.5161856227512513,0.3955134550332742,0.6524597755251764,0.9813885688781738,0.09945924580097198,-0.1642692983150482,31.51816558837891,22.84638595581055,5.559661865234375,2,12212.23233375,2,0,1580908496.4735,1580903939.50652,2854,0.4894773,0.3954083,2.068121,3412.259,14,15,1580908493.658015,12209.878201,0,13.6608,97.04453
1580908497.438479,25,0,1580907286.99823,41.20781296037784,29.0754925099451,275.2123,0.1345286,-1,23.46983528137207,200,-9999,12213.23579925,0.9610443115234375,0.0992889404296875,-0.174713134765625,12213.22575925,1.174293501797163,1.405100055210953,-0.09957099860090023,-0.0007517710328102112,0.01533443480730057,0.005429278127849102,-0.02645158767700195,-0.001067072153091431,-0.01550871133804321,2,-0.3891442297219385,0.5162418950341126,0.3955069774872761,0.6524073256481745,0.9814184904098511,0.09940654784440994,-0.164122149348259,31.51816558837891,22.84638595581055,5.559661865234375,2,12212.23233375,2,0,1580908496.4735,1580903939.50652,2854,0.4894773,0.3954083,2.068121,3412.259,14,15,1580908493.658015,12210.822006,0,13.6423,97.04472
1580908497.448613,26,0,1580907286.99823,41.20781296037784,29.0754925099451,275.2123,0.1345286,-1,23.46983528137207,200,-9999,12213.24587025,0.963226318359375,0.0980072021484375,-0.173370361328125,12213.23579925,1.174321107470394,1.405279943453359,-0.09952153395120139,-0.001637804321944714,0.01725750416517258,0.005306240171194077,-0.02433454990386963,-0.0004378259181976318,-0.01400649547576904,2,-0.3891716535781937,0.5163063175027793,0.3954947979602894,0.6523474285837481,0.9814529418945312,0.09935732930898666,-0.1639464199542999,31.51168060302734,22.5942211151123,5.5672607421875,2,12212.23233375,2,0,1580908496.4735,1580903939.50652,2854,0.4894773,0.3954083,2.068121,3412.259,14,15,1580908493.658015,12210.822006,0,13.6423,97.04472
1580908497.458618,27,0,1580907286.99823,41.20781296037784,29.0754925099451,275.2123,0.1345286,-1,23.46983528137207,200,-9999,12213.25591025,0.9653472900390625,0.0984039306640625,-0.172821044921875,12213.24587025,1.174358424410909,1.405462607413032,-0.09948459148005437,-0.003866078332066536,0.01780952326953411,0.004574870690703392,-0.02183526754379272,-0.00140807032585144,-0.01287364959716797,2,-0.3892060271121796,0.5163669217523399,0.3954817335803929,0.6522868418931543,0.981486439704895,0.09932056814432144,-0.1637677401304245,31.51168060302734,22.5942211151123,5.5672607421875,2,12212.23233375,2,0,1580908496.4735,1580903939.50652,2854,0.4894773,0.3954083,2.068121,3412.259,14,15,1580908493.658015,12210.822006,0,13.6423,97.04472
1580908497.489383,28,0,1580907286.99823,41.20781296037784,29.0754925099451,275.2123,0.1345286,-1,23.46983528137207,200,-9999,12213.26595025,0.9662933349609375,0.09930419921875,-0.17193603515625,12213.25591025,1.174375664807762,1.405577385547729,-0.09945397374768615,-0.0006844000890851021,0.01157879270613194,0.004015074111521244,-0.01990407705307007,-0.00124010443687439,-0.01229953765869141,2,-0.3892237335934491,0.5164078732835451,0.3954735685955588,0.6522488077807449,0.9815082550048828,0.09929010272026062,-0.1636555939912796,31.47776794433594,22.66329956054688,5.58209228515625,2,12212.23233375,2,0,1580908496.4735,1580903939.50652,2854,0.4894773,0.3954083,2.068121,3412.259,14,15,1580908493.658015,12210.822006,0,13.6423,97.04472
1580908497.490765,29,0,1580907286.99823,41.20781296037784,29.0754925099451,275.2123,0.1345286,-1,23.46983528137207,200,-9999,12213.27599125,0.9665985107421875,0.100250244140625,-0.1714019775390625,12213.26595025,1.174377668865365,1.405639683465849,-0.09944036095966706,-0.0001764614135026932,0.008428435772657394,0.0009921826422214508,-0.01880174875259399,-0.0003109872341156006,-0.01138412952423096,2,-0.389232358916657,0.5164308624936914,0.3954659048649256,0.6522301433925829,0.9815198183059692,0.09927655756473541,-0.163594663143158,31.47776794433594,22.66329956054688,5.58209228515625,2,12212.23233375,2,0,1580908496.4735,1580903939.50652,2854,0.4894773,0.3954083,2.068121,3412.259,14,15,1580908493.658015,12210.822006,0,13.6423,97.04472
1580908497.492736,30,0,1580907286.99823,41.20781296037784,29.0754925099451,275.2123,0.1345286,-1,23.46983528137207,200,-9999,12213.28603125,0.96551513671875,0.1000823974609375,-0.172332763671875,12213.27599125,1.174378353312134,1.405620512847019,-0.09943195427739331,-0.0009740786626935005,-0.001719806343317032,0.001489127986133099,-0.01855522394180298,0.0004602968692779541,-0.01083099842071533,2,-0.3892261697670844,0.5164263560550968,0.3954721991294514,0.6522335412969653,0.9815174341201782,0.09926819056272507,-0.1636136174201965,31.43550872802734,22.63649368286133,5.49566650390625,2,12212.23233375,2,0,1580908496.4735,1580903939.50652,2854,0.4894773,0.3954083,2.068121,3412.259,14,15,1580908493.658015,12210.822006,0,13.6423,97.04472
1580908497.498724,31,0,1580907286.99823,41.20781296037784,29.0754925099451,275.2123,0.1345286,-1,23.46983528137207,200,-9999,12213.29607125,0.96441650390625,0.098785400390625,-0.1732635498046875,12213.28603125,1.174361814424734,1.405550433082531,-0.09943818812342689,0.001216687262058258,-0.006467957049608231,-0.0003816955722868443,-0.01938235759735107,0.0004846155643463135,-0.01138770580291748,2,-0.3892099689696195,0.5164053181742053,0.395478700837431,0.6522559092999288,0.9815053343772888,0.0992743968963623,-0.163682296872139,31.43550872802734,22.63649368286133,5.49566650390625,2,12212.23233375,2,0,1580908496.4735,1580903939.50652,2854,0.4894773,0.3954083,2.068121,3412.259,14,15,1580908493.658015,12210.822006,0,13.6423,97.04472
1580908497.508934,32,0,1580907286.99823,41.20781296037784,29.0754925099451,275.2123,0.1345286,-1,23.46983528137207,200,-9999,12213.30611225,0.964202880859375,0.0980072021484375,-0.1732635498046875,12213.29607125,1.17434725151946,1.40545960681422,-0.09945707464975519,0.0002994947135448456,-0.00838969461619854,-0.002954042982310057,-0.02032673358917236,-0.0009380578994750977,-0.01244288682937622,2,-0.3891940829687662,0.516374285293152,0.3954863484027732,0.6522852892584985,0.9814885854721069,0.09929318726062775,-0.1637711226940155,31.54853820800781,22.9861946105957,5.537261962890625,2,12212.23233375,2,0,1580908496.4735,1580903939.50652,2854,0.4894773,0.3954083,2.068121,3412.259,14,15,1580908493.658015,12210.822006,0,13.6423,97.04472
1580908497.518781,33,0,1580907286.99823,41.20781296037784,29.0754925099451,275.2123,0.1345286,-1,23.46983528137207,200,-9999,12213.31615225,0.9630889892578125,0.0986328125,-0.1730804443359375,12213.30611225,1.174326915032882,1.40537030029137,-0.09947331168067265,0.001303664408624172,-0.008013784885406494,-0.001681692432612181,-0.02069199085235596,-0.001518845558166504,-0.01249265670776367,2,-0.3891762043601252,0.5163454575082472,0.3954925500069261,0.6523149455350927,0.9814723134040833,0.09930934756994247,-0.1638585031032562,31.54853820800781,22.9861946105957,5.537261962890625,2,12212.23233375,2,0,1580908496.4735,1580903939.50652,2854,0.4894773,0.3954083,2.068121,3412.259,14,15,1580908493.658015,12210.822006,0,13.6423,97.04472
1580908497.548134,34,0,1580907286.99823,41.20781296037784,29.0754925099451,275.2123,0.1345286,-1,23.46983528137207,200,-9999,12213.32619225,0.9620819091796875,0.09930419921875,-0.172576904296875,12213.31615225,1.174308216676127,1.405263469429375,-0.09947271881204306,0.0008866135030984879,-0.01074405759572983,0.0006064958870410919,-0.02168166637420654,-0.001045256853103638,-0.01215851306915283,2,-0.3891500563719348,0.5163143905795198,0.3955074092648684,0.6523461598808354,0.9814549088478088,0.09930875897407532,-0.1639633625745773,31.60311126708984,22.88791275024414,5.520660400390625,2,12212.23233375,2,0,1580908496.4735,1580903939.50652,2854,0.4894773,0.3954083,2.068121,3412.259,14,15,1580908493.658015,12210.822006,0,13.6423,97.04472
1580908497.549663,35,0,1580907286.99823,41.20781296037784,29.0754925099451,275.2123,0.1345286,-1,23.46983528137207,200,-9999,12213.33623225,0.9622650146484375,0.0987701416015625,-0.17303466796875,12213.32619225,1.174297974628114,1.405150372304118,-0.09947513927797144,0.001167794689536095,-0.01062182523310184,-0.0004897103644907475,-0.02271550893783569,-0.0003762543201446533,-0.01151299476623535,2,-0.3891257689737853,0.5162789619746365,0.395525408229371,0.652377841802498,0.9814361929893494,0.09931116551160812,-0.1640743315219879,31.60311126708984,22.88791275024414,5.520660400390625,2,12212.23233375,2,0,1580908496.4735,1580903939.50652,2854,0.4894773,0.3954083,2.068121,3412.259,14,15,1580908493.658015,12210.822006,0,13.6423,97.04472
1580908497.550649,36,0,1580907286.99823,41.20781296037784,29.0754925099451,275.2123,0.1345286,-1,23.46983528137207,200,-9999,12213.34629979167,0.9615325927734375,0.099365234375,-0.1728057861328125,12213.33623225,1.174293531294734,1.405011192880859,-0.09948169696447658,0.0005968129262328148,-0.01383093371987343,-0.0001083454117178917,-0.02255457639694214,-0.0008863210678100586,-0.01187938451766968,2,-0.3890990758840236,0.5162329759405797,0.395549224941266,0.6524158345435631,0.9814128279685974,0.09931769222021103,-0.1642108410596848,31.50524139404297,22.86130905151367,5.635894775390625,2,12212.23233375,2,0,1580908496.4735,1580903939.50652,2854,0.4894773,0.3954083,2.068121,3412.259,14,15,1580908493.658015,12210.822006,0,13.6423,97.04472
1580908497.559222,37,0,1580907286.99823,41.20781296037784,29.0754925099451,275.2123,0.1345286,-1,23.46983528137207,200,-9999,12213.35633979167,0.960357666015625,0.098236083984375,-0.1757354736328125,12213.34629979167,1.174293044718279,1.40487706255451,-0.09947700290509616,0.0005074581131339073,-0.01232271548360586,0.001058008521795273,-0.02328073978424072,-0.0002255141735076904,-0.01125919818878174,2,-0.3890710382963222,0.5161903365016308,0.395576443057481,0.6524496085088018,0.9813910126686096,0.09931302070617676,-0.1643425226211548,31.50524139404297,22.86130905151367,5.635894775390625,2,12212.23233375,2,0,1580908496.4735,1580903939.50652,2854,0.4894773,0.3954083,2.068121,3412.259,14,15,1580908493.658015,12210.822006,0,13.6423,97.04472
1580908497.568998,38,0,1580907286.99823,41.20781296037784,29.0754925099451,275.2123,0.1345286,-1,23.46983528137207,200,-9999,12213.36638079167,0.9567718505859375,0.097991943359375,-0.1771392822265625,12213.35633979167,1.174312092932429,1.404780067859686,-0.09947576193903716,-0.002523485571146011,-0.01040204335004091,0.0006521428003907204,-0.02437871694564819,-0.00142967700958252,-0.01400172710418701,2,-0.3890563758168689,0.5161552725302126,0.3956018766890694,0.6524707014297523,0.9813752770423889,0.09931178390979767,-0.1644377410411835,31.60157775878906,22.87802886962891,5.74658203125,2,12212.23233375,2,0,1580908496.4735,1580903939.50652,2854,0.4894773,0.3954083,2.068121,3412.259,14,15,1580908493.658015,12210.822006,0,13.6423,97.04472
1580908497.579224,39,0,1580907286.99823,41.20781296037784,29.0754925099451,275.2123,0.1345286,-1,23.46983528137207,200,-9999,12213.37642079167,0.9580535888671875,0.0992889404296875,-0.175628662109375,12213.36638079167,1.174322791977406,1.404774894741145,-0.09945620055423791,-0.001656229607760906,0.0003247801214456558,0.002644823864102364,-0.02785885334014893,-0.001944214105606079,-0.01568996906280518,2,-0.3890520461745055,0.516155913178079,0.3956118475070486,0.65246682676364,0.9813764095306396,0.09929231554269791,-0.1644431501626968,31.60157775878906,22.87802886962891,5.74658203125,2,12212.23233375,2,0,1580908496.4735,1580903939.50652,2854,0.4894773,0.3954083,2.068121,3412.259,14,15,1580908493.658015,12210.822006,0,13.6423,97.04472
1580908497.605034,40,0,1580907286.99823,41.20781296037784,29.0754925099451,275.2123,0.1345286,-1,23.46983528137207,200,-9999,12213.38646079167,0.961212158203125,0.0996246337890625,-0.17388916015625,12213.37642079167,1.174326108161098,1.404805336373234,-0.09940977226348015,-0.0001542065292596817,0.003082484006881714,0.005131151527166367,-0.02701389789581299,-0.0004482865333557129,-0.01460534334182739,2,-0.3890446375584921,0.5161756064951912,0.3956199510388517,0.6524506541965021,0.9813858866691589,0.09924612194299698,-0.1644140332937241,31.39356231689453,22.94649124145508,5.698699951171875,2,12212.23233375,2,0,1580908496.4735,1580903939.50652,2854,0.4894773,0.3954083,2.068121,3412.259,14,15,1580908493.658015,12210.822006,0,13.6423,97.04472
1580908497.606289,41,0,1580907286.99823,41.20781296037784,29.0754925099451,275.2123,0.1345286,-1,23.46983528137207,200,-9999,12213.39650179167,0.966796875,0.10015869140625,-0.1723785400390625,12213.38646079167,1.174329266095032,1.404824865102127,-0.09936216194477601,0.0007171239703893661,0.002154583111405373,0.004780891351401806,-0.02425992488861084,8.752942085266113e-05,-0.01253336668014526,2,-0.389034645134016,0.516192045428896,0.3956304641450381,0.652437190686842,0.9813936948776245,0.09919874370098114,-0.1643956303596497,31.39356231689453,22.94649124145508,5.698699951171875,2,12212.23233375,2,0,1580908496.4735,1580903939.50652,2854,0.4894773,0.3954083,2.068121,3412.259,14,15,1580908493.658015,12210.822006,0,13.6423,97.04472
1580908497.610077,42,0,1580907286.99823,41.20781296037784,29.0754925099451,275.2123,0.1345286,-1,23.46983528137207,200,-9999,12213.40654179167,0.9683380126953125,0.099029541015625,-0.1723785400390625,12213.39650179167,1.174347766469955,1.404784605344858,-0.09930963198030313,-0.001638708636164665,-0.004151251167058945,0.006145761348307133,-0.01842951774597168,0.0006435811519622803,-0.0110735297203064,2,-0.3890152106423119,0.5161871291094883,0.395659008935931,0.6524354778766511,0.9813923239707947,0.09914647042751312,-0.1644360274076462,31.45738220214844,22.60746002197266,5.74365234375,2,12212.23233375,2,0,1580908496.4735,1580903939.50652,2854,0.4894773,0.3954083,2.068121,3412.259,14,15,1580908493.658015,12210.822006,0,13.6423,97.04472
1580908497.619274,43,0,1580907286.99823,41.20781296037784,29.0754925099451,275.2123,0.1345286,-1,23.46983528137207,200,-9999,12213.41658179167,0.965850830078125,0.0988922119140625,-0.1724853515625,12213.40654179167,1.174344407460882,1.404663630312246,-0.09927439202995551,0.001206942833960056,-0.01192970294505358,0.002875193953514099,-0.01629197597503662,-0.000374138355255127,-0.01077067852020264,2,-0.388979556301879,0.5161562215702029,0.3956912701858383,0.6524615768458055,0.9813758134841919,0.099111407995224,-0.1645553261041641,31.45738220214844,22.60746002197266,5.74365234375,2,12212.23233375,2,0,1580908496.4735,1580903939.50652,2854,0.4894773,0.3954083,2.068121,3412.259,14,15,1580908493.658015,12210.822006,0,13.6423,97.04472
1580908497.629469,44,0,1580907286.99823,41.20781296037784,29.0754925099451,275.2123,0.1345286,-1,23.46983528137207,200,-9999,12213.42662179167,0.9669189453125,0.10052490234375,-0.171875,12213.41658179167,1.174319556526509,1.404498142688195,-0.09924583048841318,0.003417099826037884,-0.01451110560446978,0.002110866829752922,-0.01875460147857666,-0.0005744695663452148,-0.01046997308731079,2,-0.3889315809610092,0.5161134830917754,0.3957233202815832,0.6525045711248432,0.9813514351844788,0.09908298403024673,-0.1647181957960129,31.39802551269531,22.84519577026367,5.58447265625,2,12212.23233375,2,0,1580908496.4735,1580903939.50652,2854,0.4894773,0.3954083,2.068121,3412.259,14,15,1580908493.658015,12210.822006,0,13.6423,97.04472
1580908497.639395,45,0,1580907286.99823,41.20781296037784,29.0754925099451,275.2123,0.1345286,-1,23.46983528137207,200,-9999,12213.43669279167,0.963897705078125,0.100189208984375,-0.17333984375,12213.42662179167,1.174285036847512,1.404256085297549,-0.09921599259478746,0.002683923579752445,-0.0249845702201128,0.002913803793489933,-0.01803076267242432,0.00101172924041748,-0.009910762310028076,2,-0.3888656065830848,0.5160479017308731,0.395767435669453,0.6525689033951485,0.9813143014907837,0.09905329346656799,-0.1649562120437622,31.39802551269531,22.84519577026367,5.58447265625,2,12212.23233375,2,0,1580908496.4735,1580903939.50652,2854,0.4894773,0.3954083,2.068121,3412.259,14,15,1580908493.658015,12210.822006,0,13.6423,97.04472
1580908497.669703,46,0,1580907286.99823,41.20781296037784,29.0754925099451,275.2123,0.1345286,-1,23.46983528137207,200,-9999,12213.44673379167,0.965545654296875,0.0991668701171875,-0.1745452880859375,12213.43669279167,1.17423834674584,1.403975316964105,-0.09919011878802758,0.004233617335557938,-0.02684398926794529,0.003049625083804131,-0.02070283889770508,0.0009154975414276123,-0.01079344749450684,2,-0.388789978435532,0.5159711910291775,0.3958140190268415,0.6526464654562613,0.9812706112861633,0.09902755171060562,-0.1652321666479111,31.39871978759766,22.72926712036133,5.73321533203125,2,12212.23233375,2,0,1580908496.4735,1580903939.50652,2854,0.4894773,0.3954083,2.068121,3412.259,14,15,1580908493.658015,12210.822006,0,13.6423,97.04472
1580908497.670973,47,0,1580907286.99823,41.20781296037784,29.0754925099451,275.2123,0.1345286,-1,23.46983528137207,200,-9999,12213.45677379167,0.9696807861328125,0.0996246337890625,-0.1727142333984375,12213.44673379167,1.174187888229787,1.403651943303609,-0.09916520117569877,0.00515573937445879,-0.03022395074367523,0.003167231567203999,-0.01953780651092529,-0.0001887679100036621,-0.01189357042312622,2,-0.3887052489958593,0.5158810734300487,0.395867366641716,0.6527358699664281,0.9812195897102356,0.09900275617837906,-0.1655498892068863,31.4873046875,22.70360946655273,5.737701416015625,2,12212.23233375,2,0,1580908496.4735,1580903939.50652,2854,0.4894773,0.3954083,2.068121,3412.259,14,15,1580908493.658015,12210.822006,0,13.6423,97.04472
1580908497.671916,48,0,1580907286.99823,41.20781296037784,29.0754925099451,275.2123,0.1345286,-1,23.46983528137207,200,-9999,12213.46681379167,0.9705963134765625,0.100799560546875,-0.173095703125,12213.45677379167,1.174136089083355,1.403221948930362,-0.09915925224784539,0.004184750840067863,-0.04274214059114456,-0.0003028670325875282,-0.01534700393676758,0.000137627124786377,-0.00994420051574707,2,-0.3886049370797847,0.5157521254253553,0.3959356776190877,0.6528560500113347,0.981148898601532,0.0989968329668045,-0.1659718900918961,31.4873046875,22.70360946655273,5.737701416015625,2,12212.23233375,2,0,1580908496.4735,1580903939.50652,2854,0.4894773,0.3954083,2.068121,3412.259,14,15,1580908493.658015,12210.822006,0,13.6423,97.04472
1580908497.679672,49,0,1580907286.99823,41.20781296037784,29.0754925099451,275.2123,0.1345286,-1,23.46983528137207,200,-9999,12213.47685379167,0.971527099609375,0.1027984619140625,-0.17132568359375,12213.46681379167,1.174067042057137,1.402673090813417,-0.09914817390489244,0.006746841594576836,-0.05140312761068344,0.000433601438999176,-0.01391363143920898,0.001445621252059937,-0.009495139122009277,2,-0.3884750738230786,0.5155888296746158,0.3960228394490611,0.6530093548288258,0.981058657169342,0.09898581355810165,-0.1665105521678925,31.57844543457031,22.55476379394531,5.5555419921875,2,12212.23233375,2,0,1580908496.4735,1580903939.50652,2854,0.4894773,0.3954083,2.068121,3412.259,14,15,1580908493.658015,12210.822006,0,13.6423,97.04472
1580908497.689561,50,0,1580907286.99823,41.20781296037784,29.0754925099451,275.2123,0.1345286,-1,23.46983528137207,200,-9999,12213.48689479167,0.9690704345703125,0.1017608642578125,-0.173095703125,12213.47685379167,1.173973633902041,1.401944095699393,-0.09911070081849115,0.01003797724843025,-0.07077975571155548,0.003488779999315739,-0.01312392950057983,0.003268301486968994,-0.007220566272735596,2,-0.3882950499530972,0.5153773322349202,0.396144347593021,0.6532096598231754,0.9809406995773315,0.09894852340221405,-0.1672263145446777,31.57844543457031,22.55476379394531,5.5555419921875,2,12212.23233375,2,0,1580908496.4735,1580903939.50652,2854,0.4894773,0.3954083,2.068121,3412.259,14,15,1580908493.658015,12210.822006,0,13.6423,97.04472
1580908497.699638,51,0,1580907286.99823,41.20781296037784,29.0754925099451,275.2123,0.1345286,-1,23.46983528137207,200,-9999,12213.49693479167,0.9671630859375,0.10357666015625,-0.1749725341796875,12213.48689479167,1.173851091536094,1.401109431981697,-0.09906860685470338,0.01240569166839123,-0.0802854523062706,0.001813015900552273,-0.01475763320922852,0.002394884824752808,-0.007603585720062256,2,-0.3880851175709584,0.5151379238244019,0.3962780505640676,0.6534421379558714,0.9808048605918884,0.09890663623809814,-0.1680457144975662,31.53458404541016,22.73843383789062,5.491363525390625,2,12212.23233375,2,0,1580908496.4735,1580903939.50652,2854,0.4894773,0.3954083,2.068121,3412.259,14,15,1580908493.658015,12210.822006,0,13.6423,97.04472
1580908497.731604,52,0,1580907286.99823,41.20781296037784,29.0754925099451,275.2123,0.1345286,-1,23.46983528137207,200,-9999,12213.50697479167,0.96356201171875,0.09912109375,-0.1763763427734375,12213.49693479167,1.173709847943982,1.400179184840326,-0.09901963854188595,0.01345897279679775,-0.09102385491132736,0.00248786062002182,-0.01693987846374512,0.00418323278427124,-0.008838891983032227,2,-0.3878492765125381,0.5148723265637414,0.3964259745554779,0.6537016612642441,0.9806528687477112,0.09885790199041367,-0.1689588576555252,31.53458404541016,22.73843383789062,5.491363525390625,2,12212.23233375,2,0,1580908496.4735,1580903939.50652,2854,0.4894773,0.3954083,2.068121,3412.259,14,15,1580908493.658015,12210.822006,0,13.6423,97.04472
1580908497.7328,53,0,1580907286.99823,41.20781296037784,29.0754925099451,275.2123,0.1345286,-1,23.46983528137207,200,-9999,12213.51701579167,0.9571685791015625,0.095001220703125,-0.18121337890625,12213.50697479167,1.17357685223572,1.399208345396477,-0.09897813923979791,0.01352299004793167,-0.09665688872337341,0.001729762181639671,-0.01983070373535156,0.0007609128952026367,-0.009057760238647461,2,-0.3876097313636436,0.5145900588432462,0.3965822623173549,0.6539711820555081,0.9804924130439758,0.09881661087274551,-0.1699115335941315,31.4322509765625,22.52024459838867,5.526031494140625,2,12212.23233375,2,0,1580908496.4735,1580903939.50652,2854,0.4894773,0.3954083,2.068121,3412.259,14,15,1580908493.658015,12210.822006,0,13.6423,97.04472
1580908497.73395,54,0,1580907286.99823,41.20781296037784,29.0754925099451,275.2123,0.1345286,-1,23.46983528137207,200,-9999,12213.52708579167,0.9531402587890625,0.095977783203125,-0.183929443359375,12213.51701579167,1.173474302405448,1.398313997362842,-0.09894732037417314,0.01021694205701351,-0.08837153017520905,0.001937755383551121,-0.02628791332244873,-0.004243642091751099,-0.01284658908843994,2,-0.3873964595244941,0.5143243550542208,0.3967305710762457,0.6542165250216678,0.9803430438041687,0.09878594428300858,-0.1707888841629028,31.4322509765625,22.52024459838867,5.526031494140625,2,12212.23233375,2,0,1580908496.4735,1580903939.50652,2854,0.4894773,0.3954083,2.068121,3412.259,14,15,1580908493.658015,12210.822006,0,13.6423,97.04472
1580908497.739815,55,0,1580907286.99823,41.20781296037784,29.0754925099451,275.2123,0.1345286,-1,23.46983528137207,200,-9999,12213.53712679167,0.947418212890625,0.0936431884765625,-0.185577392578125,12213.52708579167,1.173381631396004,1.397575589880475,-0.09895955197439008,0.008609723299741745,-0.07156432420015335,-0.003336635418236256,-0.03006625175476074,-0.003096282482147217,-0.01492798328399658,2,-0.3872299162537279,0.5140979769085634,0.3968398526966916,0.6544267659345427,0.9802154898643494,0.09879811108112335,-0.1715125292539597,31.52626037597656,22.39931106567383,5.501251220703125,2,12212.23233375,2,0,1580908496.4735,1580903939.50652,2854,0.4894773,0.3954083,2.068121,3412.259,14,15,1580908493.658015,12210.822006,0,13.6423,97.04472
1580908497.750005,56,0,1580907286.99823,41.20781296037784,29.0754925099451,275.2123,0.1345286,-1,23.46983528137207,200,-9999,12213.54716679167,0.93988037109375,0.0910186767578125,-0.1915435791015625,12213.53712679167,1.173320580757768,1.397074114549618,-0.09900867547594053,0.006426997482776642,-0.05096210911870003,-0.005426418036222458,-0.03542244434356689,-0.0052509605884552,-0.01638877391815186,2,-0.3871299400340346,0.5139346307593751,0.3969032929983412,0.6545756837451682,0.9801245331764221,0.09884699434041977,-0.1720032095909119,31.52626037597656,22.39931106567383,5.501251220703125,2,12212.23233375,2,0,1580908496.4735,1580903939.50652,2854,0.4894773,0.3954083,2.068121,3412.259,14,15,1580908493.658015,12210.822006,0,13.6423,97.04472
1580908497.759944,57,0,1580907286.99823,41.20781296037784,29.0754925099451,275.2123,0.1345286,-1,23.46983528137207,200,-9999,12213.55720679167,0.9470977783203125,0.0970916748046875,-0.188262939453125,12213.54716679167,1.173272283500607,1.396947167562395,-0.09909152300323226,0.00372763630002737,-0.009592819027602673,-0.00869112741202116,-0.04338794946670532,-0.008507579565048218,-0.02197211980819702,2,-0.3871179961670012,0.5138837905843753,0.3968890294985091,0.6546313010968843,0.9800946116447449,0.09892943501472473,-0.1721262186765671,31.63554382324219,22.56327629089355,5.307098388671875,2,12212.23233375,2,0,1580908496.4735,1580903939.50652,2854,0.4894773,0.3954083,2.068121,3412.259,14,15,1580908493.658015,12210.822006,0,13.6423,97.04472
1580908497.791459,58,0,1580907286.99823,41.20781296037784,29.0754925099451,275.2123,0.1345286,-1,23.46983528137207,200,-9999,12213.56724679167,0.957366943359375,0.0961761474609375,-0.1831207275390625,12213.55720679167,1.173221000960718,1.39702100210589,-0.09917506558691529,0.003701803274452686,0.007290823385119438,-0.01002643629908562,-0.03773152828216553,-0.002395957708358765,-0.01984888315200806,2,-0.3871453243636235,0.5138990988815232,0.3968347387756842,0.6546360849769728,0.9800992012023926,0.09901256859302521,-0.1720524281263351,31.63554382324219,22.56327629089355,5.307098388671875,2,12212.23233375,2,0,1580908496.4735,1580903939.50652,2854,0.4894773,0.3954083,2.068121,3412.259,14,15,1580908493.658015,12210.822006,0,13.6423,97.04472
1580908497.792792,59,0,1580907286.99823,41.20781296037784,29.0754925099451,275.2123,0.1345286,-1,23.46983528137207,200,-9999,12213.57728779167,0.965728759765625,0.0997772216796875,-0.179443359375,12213.56724679167,1.173189975595876,1.397129827267428,-0.09925043370294714,0.001896809786558151,0.01159759610891342,-0.007813027128577232,-0.0268787145614624,-0.003325670957565308,-0.01441824436187744,2,-0.3871822798167041,0.5139237713239239,0.3967825677717753,0.6546264908778476,0.9801105856895447,0.09908756613731384,-0.1719444841146469,31.57337188720703,22.58883857727051,5.10369873046875,2,12212.23233375,2,0,1580908496.4735,1580903939.50652,2854,0.4894773,0.3954083,2.068121,3412.259,14,15,1580908493.658015,12210.822006,0,13.6423,97.04472
1580908497.794001,60,0,1580907286.99823,41.20781296037784,29.0754925099451,275.2123,0.1345286,-1,23.46983528137207,200,-9999,12213.58732779167,0.9661102294921875,0.098358154296875,-0.1781463623046875,12213.57728779167,1.17316971131506,1.397148343540123,-0.09932440028712705,0.0005447221919894218,0.001717269420623779,-0.006480913609266281,-0.01843655109405518,0.000125199556350708,-0.01077568531036377,2,-0.3872036547415662,0.5139171129539098,0.3967517859369899,0.6546377183607917,0.9801065325737,0.09916117042303085,-0.1719250679016113,31.57337188720703,22.58883857727051,5.10369873046875,2,12212.23233375,2,0,1580908496.4735,1580903939.50652,2854,0.4894773,0.3954083,2.068121,3412.259,14,15,1580908493.658015,12210.822006,0,13.6423,97.04472
1580908497.800072,61,0,1580907286.99823,41.20781296037784,29.0754925099451,275.2123,0.1345286,-1,23.46983528137207,200,-9999,12213.59736779167,0.9647369384765625,0.1002197265625,-0.1800537109375,12213.58732779167,1.173148146779782,1.397077695290112,-0.09940969335190293,9.62279736995697e-05,-0.006926385685801506,-0.008944082073867321,-0.01742410659790039,-0.001318007707595825,-0.009258151054382324,2,-0.3872105315487773,0.513878963609518,0.3967346845379246,0.654673901458629,0.9800859689712524,0.09924603998661041,-0.1719928234815598,31.58716583251953,22.68848037719727,5.44091796875,2,12212.23233375,2,0,1580908496.4735,1580903939.50652,2854,0.4894773,0.3954083,2.068121,3412.259,14,15,1580908493.658015,12210.822006,0,13.6423,97.04472
1580908497.810105,62,0,1580907286.99823,41.20781296037784,29.0754925099451,275.2123,0.1345286,-1,23.46983528137207,200,-9999,12213.60740879167,0.9620361328125,0.09869384765625,-0.1819000244140625,12213.59736779167,1.173125802263855,1.3969561317491,-0.09948729748316629,8.131470531225204e-05,-0.01230756938457489,-0.008175227791070938,-0.01852476596832275,0.0006186366081237793,-0.01071149110794067,2,-0.3872046780094945,0.5138260505079202,0.3967293440412668,0.6547222117165282,0.9800575971603394,0.09932326525449753,-0.1721106469631195,31.58716583251953,22.68848037719727,5.44091796875,2,12212.23233375,2,0,1580908496.4735,1580903939.50652,2854,0.4894773,0.3954083,2.068121,3412.259,14,15,1580908493.658015,12210.822006,0,13.6423,97.04472
1580908497.820198,63,0,1580907286.99823,41.20781296037784,29.0754925099451,275.2123,0.1345286,-1,23.46983528137207,200,-9999,12213.61744879167,0.9603118896484375,0.0988006591796875,-0.1829833984375,12213.60740879167,1.17311164101771,1.396812009690823,-0.09954872310298103,0.0002614418044686317,-0.01508063450455666,-0.006488004699349403,-0.02128612995147705,-0.001014351844787598,-0.01260018348693848,2,-0.3871914934320733,0.5137677791589164,0.3967355259869002,0.6547719318537708,0.9800266623497009,0.09938438236713409,-0.1722508370876312,31.68019866943359,22.80589866638184,5.28009033203125,2,12212.23233375,2,0,1580908496.4735,1580903939.50652,2854,0.4894773,0.3954083,2.068121,3412.259,14,15,1580908493.658015,12210.822006,0,13.6423,97.04472
1580908497.848568,64,0,1580907286.99823,41.20781296037784,29.0754925099451,275.2123,0.1345286,-1,23.46983528137207,200,-9999,12213.62751979167,0.9567413330078125,0.0984039306640625,-0.1844940185546875,12213.61744879167,1.173104835190588,1.396691595619765,-0.09959609358893104,-0.0003912998363375664,-0.01187232416123152,-0.004749493207782507,-0.02293902635574341,-0.0008327662944793701,-0.0133979320526123,2,-0.3871804667621193,0.5137190450271033,0.3967434676800456,0.6548120503960385,0.9800015091896057,0.09943152219057083,-0.1723680645227432,31.68019866943359,22.80589866638184,5.28009033203125,2,12212.23233375,2,0,1580908496.4735,1580903939.50652,2854,0.4894773,0.3954083,2.068121,3412.259,14,15,1580908493.658015,12210.822006,0,13.6423,97.04472
1580908497.849808,65,0,1580907286.99823,41.20781296037784,29.0754925099451,275.2123,0.1345286,-1,23.46983528137207,200,-9999,12213.63755979167,0.9593505859375,0.0963134765625,-0.18524169921875,12213.62751979167,1.173115435099841,1.396659385638513,-0.09965597944459231,-0.002886710688471794,-0.002027135342359543,-0.005505884066224098,-0.02636075019836426,-0.001258760690689087,-0.01486259698867798,2,-0.3871953620612921,0.5136929628234712,0.3967365211192316,0.6548278679641268,0.9799900054931641,0.09949111193418503,-0.1723985821008682,31.46552276611328,22.70565032958984,5.463287353515625,2,12212.23233375,2,0,1580908496.4735,1580903939.50652,2854,0.4894773,0.3954083,2.068121,3412.259,14,15,1580908493.658015,12210.822006,0,13.6423,97.04472
1580908497.85126,66,0,1580907286.99823,41.20781296037784,29.0754925099451,275.2123,0.1345286,-1,23.46983528137207,200,-9999,12213.64759979167,0.9594573974609375,0.0995025634765625,-0.1816253662109375,12213.63755979167,1.173118588283822,1.396669136914174,-0.09973333904791393,-0.0001202188432216644,0.001580914482474327,-0.007753325626254082,-0.02476775646209717,-0.003685861825942993,-0.01600277423858643,2,-0.3872221044850879,0.5136781153859311,0.3967141449541295,0.6548371427178381,0.9799839854240417,0.09956808388233185,-0.1723876744508743,31.46552276611328,22.70565032958984,5.463287353515625,2,12212.23233375,2,0,1580908496.4735,1580903939.50652,2854,0.4894773,0.3954083,2.068121,3412.259,14,15,1580908493.658015,12210.822006,0,13.6423,97.04472
1580908497.860636,67,0,1580907286.99823,41.20781296037784,29.0754925099451,275.2123,0.1345286,-1,23.46983528137207,200,-9999,12213.65764079167,0.960174560546875,0.1003570556640625,-0.1818389892578125,12213.64759979167,1.173137012356225,1.396686292926592,-0.09978926056520598,-0.002063651103526354,0.003415670245885849,-0.005142471753060818,-0.02413976192474365,-0.0008425414562225342,-0.01231259107589722,2,-0.3872475062212198,0.5136676052112907,0.3967013322815648,0.6548382705411004,0.9799816012382507,0.09962372481822968,-0.1723699271678925,31.63473510742188,22.77052688598633,5.268035888671875,2,12212.23233375,2,0,1580908496.4735,1580903939.50652,2854,0.4894773,0.3954083,2.068121,3412.259,14,15,1580908493.658015,12210.822006,0,13.6423,97.04472
1580908497.870375,68,0,1580907286.99823,41.20781296037784,29.0754925099451,275.2123,0.1345286,-1,23.46983528137207,200,-9999,12213.66768079167,0.954315185546875,0.099365234375,-0.1843109130859375,12213.65764079167,1.173156723638384,1.39669177117439,-0.09983426447372379,-0.002197075635194778,-0.0006254110485315323,-0.003579995129257441,-0.02308344841003418,0.0003789961338043213,-0.01221203804016113,2,-0.3872676030399613,0.5136554478660184,0.3966942103903267,0.6548402039880178,0.979978084564209,0.09966851025819778,-0.1723637729883194,31.63473510742188,22.77052688598633,5.268035888671875,2,12212.23233375,2,0,1580908496.4735,1580903939.50652,2854,0.4894773,0.3954083,2.068121,3412.259,14,15,1580908493.658015,12210.822006,0,13.6423,97.04472
1580908497.88049,69,0,1580907286.99823,41.20781296037784,29.0754925099451,275.2123,0.1345286,-1,23.46983528137207,200,-9999,12213.67772079167,0.954254150390625,0.0984954833984375,-0.1843109130859375,12213.66768079167,1.173175160383131,1.396785988673261,-0.09986191017803872,-0.002873982768505812,0.008872853592038155,-0.001865663565695286,-0.02851396799087524,-0.0006861984729766846,-0.01476210355758667,2,-0.3872996332191365,0.5136764804507061,0.3966742973472118,0.6548166924722286,0.9799914956092834,0.09969601780176163,-0.1722709387540817,31.50373840332031,22.67969131469727,5.336578369140625,2,12212.23233375,2,0,1580908496.4735,1580903939.50652,2854,0.4894773,0.3954083,2.068121,3412.259,14,15,1580908493.658015,12210.822006,0,13.6423,97.04472
1580908497.910084,70,0,1580907286.99823,41.20781296037784,29.0754925099451,275.2123,0.1345286,-1,23.46983528137207,200,-9999,12213.68776079167,0.952301025390625,0.0974884033203125,-0.1860809326171875,12213.67772079167,1.173191417298858,1.396979790913387,-0.09987795125490827,-0.001534678973257542,0.01886423490941525,-0.001026501879096031,-0.02949202060699463,-0.001404166221618652,-0.0152275562286377,2,-0.3873471763659267,0.5137331896622652,0.3966376431531853,0.6547663839545685,0.9800233840942383,0.09971197694540024,-0.1720807552337646,31.50373840332031,22.67969131469727,5.336578369140625,2,12212.23233375,2,0,1580908496.4735,1580903939.50652,2854,0.4894773,0.3954083,2.068121,3412.259,14,15,1580908493.658015,12210.822006,0,13.6423,97.04472
1580908497.911456,71,0,1580907286.99823,41.20781296037784,29.0754925099451,275.2123,0.1345286,-1,23.46983528137207,200,-9999,12213.69780179167,0.95001220703125,0.0978546142578125,-0.187347412109375,12213.68776079167,1.173233503031408,1.397331227835177,-0.09989711305948243,-0.004600830376148224,0.0339198149740696,-0.0003628949634730816,-0.03069525957107544,-0.002674460411071777,-0.01699280738830566,2,-0.3874336535151537,0.5138357508627335,0.3965780029048508,0.6546707421750985,0.9800817966461182,0.09973104298114777,-0.1717359721660614,31.31014251708984,22.75091361999512,5.347564697265625,2,12212.23233375,2,0,1580908496.4735,1580903939.50652,2854,0.4894773,0.3954083,2.068121,3412.259,14,15,1580908493.658015,12210.822006,0,13.6423,97.04472
1580908497.912542,72,0,1580907286.99823,41.20781296037784,29.0754925099451,275.2123,0.1345286,-1,23.46983528137207,200,-9999,12213.70784179167,0.9539337158203125,0.09619140625,-0.1845855712890625,12213.69780179167,1.173300922576849,1.397876993736207,-0.09992280270143293,-0.007326309103518724,0.05499926581978798,-0.001324295997619629,-0.03386878967285156,-0.002333939075469971,-0.01934570074081421,2,-0.3875670841690272,0.5139955614697267,0.396487203937824,0.6545214382830704,0.9801729917526245,0.09975660592317581,-0.1712006330490112,31.31014251708984,22.75091361999512,5.347564697265625,2,12212.23233375,2,0,1580908496.4735,1580903939.50652,2854,0.4894773,0.3954083,2.068121,3412.259,14,15,1580908493.658015,12210.822006,0,13.6423,97.04472
1580908497.920689,73,0,1580907286.99823,41.20781296037784,29.0754925099451,275.2123,0.1345286,-1,23.46983528137207,200,-9999,12213.71791279167,0.9497222900390625,0.0980224609375,-0.1855621337890625,12213.70784179167,1.173396468371636,1.398544886416968,-0.09993063325500598,-0.009558564983308315,0.06606156378984451,0.0006999792531132698,-0.02987802028656006,-0.003867626190185547,-0.01731723546981812,2,-0.3877264527398103,0.5141938255528127,0.3963868372513927,0.6543320956194143,0.9802863597869873,0.09976439923048019,-0.1705458164215088,31.40182495117188,22.75461769104004,5.433441162109375,2,12212.23233375,2,0,1580908496.4735,1580903939.50652,2854,0.4894773,0.3954083,2.068121,3412.259,14,15,1580908493.658015,12210.822006,0,13.6423,97.04472
1580908497.930729,74,0,1580907286.99823,41.20781296037784,29.0754925099451,275.2123,0.1345286,-1,23.46983528137207,200,-9999,12213.72795279167,0.9493255615234375,0.0986328125,-0.184722900390625,12213.71791279167,1.173504815256543,1.399391895933646,-0.09989739863032476,-0.009497311897575855,0.0827593207359314,0.005682754330337048,-0.03338301181793213,-0.00221705436706543,-0.0185316801071167,2,-0.3879119071204696,0.5144573402793821,0.3962672740306921,0.6540873503644843,0.9804336428642273,0.09973132610321045,-0.1697160005569458,31.40182495117188,22.75461769104004,5.433441162109375,2,12212.23233375,2,0,1580908496.4735,1580903939.50652,2854,0.4894773,0.3954083,2.068121,3412.259,14,15,1580908493.658015,12210.822006,0,13.6423,97.04472
1580908497.94067,75,0,1580907286.99823,41.20781296037784,29.0754925099451,275.2123,0.1345286,-1,23.46983528137207,200,-9999,12213.73799279167,0.959075927734375,0.0985260009765625,-0.179718017578125,12213.72795279167,1.173621791205314,1.400408114386545,-0.09983416481720067,-0.009603949263691902,0.1018098518252373,0.008208651095628738,-0.0355454683303833,-0.001329928636550903,-0.01930177211761475,2,-0.3881237492043849,0.5147811474898691,0.3961259812418821,0.6537924875326517,0.9806119203567505,0.09966840595006943,-0.1687206476926804,31.42066192626953,22.78641128540039,5.4254150390625,2,12212.23233375,2,0,1580908496.4735,1580903939.50652,2854,0.4894773,0.3954083,2.068121,3412.259,14,15,1580908493.658015,12210.822006,0,13.6423,97.04472
1580908497.972031,76,0,1580907286.99823,41.20781296037784,29.0754925099451,275.2123,0.1345286,-1,23.46983528137207,200,-9999,12213.74803379167,0.9632110595703125,0.1002044677734375,-0.1774444580078125,12213.73799279167,1.173759454569643,1.401443698074433,-0.09975612949016091,-0.01266472041606903,0.1025363579392433,0.009697357192635536,-0.0261458158493042,-0.001450389623641968,-0.01551324129104614,2,-0.3883401345087214,0.5151104267727875,0.3959916976813104,0.6534859794130674,0.980793833732605,0.09959076344966888,-0.1677063703536987,31.42066192626953,22.78641128540039,5.4254150390625,2,12212.23233375,2,0,1580908496.4735,1580903939.50652,2854,0.4894773,0.3954083,2.068121,3412.259,14,15,1580908493.658015,12210.822006,0,13.6423,97.04472
1580908497.973756,77,0,1580907286.99823,41.20781296037784,29.0754925099451,275.2123,0.1345286,-1,23.46983528137207,200,-9999,12213.75807379167,0.964996337890625,0.0994720458984375,-0.176544189453125,12213.74803379167,1.173879752981903,1.402486934097531,-0.09967691675494883,-0.01100458856672049,0.1043048277497292,0.01049358770251274,-0.02164405584335327,3.251433372497559e-05,-0.01365506649017334,2,-0.3885532325441191,0.5154456278284593,0.3958504317093067,0.6531803731769539,0.980975866317749,0.09951194375753403,-0.1666843742132187,31.59487152099609,22.80180168151855,5.6053466796875,2,12212.23233375,2,0,1580908496.4735,1580903939.50652,2854,0.4894773,0.3954083,2.068121,3412.259,14,15,1580908493.658015,12210.822006,0,13.6423,97.04472
1580908497.975388,78,0,1580907286.99823,41.20781296037784,29.0754925099451,275.2123,0.1345286,-1,23.46983528137207,200,-9999,12213.76811379167,0.966064453125,0.0977325439453125,-0.1745758056640625,12213.75807379167,1.173996585211653,1.40350970270728,-0.09962338262136773,-0.01188156753778458,0.1025300994515419,0.007702328264713287,-0.01972955465316772,-8.186697959899902e-05,-0.01397460699081421,2,-0.388769239677504,0.5157688909544644,0.3957047449795166,0.6528848180775926,0.9811510443687439,0.09945867210626602,-0.165681853890419,31.59487152099609,22.80180168151855,5.6053466796875,2,12212.23233375,2,0,1580908496.4735,1580903939.50652,2854,0.4894773,0.3954083,2.068121,3412.259,14,15,1580908493.658015,12210.822006,0,13.6423,97.04472
1580908497.980945,79,0,1580907286.99823,41.20781296037784,29.0754925099451,275.2123,0.1345286,-1,23.46983528137207,200,-9999,12213.77815379167,0.963592529296875,0.0996551513671875,-0.17388916015625,12213.76811379167,1.174124117164965,1.404483058834515,-0.09956998271520058,-0.01201975531876087,0.09583550691604614,0.008359065279364586,-0.01878213882446289,-0.001951068639755249,-0.01271945238113403,2,-0.3889781741223646,0.5160737796926613,0.395572025570334,0.6525999053021095,0.9813171625137329,0.09940554201602936,-0.1647276729345322,31.34442138671875,22.86371612548828,5.658172607421875,2,12212.23233375,2,0,1580908496.4735,1580903939.50652,2854,0.4894773,0.3954083,2.068121,3412.259,14,15,1580908493.658015,12210.822006,0,13.6423,97.04472
1580908497.990936,80,0,1580907286.99823,41.20781296037784,29.0754925099451,275.2123,0.1345286,-1,23.46983528137207,200,-9999,12213.78819479167,0.9648284912109375,0.0999603271484375,-0.171722412109375,12213.77815379167,1.174244776667345,1.405466066638753,-0.09951350589149406,-0.009969919919967651,0.09792821854352951,0.007104449905455112,-0.02131497859954834,-0.0002162754535675049,-0.01335114240646362,2,-0.3891862761200094,0.5163836788375444,0.3954359245013248,0.6523131559602262,0.9814841747283936,0.09934934228658676,-0.1637638807296753,31.34442138671875,22.86371612548828,5.658172607421875,2,12212.23233375,2,0,1580908496.4735,1580903939.50652,2854,0.4894773,0.3954083,2.068121,3412.259,14,15,1580908493.658015,12210.822006,0,13.6423,97.04472
1580908498.000996,81,0,1580907286.99823,41.20781296037784,29.0754925099451,275.2123,0.1345286,-1,23.46983528137207,200,-9999,12213.79823479167,0.964385986328125,0.0998382568359375,-0.1713714599609375,12213.78819479167,1.174369826243357,1.406407058618079,-0.09944426249322952,-0.01096956990659237,0.09396205842494965,0.008932813070714474,-0.02059108018875122,0.0002954304218292236,-0.01221716403961182,2,-0.3893832852281109,0.5166817064579843,0.3953128669444103,0.652034014740218,0.9816445112228394,0.09928043931722641,-0.1628413498401642,31.52375793457031,22.89781951904297,5.825164794921875,2,12212.23233375,2,0,1580908496.4735,1580903939.50652,2854,0.4894773,0.3954083,2.068121,3412.259,14,15,1580908493.658015,12210.822006,0,13.6423,97.04472
1580908498.03345,82,0,1580907286.99823,41.20781296037784,29.0754925099451,275.2123,0.1345286,-1,23.46983528137207,200,-9999,12213.80827479167,0.9606475830078125,0.099517822265625,-0.171966552734375,12213.79823479167,1.174495553721472,1.407294313673747,-0.0993517538853806,-0.01161245722323656,0.08769829571247101,0.01196109410375357,-0.02072972059249878,0.0001892745494842529,-0.01243394613265991,2,-0.3895626378639283,0.5169671696657243,0.3952069049825817,0.6517647343165481,0.9817976355552673,0.09918838739395142,-0.1619717925786972,31.52375793457031,22.89781951904297,5.825164794921875,2,12212.23233375,2,0,1580908496.4735,1580903939.50652,2854,0.4894773,0.3954083,2.068121,3412.259,14,15,1580908493.658015,12210.822006,0,13.6423,97.04472
1580908498.034816,83,0,1580907286.99823,41.20781296037784,29.0754925099451,275.2123,0.1345286,-1,23.46983528137207,200,-9999,12213.81834579167,0.9570770263671875,0.098052978515625,-0.1729278564453125,12213.80827479167,1.17460073672555,1.408198118853871,-0.09926359420990978,-0.009119962342083454,0.09113939851522446,0.009841270744800568,-0.0244249701499939,0.000140070915222168,-0.01391822099685669,2,-0.3897412406230527,0.5172609296973016,0.3950897360818529,0.6514958878900825,0.9819522500038147,0.09910066425800323,-0.1610857993364334,31.46382904052734,22.8515567779541,5.561920166015625,2,12212.23233375,2,0,1580908496.4735,1580903939.50652,2854,0.4894773,0.3954083,2.068121,3412.259,14,15,1580908493.658015,12210.822006,0,13.6423,97.04472
1580908498.036043,84,0,1580907286.99823,41.20781296037784,29.0754925099451,275.2123,0.1345286,-1,23.46983528137207,200,-9999,12213.82838579167,0.94927978515625,0.0977783203125,-0.176605224609375,12213.81834579167,1.174711857016204,1.409191783399688,-0.0991667265707471,-0.00973009318113327,0.09644307941198349,0.01124342530965805,-0.02799731492996216,-0.0008924007415771484,-0.01547574996948242,2,-0.3899364100679995,0.517584610965508,0.3949593365182409,0.6512010772985701,0.9821213483810425,0.09900426864624023,-0.1601115316152573,31.46382904052734,22.8515567779541,5.561920166015625,2,12212.23233375,2,0,1580908496.4735,1580903939.50652,2854,0.4894773,0.3954083,2.068121,3412.259,14,15,1580908493.658015,12210.822006,0,13.6423,97.04472
1580908498.041106,85,0,1580907286.99823,41.20781296037784,29.0754925099451,275.2123,0.1345286,-1,23.46983528137207,200,-9999,12213.83842679167,0.950347900390625,0.0997467041015625,-0.1747589111328125,12213.82838579167,1.17484196704718,1.410418667300206,-0.09904889639572553,-0.011885866522789,0.1222475841641426,0.01365230791270733,-0.03580391407012939,-0.001537621021270752,-0.02055871486663818,2,-0.3901760581478515,0.5179850169484493,0.3947953858372307,0.6508385102434553,0.9823285937309265,0.09888701885938644,-0.15890833735466,31.48061370849609,22.78361892700195,5.840087890625,2,12212.23233375,2,0,1580908496.4735,1580903939.50652,2854,0.4894773,0.3954083,2.068121,3412.259,14,15,1580908493.658015,12210.822006,0,13.6423,97.04472
1580908498.051209,86,0,1580907286.99823,41.20781296037784,29.0754925099451,275.2123,0.1345286,-1,23.46983528137207,200,-9999,12213.84846679167,0.9546356201171875,0.1000823974609375,-0.169158935546875,12213.83842679167,1.174960373672964,1.411805141062827,-0.09890112622035936,-0.008285804651677608,0.1379996538162231,0.0165247917175293,-0.03628265857696533,0.0006393790245056152,-0.0209164023399353,2,-0.3904349479368844,0.5184460441389965,0.3946046891987522,0.6504315962426468,0.9825623035430908,0.09873997420072556,-0.1575485020875931,31.48061370849609,22.78361892700195,5.840087890625,2,12212.23233375,2,0,1580908496.4735,1580903939.50652,2854,0.4894773,0.3954083,2.068121,3412.259,14,15,1580908493.658015,12210.822006,0,13.6423,97.04472
1580908498.061144,87,0,1580907286.99823,41.20781296037784,29.0754925099451,275.2123,0.1345286,-1,23.46983528137207,200,-9999,12213.85850679167,0.9598541259765625,0.1016387939453125,-0.165557861328125,12213.84846679167,1.175072391247999,1.413262567224005,-0.09870091732066158,-0.007754383608698845,0.1445221602916718,0.02220942080020905,-0.03212171792984009,0.001053005456924438,-0.01653671264648438,2,-0.3906899139500471,0.5189428406437452,0.3944126073050516,0.6499987836892506,0.9828104972839355,0.09854073822498322,-0.1561194360256195,31.4710693359375,22.67712783813477,5.99066162109375,2,12212.23233375,2,0,1580908496.4735,1580903939.50652,2854,0.4894773,0.3954083,2.068121,3412.259,14,15,1580908493.658015,12210.822006,0,13.6423,97.04472
1580908498.091824,88,0,1580907286.99823,41.20781296037784,29.0754925099451,275.2123,0.1345286,-1,23.46983528137207,200,-9999,12213.86854679167,0.9663543701171875,0.099578857421875,-0.1634368896484375,12213.85850679167,1.17515725313492,1.414732547472502,-0.09846801298957218,-0.003866168670356274,0.1471728086471558,0.02388668060302734,-0.02739930152893066,0.002857208251953125,-0.0140005350112915,2,-0.3909302035972007,0.5194559748567906,0.3942182446652538,0.6495622583487985,0.9830616116523743,0.09830896556377411,-0.1546781361103058,31.35825347900391,22.8056755065918,6.01812744140625,2,12212.23233375,2,0,1580908496.4735,1580903939.50652,2854,0.4894773,0.3954083,2.068121,3412.259,14,15,1580908493.658015,12210.822006,0,13.6423,97.04472
1580908498.093372,89,0,1580907286.99823,41.20781296037784,29.0754925099451,275.2123,0.1345286,-1,23.46983528137207,200,-9999,12213.87858779167,0.9722900390625,0.0993804931640625,-0.1588592529296875,12213.86854679167,1.175244375624661,1.416127568668792,-0.09821485384857043,-0.004721628967672586,0.1397643536329269,0.02648240886628628,-0.02109348773956299,0.001553654670715332,-0.0134352445602417,2,-0.3911500480164626,0.5199484891658619,0.3940447995706131,0.6491409494106638,0.9833009839057922,0.09805703163146973,-0.1533104181289673,31.35825347900391,22.8056755065918,6.01812744140625,2,12212.23233375,2,0,1580908496.4735,1580903939.50652,2854,0.4894773,0.3954083,2.068121,3412.259,14,15,1580908493.658015,12210.822006,0,13.6423,97.04472
1580908498.094325,90,0,1580907286.99823,41.20781296037784,29.0754925099451,275.2123,0.1345286,-1,23.46983528137207,200,-9999,12213.88862779167,0.9715423583984375,0.09686279296875,-0.1594085693359375,12213.87858779167,1.175323213906388,1.417387456290782,-0.09796906696169903,-0.003871281631290913,0.1261313706636429,0.02565309964120388,-0.01505410671234131,0.001249849796295166,-0.01009726524353027,2,-0.391343347846107,0.5203967974085053,0.3938929066930169,0.64875721337456,0.9835171103477478,0.09781242161989212,-0.1520751118659973,31.26760864257812,22.59619140625,6.02374267578125,2,12212.23233375,2,0,1580908496.4735,1580903939.50652,2854,0.4894773,0.3954083,2.068121,3412.259,14,15,1580908493.658015,12210.822006,0,13.6423,97.04472
1580908498.101342,91,0,1580907286.99823,41.20781296037784,29.0754925099451,275.2123,0.1345286,-1,23.46983528137207,200,-9999,12213.89866779167,0.974609375,0.097259521484375,-0.158538818359375,12213.88862779167,1.175401802533472,1.418564573637533,-0.09774201628029842,-0.00459465105086565,0.1183287724852562,0.02475422993302345,-0.0156058669090271,-0.0007815957069396973,-0.01127082109451294,2,-0.3915259393951536,0.5208138843053589,0.3937517985184804,0.6483979949216101,0.9837174415588379,0.09758646041154861,-0.1509206742048264,31.26760864257812,22.59619140625,6.02374267578125,2,12212.23233375,2,0,1580908496.4735,1580903939.50652,2854,0.4894773,0.3954083,2.068121,3412.259,14,15,1580908493.658015,12210.822006,0,13.6423,97.04472
1580908498.111854,92,0,1580907286.99823,41.20781296037784,29.0754925099451,275.2123,0.1345286,-1,23.46983528137207,200,-9999,12213.90873879167,0.9811553955078125,0.099639892578125,-0.15338134765625,12213.89866779167,1.175464266779009,1.419614294603799,-0.09756174859534589,-0.00474085845053196,0.105866514146328,0.01946838572621346,-0.01346242427825928,-0.0007236897945404053,-0.01201492547988892,2,-0.3916936611797259,0.5211821066111555,0.3936171335977086,0.6480823103355378,0.9838925004005432,0.09740705043077469,-0.1498905718326569,31.34635162353516,22.64700889587402,6.069671630859375,2,12212.23233375,2,0,1580908496.4735,1580903939.50652,2854,0.4894773,0.3954083,2.068121,3412.259,14,15,1580908493.658015,12210.822006,0,13.6423,97.04472
1580908498.12145,93,0,1580907286.99823,41.20781296037784,29.0754925099451,275.2123,0.1345286,-1,23.46983528137207,200,-9999,12213.91877879167,0.9709625244140625,0.0988922119140625,-0.1549072265625,12213.90873879167,1.175517226420984,1.420435802955481,-0.09739931091264525,-0.002299000974744558,0.07998491078615189,0.01629310846328735,-0.006933450698852539,0.001895248889923096,-0.007757723331451416,2,-0.3918193038730067,0.5214741714518012,0.3935190696994851,0.6478310819549014,0.984031081199646,0.09724538773298264,-0.1490846425294876,31.34635162353516,22.64700889587402,6.069671630859375,2,12212.23233375,2,0,1580908496.4735,1580903939.50652,2854,0.4894773,0.3954083,2.068121,3412.259,14,15,1580908493.658015,12210.822006,0,13.6423,97.04472
1580908498.148744,94,0,1580907286.99823,41.20781296037784,29.0754925099451,275.2123,0.1345286,-1,23.46983528137207,200,-9999,12213.92881979167,0.9585113525390625,0.09674072265625,-0.16009521484375,12213.91877879167,1.175624096612371,1.421307506238926,-0.097124312146582,-0.007414134219288826,0.08564066886901855,0.02947788499295712,-0.01441431045532227,0.001635849475860596,-0.009011626243591309,2,-0.3919345030551934,0.5217968620993249,0.3934602033955888,0.6475371285727456,0.9841869473457336,0.09697168320417404,-0.1482307612895966,31.40065765380859,22.6779670715332,6.1148681640625,2,12212.23233375,2,0,1580908496.4735,1580903939.50652,2854,0.4894773,0.3954083,2.068121,3412.259,14,15,1580908493.658015,12210.822006,0,13.6423,97.04472
1580908498.15005,95,0,1580907286.99823,41.20781296037784,29.0754925099451,275.2123,0.1345286,-1,23.46983528137207,200,-9999,12213.93885979167,0.965850830078125,0.095611572265625,-0.155426025390625,12213.92881979167,1.175736392256036,1.42229492564272,-0.09677606528781244,-0.00539792887866497,0.09780901670455933,0.03404168039560318,-0.03003585338592529,-1.519918441772461e-05,-0.01594787836074829,2,-0.3920513999786838,0.5221721519035977,0.3934010179097377,0.6471998150095897,0.9843662977218628,0.09662507474422455,-0.1472638845443726,31.40065765380859,22.6779670715332,6.1148681640625,2,12212.23233375,2,0,1580908496.4735,1580903939.50652,2854,0.4894773,0.3954083,2.068121,3412.259,14,15,1580908493.658015,12210.822006,0,13.6423,97.04472
1580908498.151782,96,0,1580907286.99823,41.20781296037784,29.0754925099451,275.2123,0.1345286,-1,23.46983528137207,200,-9999,12213.94889979167,0.9744415283203125,0.094085693359375,-0.154754638671875,12213.93885979167,1.175858967054076,1.423301159648251,-0.09635776724390618,-0.005639743991196156,0.1036493256688118,0.04643230885267258,-0.02209091186523438,-0.000848621129989624,-0.01223611831665039,2,-0.3921533240841477,0.5225668888785775,0.3933611304535573,0.6468435926018616,0.9845538139343262,0.09620872884988785,-0.1462792307138443,31.42033386230469,22.6729850769043,6.324737548828125,2,12212.23233375,2,0,1580908496.4735,1580903939.50652,2854,0.4894773,0.3954083,2.068121,3412.259,14,15,1580908493.658015,12210.822006,0,13.6423,97.04472
1580908498.161633,97,0,1580907286.99823,41.20781296037784,29.0754925099451,275.2123,0.1345286,-1,23.46983528137207,200,-9999,12213.95894079167,0.982666015625,0.0935821533203125,-0.151641845703125,12213.94889979167,1.175980809299033,1.424051386311762,-0.09607295142539037,-0.007960934191942215,0.07119160890579224,0.02719869837164879,-0.01563632488250732,-0.002074748277664185,-0.01268357038497925,2,-0.3922455432015202,0.5228490669644319,0.393333617222987,0.6465764436767328,0.9846904873847961,0.0959252268075943,-0.1455445736646652,31.42033386230469,22.6729850769043,6.324737548828125,2,12212.23233375,2,0,1580908496.4735,1580903939.50652,2854,0.4894773,0.3954083,2.068121,3412.259,14,15,1580908493.658015,12210.822006,0,13.6423,97.04472
1580908498.171761,98,0,1580907286.99823,41.20781296037784,29.0754925099451,275.2123,0.1345286,-1,23.46983528137207,200,-9999,12213.96898079167,0.9941864013671875,0.0935821533203125,-0.147186279296875,12213.95894079167,1.176041721389923,1.424429715871604,-0.09605553564280002,-0.007938297465443611,0.04531900584697723,0.01034355163574219,-0.005835890769958496,-0.002392947673797607,-0.009318709373474121,2,-0.3923305572139968,0.5229632897765542,0.3932839985537753,0.6464626190710491,0.9847471117973328,0.09590788930654526,-0.1451722681522369,31.40178680419922,22.59965705871582,6.308624267578125,2,12212.23233375,2,0,1580908496.4735,1580903939.50652,2854,0.4894773,0.3954083,2.068121,3412.259,14,15,1580908493.658015,12210.822006,0,13.6423,97.04472
1580908498.181753,99,0,1580907286.99823,41.20781296037784,29.0754925099451,275.2123,0.1345286,-1,23.46983528137207,200,-9999,12213.97902079167,0.9681396484375,0.09515380859375,-0.1579742431640625,12213.96898079167,1.176149999755322,1.424440014764612,-0.09616492047755423,-0.01738161966204643,-0.01060427539050579,-0.006073513068258762,0.007127642631530762,-0.003021091222763062,-0.005805730819702148,2,-0.3923943469586927,0.5229210090137589,0.3932861690470434,0.6464567804895944,0.9847382307052612,0.0960167720913887,-0.145160585641861,31.40178680419922,22.59965705871582,6.308624267578125,2,12212.23233375,2,0,1580908496.4735,1580903939.50652,2854,0.4894773,0.3954083,2.068121,3412.259,14,15,1580908493.658015,12210.822006,0,13.6423,97.04472
1580908498.209518,100,0,1580907286.99823,41.20781296037784,29.0754925099451,275.2123,0.1345286,-1,23.46983528137207,200,-9999,12213.98906079167,0.98382568359375,0.096527099609375,-0.1486663818359375,12213.97902079167,1.176249256472129,1.424466519015709,-0.09633031519270975,-0.005830692127346992,-0.001594534143805504,-0.03445801511406898,-0.02011257410049438,-0.002163946628570557,-0.01482152938842773,2,-0.3924760537769864,0.5228732675165402,0.3932664814879924,0.6464578621345077,0.9847264289855957,0.09618140012025833,-0.1451321840286255,31.49732971191406,22.78108215332031,6.3375244140625,2,12212.23233375,2,0,1580908496.4735,1580903939.50652,2854,0.4894773,0.3954083,2.068121,3412.259,14,15,1580908493.658015,12210.822006,0,13.6423,97.04472
1580908498.210778,101,0,1580907286.99823,41.20781296037784,29.0754925099451,275.2123,0.1345286,-1,23.46983528137207,200,-9999,12213.99913179167,0.94024658203125,0.0960845947265625,-0.15966796875,12213.98906079167,1.176391939563963,1.424288285438178,-0.09652027147826533,-0.01505421660840511,-0.03612258285284042,-0.03471868485212326,-0.004672408103942871,-6.48796558380127e-05,-0.0072479248046875,2,-0.3925364531043875,0.5227452873824324,0.393294051968181,0.6465077259377833,0.9846822619438171,0.09637047350406647,-0.1453049927949905,31.49732971191406,22.78108215332031,6.3375244140625,2,12212.23233375,2,0,1580908496.4735,1580903939.50652,2854,0.4894773,0.3954083,2.068121,3412.259,14,15,1580908493.658015,12210.822006,0,13.6423,97.04472
1580908498.211913,102,0,1580907286.99823,41.20781296037784,29.0754925099451,275.2123,0.1345286,-1,23.46983528137207,200,-9999,12214.00917179167,0.9478912353515625,0.09674072265625,-0.159698486328125,12213.99913179167,1.176496122108878,1.424502640817775,-0.09657599588254835,-0.008832539431750774,0.02293274737894535,-0.01159845199435949,-0.04456961154937744,-0.0009293258190155029,-0.01565450429916382,2,-0.3926228337290091,0.5227817260555676,0.3932699742380691,0.6464405633094533,0.9847081899642944,0.09642594307661057,-0.1450931578874588,31.44760131835938,22.71051597595215,6.427398681640625,2,12212.23233375,2,0,1580908496.4735,1580903939.50652,2854,0.4894773,0.3954083,2.068121,3412.259,14,15,1580908493.658015,12210.822006,0,13.6423,97.04472
1580908498.222264,103,0,1580907286.99823,41.20781296037784,29.0754925099451,275.2123,0.1345286,-1,23.46983528137207,200,-9999,12214.01921279167,0.94171142578125,0.0950775146484375,-0.1628265380859375,12214.00917179167,1.176620652799985,1.424902435014054,-0.09657193146886184,-0.01406506262719631,0.0350176990032196,0.0008545434102416039,-0.04183590412139893,0.0003870725631713867,-0.01878082752227783,2,-0.3927327584988876,0.5228873887741399,0.3932328695238636,0.6463108817917853,0.9847664833068848,0.09642189741134644,-0.1446995139122009,31.44760131835938,22.71051597595215,6.427398681640625,2,12212.23233375,2,0,1580908496.4735,1580903939.50652,2854,0.4894773,0.3954083,2.068121,3412.259,14,15,1580908493.658015,12210.822006,0,13.6423,97.04472
1580908498.232043,104,0,1580907286.99823,41.20781296037784,29.0754925099451,275.2123,0.1345286,-1,23.46983528137207,200,-9999,12214.02925279167,0.951324462890625,0.1005096435546875,-0.15972900390625,12214.01921279167,1.176723477066339,1.425665816304636,-0.09652990195480991,-0.01000241097062826,0.07722879946231842,0.006435197778046131,-0.04549062252044678,-0.001981914043426514,-0.02118289470672607,2,-0.3928969083741271,0.5231231898498128,0.3931279868100361,0.646083976012227,0.9848805665969849,0.09638006240129471,-0.1439483016729355,31.43486785888672,22.41236686706543,6.454925537109375,2,12212.23233375,2,0,1580908496.4735,1580903939.50652,2854,0.4894773,0.3954083,2.068121,3412.259,14,15,1580908493.658015,12210.822006,0,13.6423,97.04472
1580908498.241953,105,0,1580907286.99823,41.20781296037784,29.0754925099451,275.2123,0.1345286,-1,23.46983528137207,200,-9999,12214.03929279167,0.9687042236328125,0.0965728759765625,-0.1524810791015625,12214.02925279167,1.176766924536726,1.426613620862938,-0.09647479907175432,-0.003003256395459175,0.09574824571609497,0.006041952408850193,-0.03946781158447266,0.003520607948303223,-0.02071511745452881,2,-0.393077712194706,0.5234330451608318,0.3929713139637446,0.6458182966050992,0.9850218296051025,0.09632521122694016,-0.143015518784523,31.43486785888672,22.41236686706543,6.454925537109375,2,12212.23233375,2,0,1580908496.4735,1580903939.50652,2854,0.4894773,0.3954083,2.068121,3412.259,14,15,1580908493.658015,12210.822006,0,13.6423,97.04472
1580908498.264889,106,0,1580907286.99823,41.20781296037784,29.0754925099451,275.2123,0.1345286,-1,23.46983528137207,200,-9999,12214.04933379167,0.9827423095703125,0.095245361328125,-0.146270751953125,12214.03929279167,1.17679269344096,1.427508730617386,-0.09641968604924589,-0.002498587593436241,0.0908818393945694,0.007222532294690609,-0.02130591869354248,0.0003712773323059082,-0.01409196853637695,2,-0.3932434445928154,0.5237292511589927,0.3928192276505297,0.6455698168115319,0.9851547479629517,0.0962703600525856,-0.1421345323324203,31.44092559814453,22.56882476806641,6.490509033203125,2,12212.23233375,2,0,1580908496.4735,1580903939.50652,2854,0.4894773,0.3954083,2.068121,3412.259,14,15,1580908493.658015,12210.822006,0,13.6423,97.04472
1580908498.266241,107,0,1580907286.99823,41.20781296037784,29.0754925099451,275.2123,0.1345286,-1,23.46983528137207,200,-9999,12214.05937379167,0.9895172119140625,0.0965423583984375,-0.142364501953125,12214.04933379167,1.176791303673025,1.428166443081407,-0.09642541619555137,0.001456570811569691,0.06569588929414749,0.0003066742792725563,-0.007406771183013916,-0.001358687877655029,-0.00842517614364624,2,-0.3933739622068175,0.5239405346648053,0.3926878322831427,0.6453988507350712,0.9852475523948669,0.09627605974674225,-0.1414864808320999,31.44092559814453,22.56882476806641,6.490509033203125,2,12212.23233375,2,0,1580908496.4735,1580903939.50652,2854,0.4894773,0.3954083,2.068121,3412.259,14,15,1580908493.658015,12210.822006,0,13.6423,97.04472
1580908498.272183,108,0,1580907286.99823,41.20781296037784,29.0754925099451,275.2123,0.1345286,-1,23.46983528137207,200,-9999,12214.06941379167,0.98272705078125,0.0984344482421875,-0.140838623046875,12214.05937379167,1.176784783726577,1.428489122745522,-0.09650464900741808,0.0007907804101705551,0.03300584852695465,-0.008582957088947296,0.0005964040756225586,-0.0002629756927490234,-0.004457950592041016,2,-0.3934598622998506,0.5240282602615853,0.3925998582665645,0.6453285520925425,0.9852853417396545,0.09635492414236069,-0.1411674320697784,31.39574432373047,22.52305603027344,6.37359619140625,2,12212.23233375,2,0,1580908496.4735,1580903939.50652,2854,0.4894773,0.3954083,2.068121,3412.259,14,15,1580908493.658015,12210.822006,0,13.6423,97.04472
1580908498.282183,109,0,1580907286.99823,41.20781296037784,29.0754925099451,275.2123,0.1345286,-1,23.46983528137207,200,-9999,12214.07945379167,0.9571075439453125,0.0990142822265625,-0.1516265869140625,12214.06941379167,1.176776760145491,1.428508392719988,-0.09659886727497971,0.0005063200369477272,0.0005739014595746994,-0.01141021214425564,-0.004646182060241699,0.001443475484848022,-0.002418041229248047,2,-0.3934902279470859,0.5240151184623322,0.3925669130104951,0.6453409300949031,0.9852793216705322,0.09644870460033417,-0.1411471962928772,31.39574432373047,22.52305603027344,6.37359619140625,2,12212.23233375,2,0,1580908496.4735,1580903939.50652,2854,0.4894773,0.3954083,2.068121,3412.259,14,15,1580908493.658015,12210.822006,0,13.6423,97.04472
1580908498.292311,110,0,1580907286.99823,41.20781296037784,29.0754925099451,275.2123,0.1345286,-1,23.46983528137207,200,-9999,12214.08949479167,0.93109130859375,0.099273681640625,-0.1616668701171875,12214.07945379167,1.176769663836142,1.428569377359455,-0.09659129019755715,0.001248809508979321,0.005355075001716614,0.001320229843258858,-0.02845931053161621,0.002488642930984497,-0.01203030347824097,2,-0.3934980526189784,0.5240378650985138,0.3925547520135482,0.6453250120874613,0.9852885603904724,0.09644116461277008,-0.1410872042179108,31.21464538574219,22.76081657409668,6.604400634765625,2,12212.23233375,2,0,1580908496.4735,1580903939.50652,2854,0.4894773,0.3954083,2.068121,3412.259,14,15,1580908493.658015,12210.822006,0,13.6423,97.04472
1580908498.302243,111,0,1580907286.99823,41.20781296037784,29.0754925099451,275.2123,0.1345286,-1,23.46983528137207,200,-9999,12214.09956579167,0.9289398193359375,0.0987701416015625,-0.1606597900390625,12214.08949479167,1.17675726950175,1.428983904823748,-0.09639903279423605,0.00395511370152235,0.04248912632465363,0.01885821111500263,-0.05632245540618896,0.002573877573013306,-0.02359169721603394,2,-0.3935175110048912,0.5242168276468393,0.3925234635612058,0.6451868026752767,0.9853652715682983,0.09624979645013809,-0.1406813710927963,31.21464538574219,22.76081657409668,6.604400634765625,2,12212.23233375,2,0,1580908496.4735,1580903939.50652,2854,0.4894773,0.3954083,2.068121,3412.259,14,15,1580908493.658015,12210.822006,0,13.6423,97.04472
1580908498.330359,112,0,1580907286.99823,41.20781296037784,29.0754925099451,275.2123,0.1345286,-1,23.46983528137207,200,-9999,12214.10960579167,0.9241180419921875,0.09820556640625,-0.1573944091796875,12214.09956579167,1.176779609491941,1.429766984666398,-0.09595674318281947,0.003658437170088291,0.0786183699965477,0.04278005659580231,-0.06007605791091919,0.002710521221160889,-0.02428394556045532,2,-0.3935421433232253,0.5245633830079115,0.3925014625923164,0.6449034149430457,0.985517144203186,0.09580955654382706,-0.1399156749248505,31.48231506347656,22.76927185058594,6.47808837890625,2,12212.23233375,2,0,1580908496.4735,1580903939.50652,2854,0.4894773,0.3954083,2.068121,3412.259,14,15,1580908493.658015,12210.822006,0,13.6423,97.04472
1580908498.331703,113,0,1580907286.99823,41.20781296037784,29.0754925099451,275.2123,0.1345286,-1,23.46983528137207,200,-9999,12214.11964579167,0.9269561767578125,0.103515625,-0.152496337890625,12214.10960579167,1.176865749435599,1.430879808769493,-0.09518777243145773,0.002188028767704964,0.1118811145424843,0.07633103430271149,-0.06447011232376099,0.002547979354858398,-0.02189505100250244,2,-0.393548626740493,0.5250761048266407,0.3925274415912019,0.644466297652288,0.9857449531555176,0.0950440913438797,-0.1388291269540787,31.48231506347656,22.76927185058594,6.47808837890625,2,12212.23233375,2,0,1580908496.4735,1580903939.50652,2854,0.4894773,0.3954083,2.068121,3412.259,14,15,1580908493.658015,12210.822006,0,13.6423,97.04472
1580908498.332895,114,0,1580907286.99823,41.20781296037784,29.0754925099451,275.2123,0.1345286,-1,23.46983528137207,200,-9999,12214.12968579167,0.95556640625,0.1000213623046875,-0.1438446044921875,12214.11964579167,1.177004496282974,1.432196801230175,-0.09402481695337764,0.001800006255507469,0.1321983635425568,0.1178821921348572,-0.06381583213806152,0.009035229682922363,-0.01862037181854248,2,-0.3934890394179288,0.5257312934528074,0.3926415461752615,0.6438987912607015,0.9860357642173767,0.09388633817434311,-0.1375459730625153,31.51548004150391,22.51747131347656,6.657745361328125,2,12212.23233375,2,0,1580908496.4735,1580903939.50652,2854,0.4894773,0.3954083,2.068121,3412.259,14,15,1580908493.658015,12210.822006,0,13.6423,97.04472
1580908498.342557,115,0,1580907286.99823,41.20781296037784,29.0754925099451,275.2123,0.1345286,-1,23.46983528137207,200,-9999,12214.13972679167,0.968963623046875,0.0929412841796875,-0.131439208984375,12214.12968579167,1.177125589607501,1.433360676431845,-0.09265838677075865,0.006859926506876945,0.1192574724555016,0.136636346578598,-0.0378267765045166,0.007928520441055298,-0.01194220781326294,2,-0.393332950073268,0.5263851641480197,0.3928376754461058,0.6433400818757762,0.9863213300704956,0.09252585470676422,-0.1364157050848007,31.51548004150391,22.51747131347656,6.657745361328125,2,12212.23233375,2,0,1580908496.4735,1580903939.50652,2854,0.4894773,0.3954083,2.068121,3412.259,14,15,1580908493.658015,12210.822006,0,13.6423,97.04472
1580908498.352497,116,0,1580907286.99823,41.20781296037784,29.0754925099451,275.2123,0.1345286,-1,23.46983528137207,200,-9999,12214.14976679167,0.9698333740234375,0.0895538330078125,-0.140289306640625,12214.13972679167,1.177279913211698,1.434116988554034,-0.09119811767187398,0.003173045814037323,0.07135839760303497,0.1457688510417938,-0.0204547643661499,0.002033114433288574,0.001182436943054199,2,-0.3930771096174883,0.5269216294941792,0.3931512229249953,0.6428656193017068,0.9865570664405823,0.09107175469398499,-0.1356879621744156,31.49501800537109,22.65748596191406,6.7305908203125,2,12212.23233375,2,0,1580908496.4735,1580903939.50652,2854,0.4894773,0.3954083,2.068121,3412.259,14,15,1580908493.658015,12210.822006,0,13.6423,97.04472
1580908498.362508,117,0,1580907286.99823,41.20781296037784,29.0754925099451,275.2123,0.1345286,-1,23.46983528137207,200,-9999,12214.15980679167,0.988739013671875,0.0904693603515625,-0.134552001953125,12214.14976679167,1.177492294470265,1.434640084830167,-0.08962221676742292,-0.0001768916845321655,0.05447003245353699,0.1603172272443771,-0.02202558517456055,-0.0001302659511566162,-0.007556140422821045,2,-0.3927556144872603,0.5273968479423906,0.3935618660507259,0.6424209421678091,0.9867688417434692,0.08950228989124298,-0.1351911872625351,31.49501800537109,22.65748596191406,6.7305908203125,2,12212.23233375,2,0,1580908496.4735,1580903939.50652,2854,0.4894773,0.3954083,2.068121,3412.259,14,15,1580908493.658015,12210.822006,0,13.6423,97.04472
1580908498.391424,118,0,1580907286.99823,41.20781296037784,29.0754925099451,275.2123,0.1345286,-1,23.46983528137207,200,-9999,12214.16984779167,0.980316162109375,0.087066650390625,-0.1399993896484375,12214.15980679167,1.177738708965466,1.434779033340036,-0.0880704495262956,-0.004927171859890223,0.009150754660367966,0.1553863883018494,-0.002283811569213867,0.002229601144790649,-0.002944767475128174,2,-0.3923748287187196,0.5277363199019836,0.3940518900096989,0.6420743555595598,0.9869239926338196,0.08795664459466934,-0.1350727379322052,31.66827392578125,22.48592185974121,6.72314453125,2,12212.23233375,2,0,1580908496.4735,1580903939.50652,2854,0.4894773,0.3954083,2.068121,3412.259,14,15,1580908493.658015,12210.822006,0,13.6423,97.04472
1580908498.393186,119,0,1580907286.99823,41.20781296037784,29.0754925099451,275.2123,0.1345286,-1,23.46983528137207,200,-9999,12214.17988779167,0.954132080078125,0.085723876953125,-0.1455078125,12214.16984779167,1.178007703221468,1.434696024134747,-0.08646955571191325,-0.005157371517270803,-0.009123394265770912,0.1606356352567673,-0.008789420127868652,0.001022458076477051,-0.007283806800842285,2,-0.3919411386701587,0.5280107447787081,0.3946062665067427,0.6417730731107343,0.9870510101318359,0.0863618403673172,-0.1351735889911652,31.66827392578125,22.48592185974121,6.72314453125,2,12212.23233375,2,0,1580908496.4735,1580903939.50652,2854,0.4894773,0.3954083,2.068121,3412.259,14,15,1580908493.658015,12211.765697,0,13.63171,97.04486
1580908498.394731,120,0,1580907286.99823,41.20781296037784,29.0754925099451,275.2123,0.1345286,-1,23.46983528137207,200,-9999,12214.18995879167,0.967010498046875,0.0661468505859375,-0.17010498046875,12214.17988779167,1.178195838284915,1.434886074050853,-0.08496801581666216,5.432404577732086e-06,0.008244410157203674,0.1549314111471176,-0.03328073024749756,0.001104801893234253,-0.0113760232925415,2,-0.391570160771066,0.5283664468286577,0.3950528682444944,0.6414318875414635,0.9872040152549744,0.08486581593751907,-0.1350034177303314,31.67779541015625,22.5236701965332,6.854217529296875,2,12212.23233375,2,0,1580908496.4735,1580903939.50652,2854,0.4894773,0.3954083,2.068121,3412.259,14,15,1580908493.658015,12211.765697,0,13.63171,97.04486
1580908498.402586,121,0,1580907286.99823,41.20781296037784,29.0754925099451,275.2123,0.1345286,-1,23.46983528137207,200,-9999,12214.19999879167,1.061935424804688,0.0692291259765625,-0.105560302734375,12214.18995879167,1.178149152162951,1.435469310437222,-0.08399398073255479,0.02364899590611458,0.07910839468240738,0.0956052839756012,-0.03086256980895996,-0.01644536852836609,-0.04024785757064819,2,-0.3913757767081337,0.5287775064392259,0.3951983728426591,0.6411220404361826,0.9873639941215515,0.0838952511548996,-0.134438693523407,31.67779541015625,22.5236701965332,6.854217529296875,2,12212.23233375,2,0,1580908496.4735,1580903939.50652,2854,0.4894773,0.3954083,2.068121,3412.259,14,15,1580908493.658015,12211.765697,0,13.63171,97.04486
1580908498.412804,122,0,1580907286.99823,41.20781296037784,29.0754925099451,275.2123,0.1345286,-1,23.46983528137207,200,-9999,12214.21003879167,1.014892578125,0.0866851806640625,-0.113250732421875,12214.19999879167,1.178165918761328,1.434657779960366,-0.08349240425047388,0.00139748677611351,-0.0879298597574234,0.04998533800244331,0.06535112857818604,-0.0160352885723114,0.02052891254425049,2,-0.3910666554557475,0.5286246850340116,0.3955038738901759,0.6412482994734388,0.9872961044311523,0.08339543640613556,-0.1352456212043762,31.64723968505859,22.36837196350098,6.92694091796875,2,12212.23233375,2,0,1580908496.4735,1580903939.50652,2854,0.4894773,0.3954083,2.068121,3412.259,14,15,1580908493.658015,12211.765697,0,13.63171,97.04486
1580908498.422764,123,0,1580907286.99823,41.20781296037784,29.0754925099451,275.2123,0.1345286,-1,23.46983528137207,200,-9999,12214.22007879167,0.9396514892578125,0.0889129638671875,-0.156158447265625,12214.21003879167,1.1780329308092,1.433082776733388,-0.0831751570395704,0.01810187473893166,-0.1616808921098709,0.02766961231827736,0.03451895713806152,0.002363622188568115,0.02555698156356812,2,-0.3906229308933976,0.5282155551991333,0.3958583951111797,0.6416372056457424,0.9871082305908203,0.08307928591966629,-0.1368041038513184,31.64723968505859,22.36837196350098,6.92694091796875,2,12212.23233375,2,0,1580908496.4735,1580903939.50652,2854,0.4894773,0.3954083,2.068121,3412.259,14,15,1580908493.658015,12211.765697,0,13.63171,97.04486
1580908498.453457,124,0,1580907286.99823,41.20781296037784,29.0754925099451,275.2123,0.1345286,-1,23.46983528137207,200,-9999,12214.23011979167,0.9452972412109375,0.0880279541015625,-0.168670654296875,12214.22007879167,1.177770548125122,1.431765304576027,-0.08281989676188999,0.03074656426906586,-0.1302084624767303,0.03378662839531898,-0.04772591590881348,0.005831748247146606,-0.01819324493408203,2,-0.3901842460389831,0.5279223364483714,0.3961313109958132,0.6419766943216206,0.9869560599327087,0.08272524923086166,-0.1381085216999054,31.69873046875,22.2119255065918,6.924346923828125,2,12212.23233375,2,0,1580908496.4735,1580903939.50652,2854,0.4894773,0.3954083,2.068121,3412.259,14,15,1580908493.658015,12211.765697,0,13.63171,97.04486
1580908498.454882,125,0,1580907286.99823,41.20781296037784,29.0754925099451,275.2123,0.1345286,-1,23.46983528137207,200,-9999,12214.24015979167,0.9645538330078125,0.077789306640625,-0.16217041015625,12214.23011979167,1.177378850511101,1.43098237083915,-0.08254225842063301,0.04395567625761032,-0.07264567911624908,0.02428218722343445,-0.04695343971252441,0.005834728479385376,-0.03294795751571655,2,-0.3898407440025154,0.5278086586481238,0.3962363527895809,0.6422141912742987,0.9868705868721008,0.0824485570192337,-0.138884425163269,31.69873046875,22.2119255065918,6.924346923828125,2,12212.23233375,2,0,1580908496.4735,1580903939.50652,2854,0.4894773,0.3954083,2.068121,3412.259,14,15,1580908493.658015,12211.765697,0,13.63171,97.04486
1580908498.455765,126,0,1580907286.99823,41.20781296037784,29.0754925099451,275.2123,0.1345286,-1,23.46983528137207,200,-9999,12214.25019979167,0.9786376953125,0.075286865234375,-0.1569976806640625,12214.24015979167,1.176964863667347,1.430555111105533,-0.08248966461230926,0.04060781747102737,-0.03856547176837921,-2.688076347112656e-05,-0.02764153480529785,-0.003832578659057617,-0.02664989233016968,2,-0.3896308206760182,0.5277636812720179,0.3962014167379992,0.6423998764311122,0.9868152141571045,0.08239614218473434,-0.1393066346645355,31.63732147216797,22.21111679077148,6.73175048828125,2,12212.23233375,2,0,1580908496.4735,1580903939.50652,2854,0.4894773,0.3954083,2.068121,3412.259,14,15,1580908493.658015,12211.765697,0,13.63171,97.04486
1580908498.462961,127,0,1580907286.99823,41.20781296037784,29.0754925099451,275.2123,0.1345286,-1,23.46983528137207,200,-9999,12214.26024079167,0.97845458984375,0.078857421875,-0.15570068359375,12214.25019979167,1.176593112769307,1.430335048029789,-0.08263899796705389,0.03496208414435387,-0.01677865162491798,-0.02027954906225204,-0.01238560676574707,-0.008132278919219971,-0.02083373069763184,2,-0.389534843824513,0.527732473193774,0.3960828839966136,0.6425568574619694,0.9867724180221558,0.0825449675321579,-0.1395220905542374,31.63732147216797,22.21111679077148,6.73175048828125,2,12212.23233375,2,0,1580908496.4735,1580903939.50652,2854,0.4894773,0.3954083,2.068121,3412.259,14,15,1580908493.658015,12211.765697,0,13.63171,97.04486
1580908498.473276,128,0,1580907286.99823,41.20781296037784,29.0754925099451,275.2123,0.1345286,-1,23.46983528137207,200,-9999,12214.27028079167,0.9614105224609375,0.0796051025390625,-0.1564788818359375,12214.26024079167,1.176303864410956,1.430273734777328,-0.0829278118407157,0.02474726364016533,-0.00320877879858017,-0.03384409472346306,-0.01091897487640381,-0.004041850566864014,-0.01899099349975586,2,-0.3895347917941877,0.52770542552167,0.3959206924221986,0.6426791657679582,0.9867403507232666,0.08283279836177826,-0.1395792663097382,31.59213256835938,22.33525466918945,6.756866455078125,2,12212.23233375,2,0,1580908496.4735,1580903939.50652,2854,0.4894773,0.3954083,2.068121,3412.259,14,15,1580908493.658015,12211.765697,0,13.63171,97.04486
1580908498.483149,129,0,1580907286.99823,41.20781296037784,29.0754925099451,275.2123,0.1345286,-1,23.46983528137207,200,-9999,12214.28032079167,0.9459991455078125,0.0911865234375,-0.156402587890625,12214.27028079167,1.176076915487796,1.43041979436579,-0.08316481578707323,0.01955010369420052,0.01794710382819176,-0.02915613166987896,-0.02697217464447021,-0.004706084728240967,-0.02006912231445312,2,-0.3895763993198281,0.5277442912096804,0.3957526555363599,0.6427255251086631,0.9867412447929382,0.08306898176670074,-0.1394323855638504,31.62759399414062,22.2804069519043,6.81201171875,2,12212.23233375,2,0,1580908496.4735,1580903939.50652,2854,0.4894773,0.3954083,2.068121,3412.259,14,15,1580908493.658015,12211.765697,0,13.63171,97.04486
1580908498.507082,130,0,1580907286.99823,41.20781296037784,29.0754925099451,275.2123,0.1345286,-1,23.46983528137207,200,-9999,12214.29039179167,0.943572998046875,0.0922393798828125,-0.154998779296875,12214.28032079167,1.17590484246507,1.43084881700805,-0.0831511930866501,0.01658094674348831,0.04259652644395828,-0.0004342067986726761,-0.04307019710540771,0.00693473219871521,-0.02047860622406006,2,-0.3896117178726302,0.5279186652043644,0.3956176108761707,0.6426439783483667,0.9868020415306091,0.08305540680885315,-0.1390091776847839,31.62759399414062,22.2804069519043,6.81201171875,2,12212.23233375,2,0,1580908496.4735,1580903939.50652,2854,0.4894773,0.3954083,2.068121,3412.259,14,15,1580908493.658015,12211.765697,0,13.63171,97.04486
1580908498.508468,131,0,1580907286.99823,41.20781296037784,29.0754925099451,275.2123,0.1345286,-1,23.46983528137207,200,-9999,12214.30043179167,0.9585723876953125,0.088592529296875,-0.1545562744140625,12214.29039179167,1.17572969000112,1.431554547313669,-0.08295097395959572,0.02101301774382591,0.07088005542755127,0.01804338023066521,-0.04733544588088989,0.009347468614578247,-0.01957333087921143,2,-0.3896437732546918,0.5282236425243518,0.3954801848046208,0.6424584190904296,0.9869162440299988,0.08285588026046753,-0.1383150219917297,31.59719848632812,22.16764068603516,6.646087646484375,2,12212.23233375,2,0,1580908496.4735,1580903939.50652,2854,0.4894773,0.3954083,2.068121,3412.259,14,15,1580908493.658015,12211.765697,0,13.63171,97.04486
1580908498.513166,132,0,1580907286.99823,41.20781296037784,29.0754925099451,275.2123,0.1345286,-1,23.46983528137207,200,-9999,12214.31047279167,0.9978179931640625,0.081695556640625,-0.1400146484375,12214.30043179167,1.175514049610831,1.432383533946749,-0.08269651692798544,0.02634174004197121,0.09074483811855316,0.02272095717489719,-0.03465378284454346,0.00612291693687439,-0.02057456970214844,2,-0.3896727684242549,0.5285879820104429,0.3953210654054231,0.6422391578588104,0.9870514869689941,0.08260229229927063,-0.1374997645616531,31.59719848632812,22.16764068603516,6.646087646484375,2,12212.23233375,2,0,1580908496.4735,1580903939.50652,2854,0.4894773,0.3954083,2.068121,3412.259,14,15,1580908493.658015,12211.765697,0,13.63171,97.04486
1580908498.523188,133,0,1580907286.99823,41.20781296037784,29.0754925099451,275.2123,0.1345286,-1,23.46983528137207,200,-9999,12214.32051279167,1.010604858398438,0.073333740234375,-0.1345977783203125,12214.31047279167,1.17532307506951,1.432844455901396,-0.08257105478376908,0.02012996934354305,0.04935645312070847,0.01082493551075459,0.003312349319458008,-0.0001908242702484131,-0.007876873016357422,2,-0.3896749909828476,0.528800810604487,0.3952052677692929,0.6421338324165826,0.9871249794960022,0.08247725665569305,-0.1370462030172348,31.66055297851562,22.33165740966797,6.751800537109375,2,12212.23233375,2,0,1580908496.4735,1580903939.50652,2854,0.4894773,0.3954083,2.068121,3412.259,14,15,1580908493.658015,12211.765697,0,13.63171,97.04486
1580908498.533296,134,0,1580907286.99823,41.20781296037784,29.0754925099451,275.2123,0.1345286,-1,23.46983528137207,200,-9999,12214.33055279167,0.9976348876953125,0.0712432861328125,-0.1435089111328125,12214.32051279167,1.175200614967983,1.432931358467423,-0.08268174786441829,0.009905828163027763,0.009761368855834007,-0.01203563995659351,0.02087235450744629,-0.008907496929168701,0.0001686811447143555,2,-0.3896936780939976,0.5288281927385942,0.3951178287915718,0.6421536927842919,0.9871277809143066,0.08258757740259171,-0.1369591653347015,31.66055297851562,22.33165740966797,6.751800537109375,2,12212.23233375,2,0,1580908496.4735,1580903939.50652,2854,0.4894773,0.3954083,2.068121,3412.259,14,15,1580908493.658015,12211.765697,0,13.63171,97.04486
1580908498.543392,135,0,1580907286.99823,41.20781296037784,29.0754925099451,275.2123,0.1345286,-1,23.46983528137207,200,-9999,12214.34059279167,1.0064697265625,0.0776519775390625,-0.1345977783203125,12214.33055279167,1.175134146962478,1.432786196932658,-0.08302567426497132,0.001351222395896912,-0.01036467123776674,-0.03433562070131302,0.00741654634475708,-0.01230323314666748,-0.009365320205688477,2,-0.389752630304335,0.5287188367246562,0.395027909542884,0.642263419830758,0.9870798587799072,0.0829303190112114,-0.1370985507965088,31.77055358886719,22.30410766601562,6.85650634765625,2,12212.23233375,2,0,1580908496.4735,1580903939.50652,2854,0.4894773,0.3954083,2.068121,3412.259,14,15,1580908493.658015,12211.765697,0,13.63171,97.04486
1580908498.566062,136,0,1580907286.99823,41.20781296037784,29.0754925099451,275.2123,0.1345286,-1,23.46983528137207,200,-9999,12214.350642,0.988739013671875,0.0801239013671875,-0.1401214599609375,12214.34059279167,1.175033993736748,1.432241448859314,-0.08362920091226494,0.002420747652649879,-0.05485011637210846,-0.0613669715821743,0.01564401388168335,-0.006849050521850586,-0.0007914304733276367,2,-0.3898033252366195,0.528430432943761,0.3949318723785863,0.6425288877573009,0.9869551658630371,0.08353175222873688,-0.1376292854547501,31.77055358886719,22.30410766601562,6.85650634765625,2,12212.23233375,2,0,1580908496.4735,1580903939.50652,2854,0.4894773,0.3954083,2.068121,3412.259,14,15,1580908493.658015,12211.765697,0,13.63171,97.04486
1580908498.567293,137,0,1580907286.99823,41.20781296037784,29.0754925099451,275.2123,0.1345286,-1,23.46983528137207,200,-9999,12214.360682,0.9513397216796875,0.08251953125,-0.1561126708984375,12214.350642,1.174861249297791,1.431536718313905,-0.08447701348493392,0.004575034603476524,-0.07100106775760651,-0.08766776323318481,0.001652240753173828,-0.004385679960250854,-0.003490626811981201,2,-0.3898780105712809,0.5280508210031875,0.3947749270843624,0.6428921457181734,0.9867875576019287,0.08437657356262207,-0.1383149325847626,31.67024230957031,22.2965202331543,6.78070068359375,2,12212.23233375,2,0,1580908496.4735,1580903939.50652,2854,0.4894773,0.3954083,2.068121,3412.259,14,15,1580908493.658015,12211.765697,0,13.63171,97.04486
1580908498.573879,138,0,1580907286.99823,41.20781296037784,29.0754925099451,275.2123,0.1345286,-1,23.46983528137207,200,-9999,12214.370722,0.928009033203125,0.0884552001953125,-0.1633148193359375,12214.360682,1.174639213264076,1.431119975599506,-0.08537729144992087,0.01012719236314297,-0.03947083652019501,-0.09281511604785919,-0.03529262542724609,-0.003775328397750854,-0.01897299289703369,2,-0.3900127552139409,0.5277615865108658,0.3945311668513631,0.6431974191095848,0.9866541624069214,0.08527360856533051,-0.1387155205011368,31.67024230957031,22.2965202331543,6.78070068359375,2,12212.23233375,2,0,1580908496.4735,1580903939.50652,2854,0.4894773,0.3954083,2.068121,3412.259,14,15,1580908493.658015,12211.765697,0,13.63171,97.04486
1580908498.583547,139,0,1580907286.99823,41.20781296037784,29.0754925099451,275.2123,0.1345286,-1,23.46983528137207,200,-9999,12214.380793,0.9224853515625,0.0946044921875,-0.161651611328125,12214.370722,1.174492021401641,1.431200452523843,-0.08603490298404358,0.00563465990126133,0.008672518655657768,-0.06941982358694077,-0.06095898151397705,0.001655429601669312,-0.02777326107025146,2,-0.3901910331457169,0.5276711216888059,0.3942828399666168,0.6433158350799553,0.9866096377372742,0.08592880517244339,-0.138628289103508,31.62733459472656,22.19271850585938,6.683807373046875,2,12212.23233375,2,0,1580908496.4735,1580903939.50652,2854,0.4894773,0.3954083,2.068121,3412.259,14,15,1580908493.658015,12211.765697,0,13.63171,97.04486
1580908498.593545,140,0,1580907286.99823,41.20781296037784,29.0754925099451,275.2123,0.1345286,-1,23.46983528137207,200,-9999,12214.390833,0.942352294921875,0.092041015625,-0.1556549072265625,12214.380793,1.174451146852625,1.431748620285335,-0.08622848765669186,0.0003900965675711632,0.05745923519134521,-0.01687884703278542,-0.06791555881500244,0.007489144802093506,-0.02686882019042969,2,-0.3903475245319857,0.5278126975261048,0.3941081603394669,0.6432117814780675,0.9866690039634705,0.08612167090177536,-0.1380851268768311,31.62733459472656,22.19271850585938,6.683807373046875,2,12212.23233375,2,0,1580908496.4735,1580903939.50652,2854,0.4894773,0.3954083,2.068121,3412.259,14,15,1580908493.658015,12211.765697,0,13.63171,97.04486
1580908498.60353,141,0,1580907286.99823,41.20781296037784,29.0754925099451,275.2123,0.1345286,-1,23.46983528137207,200,-9999,12214.400874,0.9859466552734375,0.0833892822265625,-0.14031982421875,12214.390833,1.17444338680731,1.432486492019439,-0.08619863249682963,0.001652435399591923,0.07796610891819,0.0043348278850317,-0.05149483680725098,0.006633937358856201,-0.02227383852005005,2,-0.3904817199679081,0.5280580642937786,0.3939700452552471,0.6430135136523429,0.9867731332778931,0.08609192818403244,-0.1373574137687683,31.63687133789062,22.17313385009766,6.717864990234375,2,12212.23233375,2,0,1580908496.4735,1580903939.50652,2854,0.4894773,0.3954083,2.068121,3412.259,14,15,1580908493.658015,12211.765697,0,13.63171,97.04486
1580908498.62946,142,0,1580907286.99823,41.20781296037784,29.0754925099451,275.2123,0.1345286,-1,23.46983528137207,200,-9999,12214.410914,1.013763427734375,0.0856170654296875,-0.1301422119140625,12214.400874,1.174487760266174,1.432907769239551,-0.08618700522206912,-0.005786838941276073,0.04312183707952499,0.002660764381289482,-0.008646249771118164,-0.002921789884567261,-0.008164763450622559,2,-0.3905728939028713,0.528187376476527,0.3939053151264978,0.642891481020752,0.9868317842483521,0.08608034253120422,-0.1369418203830719,31.63687133789062,22.17313385009766,6.717864990234375,2,12212.23233375,2,0,1580908496.4735,1580903939.50652,2854,0.4894773,0.3954083,2.068121,3412.259,14,15,1580908493.658015,12211.765697,0,13.63171,97.04486
1580908498.630688,143,0,1580907286.99823,41.20781296037784,29.0754925099451,275.2123,0.1345286,-1,23.46983528137207,200,-9999,12214.420954,1.020126342773438,0.085357666015625,-0.1262054443359375,12214.410914,1.174500834085056,1.432734216792662,-0.08632040832724502,-0.003621980082243681,-0.01478608883917332,-0.01246227417141199,0.02189129590988159,-0.0009188652038574219,0.003648042678833008,2,-0.3905829222825115,0.5280996324746651,0.3939057940941859,0.6429572712515708,0.9867967367172241,0.08621324598789215,-0.1371115148067474,31.65468597412109,22.44459915161133,6.847503662109375,2,12212.23233375,2,0,1580908496.4735,1580903939.50652,2854,0.4894773,0.3954083,2.068121,3412.259,14,15,1580908493.658015,12211.765697,0,13.63171,97.04486
1580908498.63375,144,0,1580907286.99823,41.20781296037784,29.0754925099451,275.2123,0.1345286,-1,23.46983528137207,200,-9999,12214.430994,0.9957275390625,0.089019775390625,-0.1322021484375,12214.420954,1.17443504155875,1.431815697202522,-0.08666269183727138,0.001537894830107689,-0.0930076539516449,-0.03556839376688004,0.03015005588531494,-0.001917213201522827,0.008200407028198242,2,-0.390489353488949,0.527741598407226,0.3939674460500254,0.643270128333826,0.986640989780426,0.08655425161123276,-0.1380137354135513,31.65468597412109,22.44459915161133,6.847503662109375,2,12212.23233375,2,0,1580908496.4735,1580903939.50652,2854,0.4894773,0.3954083,2.068121,3412.259,14,15,1580908493.658015,12211.765697,0,13.63171,97.04486
1580908498.643936,145,0,1580907286.99823,41.20781296037784,29.0754925099451,275.2123,0.1345286,-1,23.46983528137207,200,-9999,12214.441035,0.951690673828125,0.082275390625,-0.15960693359375,12214.430994,1.174254151417093,1.430547263012447,-0.08715244920641914,0.0132205318659544,-0.1279516220092773,-0.05043080076575279,0.01030361652374268,0.001865625381469727,0.006276607513427734,2,-0.3903415804305234,0.5272607094358291,0.3940187976933571,0.6437226386373538,0.986423134803772,0.08704216033220291,-0.1392591893672943,31.51321411132812,22.3303279876709,6.805694580078125,2,12212.23233375,2,0,1580908496.4735,1580903939.50652,2854,0.4894773,0.3954083,2.068121,3412.259,14,15,1580908493.658015,12211.765697,0,13.63171,97.04486
1580908498.65402,146,0,1580907286.99823,41.20781296037784,29.0754925099451,275.2123,0.1345286,-1,23.46983528137207,200,-9999,12214.451075,0.9496612548828125,0.083770751953125,-0.161895751953125,12214.441035,1.174049331632818,1.429583584836639,-0.08775954040013635,0.01059651933610439,-0.09211772680282593,-0.06317029893398285,-0.03525459766387939,-0.004966944456100464,-0.02036505937576294,2,-0.3902836234029294,0.5268563125298166,0.3939698183373961,0.6441186293113738,0.9862358570098877,0.08764693140983582,-0.1402022391557693,31.51321411132812,22.3303279876709,6.805694580078125,2,12212.23233375,2,0,1580908496.4735,1580903939.50652,2854,0.4894773,0.3954083,2.068121,3412.259,14,15,1580908493.658015,12211.765697,0,13.63171,97.04486
1580908498.663959,147,0,1580907286.99823,41.20781296037784,29.0754925099451,275.2123,0.1345286,-1,23.46983528137207,200,-9999,12214.461115,0.951385498046875,0.0893707275390625,-0.1573486328125,12214.451075,1.173844377496604,1.428917187706324,-0.08839855002547096,0.01056779082864523,-0.06413371115922928,-0.06644599139690399,-0.04085755348205566,-0.005529433488845825,-0.02473384141921997,2,-0.390294033079453,0.5265404303753257,0.3938537884860098,0.6444415108878565,0.9860866069793701,0.08828346431255341,-0.1408514827489853,31.49053955078125,22.49332809448242,6.66534423828125,2,12212.23233375,2,0,1580908496.4735,1580903939.50652,2854,0.4894773,0.3954083,2.068121,3412.259,14,15,1580908493.658015,12211.765697,0,13.63171,97.04486
1580908498.691333,148,0,1580907286.99823,41.20781296037784,29.0754925099451,275.2123,0.1345286,-1,23.46983528137207,200,-9999,12214.471186,0.954254150390625,0.09674072265625,-0.150970458984375,12214.461115,1.173599842452016,1.428466522643019,-0.08899784204780338,0.01569783687591553,-0.0387151688337326,-0.06249092519283295,-0.03791797161102295,-0.0004675090312957764,-0.01922941207885742,2,-0.3903244181900127,0.5263104357330728,0.3936940812854429,0.6447085882402921,0.9859705567359924,0.08888040482997894,-0.1412883549928665,31.49053955078125,22.49332809448242,6.66534423828125,2,12212.23233375,2,0,1580908496.4735,1580903939.50652,2854,0.4894773,0.3954083,2.068121,3412.259,14,15,1580908493.658015,12211.765697,0,13.63171,97.04486
1580908498.692674,149,0,1580907286.99823,41.20781296037784,29.0754925099451,275.2123,0.1345286,-1,23.46983528137207,200,-9999,12214.481226,0.9397125244140625,0.0995635986328125,-0.15362548828125,12214.471186,1.173346904064019,1.428055609046706,-0.08941949978372236,0.01711048558354378,-0.03943914920091629,-0.04479730874300003,-0.03512167930603027,0.006587833166122437,-0.01316726207733154,2,-0.3903061388566987,0.5261340623553187,0.3935739078650076,0.6449368984417854,0.9858751893043518,0.08930038660764694,-0.1416881382465363,31.56411743164062,22.42643547058105,6.618682861328125,2,12212.23233375,2,0,1580908496.4735,1580903939.50652,2854,0.4894773,0.3954083,2.068121,3412.259,14,15,1580908493.658015,12211.765697,0,13.63171,97.04486
1580908498.694523,150,0,1580907286.99823,41.20781296037784,29.0754925099451,275.2123,0.1345286,-1,23.46983528137207,200,-9999,12214.491267,0.925628662109375,0.094512939453125,-0.162811279296875,12214.481226,1.173100203541245,1.427875884159793,-0.08955265649527383,0.02170310541987419,-0.01665447652339935,-0.01762694120407104,-0.04710805416107178,0.009903222322463989,-0.01395225524902344,2,-0.3902466151080244,0.5260948181996995,0.3934919197175892,0.6450550852671133,0.9858380556106567,0.08943300694227219,-0.1418636441230774,31.56411743164062,22.42643547058105,6.618682861328125,2,12212.23233375,2,0,1580908496.4735,1580903939.50652,2854,0.4894773,0.3954083,2.068121,3412.259,14,15,1580908493.658015,12211.765697,0,13.63171,97.04486
1580908498.70391,151,0,1580907286.99823,41.20781296037784,29.0754925099451,275.2123,0.1345286,-1,23.46983528137207,200,-9999,12214.501307,0.93994140625,0.0853729248046875,-0.16363525390625,12214.491267,1.172827727157172,1.428108674116443,-0.08947195510669913,0.02953466400504112,0.02608952298760414,0.004506058059632778,-0.06417715549468994,0.005543559789657593,-0.02365720272064209,2,-0.3901960075571271,0.5262409049551979,0.3933813608061965,0.6450339647183041,0.9858781695365906,0.08935263007879257,-0.1416351646184921,31.53872680664062,22.60127067565918,6.638397216796875,2,12212.23233375,2,0,1580908496.4735,1580903939.50652,2854,0.4894773,0.3954083,2.068121,3412.259,14,15,1580908493.658015,12211.765697,0,13.63171,97.04486
1580908498.713995,152,0,1580907286.99823,41.20781296037784,29.0754925099451,275.2123,0.1345286,-1,23.46983528137207,200,-9999,12214.511347,0.941070556640625,0.088592529296875,-0.1627197265625,12214.501307,1.172617835409658,1.428744370085283,-0.08928159248384693,0.02250844612717628,0.0641452968120575,0.01574992388486862,-0.05056655406951904,-0.003238320350646973,-0.02558088302612305,2,-0.3902074954931655,0.5265289171595453,0.3932432988483558,0.6448760833598699,0.9859848022460938,0.08916302770376205,-0.1410108208656311,31.53872680664062,22.60127067565918,6.638397216796875,2,12212.23233375,2,0,1580908496.4735,1580903939.50652,2854,0.4894773,0.3954083,2.068121,3412.259,14,15,1580908493.658015,12211.765697,0,13.63171,97.04486
1580908498.724016,153,0,1580907286.99823,41.20781296037784,29.0754925099451,275.2123,0.1345286,-1,23.46983528137207,200,-9999,12214.521388,0.965789794921875,0.09375,-0.1461181640625,12214.511347,1.172434560884068,1.429660542215638,-0.08897772568198695,0.02257715538144112,0.0961703434586525,0.02849767729640007,-0.04977673292160034,-0.001851201057434082,-0.02659058570861816,2,-0.3902463090388738,0.5269271369810113,0.3930911312066147,0.6446199778655949,0.986140251159668,0.08886036276817322,-0.1401112228631973,31.47657012939453,22.521728515625,6.86297607421875,2,12212.23233375,2,0,1580908496.4735,1580903939.50652,2854,0.4894773,0.3954083,2.068121,3412.259,14,15,1580908493.658015,12211.765697,0,13.63171,97.04486
1580908498.749956,154,0,1580907286.99823,41.20781296037784,29.0754925099451,275.2123,0.1345286,-1,23.46983528137207,200,-9999,12214.531428,0.98541259765625,0.0850982666015625,-0.1461181640625,12214.521388,1.172243860589001,1.430460879902091,-0.08866292687312304,0.02338915318250656,0.07976420223712921,0.02838742360472679,-0.02678442001342773,0.005284100770950317,-0.01089930534362793,2,-0.3902569440447046,0.5272917577709602,0.3929623175146988,0.6443939019846764,0.9862797260284424,0.08854680508375168,-0.1393258422613144,31.47657012939453,22.521728515625,6.86297607421875,2,12212.23233375,2,0,1580908496.4735,1580903939.50652,2854,0.4894773,0.3954083,2.068121,3412.259,14,15,1580908493.658015,12211.765697,0,13.63171,97.04486
1580908498.751166,155,0,1580907286.99823,41.20781296037784,29.0754925099451,275.2123,0.1345286,-1,23.46983528137207,200,-9999,12214.541468,1.010986328125,0.0770263671875,-0.1396942138671875,12214.531428,1.172041526098879,1.431069924628076,-0.08852416620876104,0.0227433368563652,0.06666012108325958,0.01130351051688194,-0.006556868553161621,-0.002633839845657349,-0.01021873950958252,2,-0.3902807584813774,0.5275580656198763,0.3928174446655075,0.6442498159630988,0.9863765835762024,0.08840858936309814,-0.1387268304824829,31.62638854980469,22.2968635559082,6.74005126953125,2,12212.23233375,2,0,1580908496.4735,1580903939.50652,2854,0.4894773,0.3954083,2.068121,3412.259,14,15,1580908493.658015,12211.765697,0,13.63171,97.04486
1580908498.754065,156,0,1580907286.99823,41.20781296037784,29.0754925099451,275.2123,0.1345286,-1,23.46983528137207,200,-9999,12214.551508,1.005218505859375,0.07989501953125,-0.1394195556640625,12214.541468,1.171889784481416,1.431207124988838,-0.08870842813926728,0.01231280062347651,0.01432660967111588,-0.02059849724173546,0.01904463768005371,-0.01156124472618103,-0.005275368690490723,2,-0.3903240296602046,0.5275912497780684,0.3926897939232503,0.6442743594408454,0.9863795638084412,0.08859212696552277,-0.1385892480611801,31.62638854980469,22.2968635559082,6.74005126953125,2,12212.23233375,2,0,1580908496.4735,1580903939.50652,2854,0.4894773,0.3954083,2.068121,3412.259,14,15,1580908493.658015,12211.765697,0,13.63171,97.04486
1580908498.764077,157,0,1580907286.99823,41.20781296037784,29.0754925099451,275.2123,0.1345286,-1,23.46983528137207,200,-9999,12214.561549,0.9912872314453125,0.08526611328125,-0.146209716796875,12214.551508,1.171745280372862,1.431033470444869,-0.08916356358082782,0.009183053858578205,-0.01640573889017105,-0.04559279605746269,0.01784253120422363,-0.01020041108131409,-0.002728819847106934,2,-0.3903911344595977,0.5274630914411932,0.3925486333357078,0.6444245958272568,0.9863153696060181,0.08904546499252319,-0.1387549042701721,31.62016296386719,22.5413703918457,6.8240966796875,2,12212.23233375,2,0,1580908496.4735,1580903939.50652,2854,0.4894773,0.3954083,2.068121,3412.259,14,15,1580908493.658015,12211.765697,0,13.63171,97.04486
1580908498.774284,158,0,1580907286.99823,41.20781296037784,29.0754925099451,275.2123,0.1345286,-1,23.46983528137207,200,-9999,12214.571619,0.981964111328125,0.0887298583984375,-0.140899658203125,12214.561549,1.171579589238037,1.430657363438916,-0.08982827423721094,0.00644852127879858,-0.03369418159127235,-0.06793698668479919,0.001626849174499512,-0.004868149757385254,-0.0102996826171875,2,-0.3904770607171167,0.5272275469428673,0.3923809897379729,0.6446673840191202,0.9862043857574463,0.08970751613378525,-0.1391175538301468,31.62016296386719,22.5413703918457,6.8240966796875,2,12214.56222,4,2,1580908498.803386,1580903939.50652,2859,0.4898014,0.3954083,2.068121,3414.759,14,15,1580908496.229725,12211.765697,0,13.63171,97.04486
1580908498.811251,159,0,1580907286.99823,41.20781296037784,29.0754925099451,275.2123,0.1345286,-1,23.46983528137207,200,-9999,12214.58166,0.9566497802734375,0.0966949462890625,-0.1468658447265625,12214.571619,1.171372173677258,1.430083283524082,-0.09056687053447579,0.008544420823454857,-0.05549832433462143,-0.0774276927113533,-0.005093276500701904,-0.002875059843063354,-0.004293680191040039,2,-0.3905359010075186,0.5269198594220834,0.3922176426272042,0.6449824970217528,0.9860582947731018,0.09044311195611954,-0.1396743506193161,31.34207916259766,22.50072288513184,6.700439453125,2,12214.56222,4,2,1580908498.803386,1580903939.50652,2859,0.4898014,0.3954083,2.068121,3414.759,14,15,1580908496.229725,12211.765697,0,13.63171,97.04486
1580908498.81255,160,0,1580907286.99823,41.20781296037784,29.0754925099451,275.2123,0.1345286,-1,23.46983528137207,200,-9999,12214.5917,0.9335174560546875,0.0989532470703125,-0.1513519287109375,12214.58166,1.171111133488367,1.429489495752706,-0.09118230156621043,0.01779357902705669,-0.0562642514705658,-0.06711540371179581,-0.03139793872833252,0.004917532205581665,-0.00908505916595459,2,-0.3905390871980751,0.5266433660743212,0.3920756306356136,0.6452927233807085,0.9859199523925781,0.09105600416660309,-0.1402519792318344,31.34207916259766,22.50072288513184,6.700439453125,2,12214.56222,4,2,1580908498.803386,1580903939.50652,2859,0.4898014,0.3954083,2.068121,3414.759,14,15,1580908496.229725,12211.765697,0,13.63171,97.04486
