loggingTime,loggingSample,identifierForVendor,locationTimestamp_since1970,locationLatitude,locationLongitude,locationAltitude,locationSpeed,locationCourse,locationVerticalAccuracy,locationHorizontalAccuracy,locationFloor,accelerometerTimestamp_sinceReboot,accelerometerAccelerationX,accelerometerAccelerationY,accelerometerAccelerationZ,motionTimestamp_sinceReboot,motionYaw,motionRoll,motionPitch,motionRotationRateX,motionRotationRateY,motionRotationRateZ,motionUserAccelerationX,motionUserAccelerationY,motionUserAccelerationZ,motionAttitudeReferenceFrame,motionQuaternionX,motionQuaternionY,motionQuaternionZ,motionQuaternionW,motionGravityX,motionGravityY,motionGravityZ,motionMagneticFieldX,motionMagneticFieldY,motionMagneticFieldZ,motionMagneticFieldCalibrationAccuracy,activityTimestamp_sinceReboot,activity,activityActivityConfidence,activityActivityStartDate,pedometerStartDate,pedometerNumberofSteps,pedometerAverageActivePace,pedometerCurrentPace,pedometerCurrentCadence,pedometerDistance,pedometerFloorAscended,pedometerFloorDescended,pedometerEndDate,altimeterTimestamp_sinceReboot,altimeterReset,altimeterRelativeAltitude,altimeterPressure
1580906957.156515,1,0,1580906955.998253,41.20961103265355,29.07539060713162,161.7957,-1,-1,44.86116409301758,48.00724964208526,-9999,10672.93553591667,0.971038818359375,0.094207763671875,-0.1426544189453125,10672.93046991667,1.343895404586535,1.415511992173071,-0.09987764484891071,-0.01627297513186932,-0.01235331129282713,0.0005531134083867073,-0.01066255569458008,-0.005353361368179321,0.01267218589782715,2,0.4338926115526166,-0.4845534868678552,-0.4470103786837224,-0.6141065014019885,0.983043909072876,0.09971167147159576,-0.1538902372121811,46.69123077392578,-11.19043922424316,0.19573974609375,2,10672.40189525,2,0,1580906956.643062,1580903939.50652,2106,0.4568741,0,0,2639.329,9,7,1580906940.646764,10670.200046,0,23.50873,96.93034
1580906957.179789,2,0,1580906956.998247,41.20960932782387,29.07534957533537,161.8416,-1,-1,36.89720916748047,48.00724964208526,-9999,10672.94557591667,0.9598541259765625,0.0931396484375,-0.1534576416015625,10672.94050991667,1.34394125770733,1.415541062797505,-0.09990860222224029,-0.001686043106019497,0.005096253007650375,-7.778871804475784e-05,-0.005064010620117188,-0.004636555910110474,0.01571011543273926,2,0.4339191113976534,-0.4845447508706762,-0.4470099115328997,-0.6140949701255204,0.9830452799797058,0.09974247217178345,-0.1538611799478531,46.55188751220703,-11.25846672058105,0.288848876953125,2,10672.40189525,2,0,1580906956.643062,1580903939.50652,2106,0.4568741,0,0,2639.329,9,7,1580906940.646764,10670.200046,0,23.50873,96.93034
1580906957.181415,3,0,1580906956.998247,41.20960932782387,29.07534957533537,161.8416,-1,-1,36.89720916748047,48.00724964208526,-9999,10672.95561591667,0.9646453857421875,0.0945587158203125,-0.149078369140625,10672.95054991667,1.343997204643797,1.415579444827378,-0.09992879047514802,-0.006306394934654236,0.002588480710983276,0.0001389533281326294,-0.02653682231903076,-0.007052212953567505,-0.002668917179107666,2,0.4339470107552758,-0.4845393876448048,-0.4470134088451426,-0.6140770142350155,0.9830492734909058,0.09976255893707275,-0.1538231521844864,46.55188751220703,-11.25846672058105,0.288848876953125,2,10672.40189525,2,0,1580906956.643062,1580903939.50652,2106,0.4568741,0,0,2639.329,9,7,1580906940.646764,10670.200046,0,23.50873,96.93034
1580906957.182001,4,0,1580906956.998247,41.20960932782387,29.07534957533537,161.8416,-1,-1,36.89720916748047,48.00724964208526,-9999,10672.96565591667,0.9654083251953125,0.0959625244140625,-0.1485595703125,10672.96062091667,1.344045243037834,1.415637460086079,-0.09993546454668759,-0.003364667296409607,0.00544046051800251,0.000588495284318924,-0.02102124691009521,-0.006021291017532349,0.002523064613342285,2,0.4339735232203227,-0.4845451199864867,-0.4470137996249511,-0.6140534908546934,0.9830575585365295,0.09976920485496521,-0.1537660211324692,46.49253082275391,-11.45920753479004,0.37554931640625,2,10672.40189525,2,0,1580906956.643062,1580903939.50652,2106,0.4568741,0,0,2639.329,9,7,1580906940.646764,10670.200046,0,23.50873,96.93034
1580906957.18654,5,0,1580906956.998247,41.20960932782387,29.07534957533537,161.8416,-1,-1,36.89720916748047,48.00724964208526,-9999,10672.97569691667,0.965576171875,0.0955352783203125,-0.1485443115234375,10672.97066091667,1.34407886681915,1.415670645613824,-0.09992904665385795,-0.002153824549168348,0.003159269690513611,0.001604660414159298,-0.02107274532318115,-0.004336446523666382,0.002551257610321045,2,0.4339873021422759,-0.4845495739245542,-0.4470185942332308,-0.6140365785287898,0.9830631017684937,0.09976281970739365,-0.1537334620952606,46.49253082275391,-11.45920753479004,0.37554931640625,2,10672.40189525,2,0,1580906956.643062,1580903939.50652,2106,0.4568741,0,0,2639.329,9,7,1580906940.646764,10670.200046,0,23.50873,96.93034
1580906957.196936,6,0,1580906956.998247,41.20960932782387,29.07534957533537,161.8416,-1,-1,36.89720916748047,48.00724964208526,-9999,10672.98573691667,0.9642181396484375,0.0944061279296875,-0.1490936279296875,10672.98070191667,1.34413147519775,1.415720535739508,-0.09991506444236418,-0.003900591749697924,0.004322271794080734,0.002298413775861263,-0.01935756206512451,-0.004124194383621216,0.003097414970397949,2,0.4340071990570464,-0.4845569487561278,-0.4470276312166492,-0.6140100857718541,0.9830721020698547,0.09974890202283859,-0.1536846309900284,46.33745574951172,-10.99806022644043,0.18707275390625,2,10672.40189525,2,0,1580906956.643062,1580903939.50652,2106,0.4568741,0,0,2639.329,9,7,1580906940.646764,10670.200046,0,23.50873,96.93034
1580906957.2066,7,0,1580906956.998247,41.20960932782387,29.07534957533537,161.8416,-1,-1,36.89720916748047,48.00724964208526,-9999,10672.99577691667,0.9648284912109375,0.093780517578125,-0.1485443115234375,10672.99074191667,1.344184978459475,1.415789114003663,-0.09990206702863609,-0.004128972068428993,0.005706531926989555,0.001918508671224117,-0.02127683162689209,-0.005194574594497681,0.002846896648406982,2,0.4340317337909626,-0.4845696454185096,-0.4470326481002858,-0.6139791569611466,0.9830840229988098,0.09973597526550293,-0.1536174267530441,46.60707855224609,-11.29703330993652,0.329345703125,2,10672.40189525,2,0,1580906956.643062,1580903939.50652,2106,0.4568741,0,0,2639.329,9,7,1580906940.646764,10670.200046,0,23.50873,96.93034
1580906957.224106,8,0,1580906956.998247,41.20960932782387,29.07534957533537,161.8416,-1,-1,36.89720916748047,48.00724964208526,-9999,10673.00581691667,0.965240478515625,0.09222412109375,-0.148468017578125,10673.00078191667,1.34424062046294,1.415883338644945,-0.09987674165695923,-0.00615537166595459,0.009297804906964302,0.002948086708784103,-0.02056151628494263,-0.005810171365737915,0.002510368824005127,2,0.4340589797070645,-0.4845928208104835,-0.4470360350343348,-0.6139392394625454,0.9831011295318604,0.09971076995134354,-0.1535252034664154,46.60707855224609,-11.29703330993652,0.329345703125,2,10672.40189525,2,0,1580906956.643062,1580903939.50652,2106,0.4568741,0,0,2639.329,9,7,1580906940.646764,10670.200046,0,23.50873,96.93034
1580906957.228417,9,0,1580906956.998247,41.20960932782387,29.07534957533537,161.8416,-1,-1,36.89720916748047,48.00724964208526,-9999,10673.01588791667,0.969268798828125,0.0938568115234375,-0.1461639404296875,10673.01082191667,1.344304955061826,1.415933375031981,-0.09985206570648328,-0.005194491241127253,0.003232305869460106,0.003087111748754978,-0.02086150646209717,-0.007387757301330566,0.003010749816894531,2,0.4340787134523999,-0.4846003355027813,-0.4470514625220932,-0.6139080093656775,0.9831110835075378,0.09968622028827667,-0.1534763723611832,46.53380584716797,-11.28483772277832,0.2637939453125,2,10672.40189525,2,0,1580906956.643062,1580903939.50652,2106,0.4568741,0,0,2639.329,9,7,1580906940.646764,10670.200046,0,23.50873,96.93034
1580906957.236599,10,0,1580906956.998247,41.20960932782387,29.07534957533537,161.8416,-1,-1,36.89720916748047,48.00724964208526,-9999,10673.02592891667,0.9690704345703125,0.094512939453125,-0.1468505859375,10673.02086291667,1.344345545399679,1.415960559738918,-0.09982979955247695,-0.00328207528218627,0.001993671059608459,0.003624537028372288,-0.01723635196685791,-0.006755173206329346,0.004296541213989258,2,0.4340882167849442,-0.4846054277964938,-0.4470639565898501,-0.6138882424245884,0.9831175208091736,0.09966406226158142,-0.1534499973058701,46.53380584716797,-11.28483772277832,0.2637939453125,2,10672.40189525,2,0,1580906956.643062,1580903939.50652,2106,0.4568741,0,0,2639.329,9,7,1580906940.646764,10670.200046,0,23.50873,96.93034
1580906957.246746,11,0,1580906956.998247,41.20960932782387,29.07534957533537,161.8416,-1,-1,36.89720916748047,48.00724964208526,-9999,10673.03596891667,0.969573974609375,0.0929107666015625,-0.1483917236328125,10673.03090291667,1.344398247290964,1.415942415026962,-0.09981368200638051,-0.003624600358307362,-0.00240323506295681,0.002388536930084229,-0.01621270179748535,-0.005121618509292603,0.005337238311767578,2,0.4340922870081911,-0.4845924458989304,-0.4470883701821187,-0.6138778980474453,0.9831163883209229,0.09964802861213684,-0.1534681022167206,46.62865447998047,-11.07754707336426,0.24249267578125,2,10672.40189525,2,0,1580906956.643062,1580903939.50652,2106,0.4568741,0,0,2639.329,9,7,1580906940.646764,10670.200046,0,23.50873,96.93034
1580906957.257134,12,0,1580906956.998247,41.20960932782387,29.07534957533537,161.8416,-1,-1,36.89720916748047,48.00724964208526,-9999,10673.04600891667,0.9690399169921875,0.0926971435546875,-0.148345947265625,10673.04097391667,1.344429859029843,1.415918753506821,-0.09983420693421996,-0.003257883246988058,-0.001314802095293999,-0.001270646695047617,-0.01608502864837646,-0.006500154733657837,0.003513693809509277,2,0.4341005798984833,-0.4845731882117152,-0.4470977282629766,-0.6138803061059381,0.9831106662750244,0.09966845065355301,-0.1534910202026367,46.62865447998047,-11.07754707336426,0.24249267578125,2,10672.40189525,2,0,1580906956.643062,1580903939.50652,2106,0.4568741,0,0,2639.329,9,7,1580906940.646764,10670.200046,0,23.50873,96.93034
1580906957.266768,13,0,1580906956.998247,41.20960932782387,29.07534957533537,161.8416,-1,-1,36.89720916748047,48.00724964208526,-9999,10673.05604891667,0.969451904296875,0.09503173828125,-0.14727783203125,10673.05101391667,1.344470158670462,1.415884939343317,-0.09988166499547352,-0.004192306660115719,-0.003173375502228737,-0.004044536966830492,-0.0163649320602417,-0.007737696170806885,0.002585232257843018,2,0.4341163462789768,-0.4845422772811652,-0.4471048468180679,-0.6138885094003506,0.9831008911132812,0.09971567243337631,-0.1535235643386841,46.54000091552734,-11.1345386505127,0.091888427734375,2,10672.40189525,2,0,1580906956.643062,1580903939.50652,2106,0.4568741,0,0,2639.329,9,7,1580906940.646764,10670.200046,0,23.50873,96.93034
1580906957.283149,14,0,1580906956.998247,41.20960932782387,29.07534957533537,161.8416,-1,-1,36.89720916748047,48.00724964208526,-9999,10673.06608991667,0.968505859375,0.0943603515625,-0.1480255126953125,10673.06105391667,1.344469631101721,1.415823519059244,-0.09994190664000467,-0.0008367234840989113,-0.006030680611729622,-0.007348720915615559,-0.0159374475479126,-0.005524158477783203,0.004262328147888184,2,0.4341197619311953,-0.4845085405198051,-0.4471019986395445,-0.6139147923383146,0.983085572719574,0.09977561235427856,-0.1535830199718475,46.54000091552734,-11.1345386505127,0.091888427734375,2,10672.40189525,2,0,1580906956.643062,1580903939.50652,2106,0.4568741,0,0,2639.329,9,7,1580906940.646764,10670.200046,0,23.50873,96.93034
1580906957.286852,15,0,1580906956.998247,41.20960932782387,29.07534957533537,161.8416,-1,-1,36.89720916748047,48.00724964208526,-9999,10673.07612991667,0.9655914306640625,0.094085693359375,-0.148712158203125,10673.07109491667,1.344491677674663,1.415740287290576,-0.09998916811290602,-0.002119966316968203,-0.009324539452791214,-0.003663261886686087,-0.01650005578994751,-0.005006730556488037,0.003946542739868164,2,0.4341200889682067,-0.4844664121722309,-0.4471142409868755,-0.6139387657216632,0.9830679893493652,0.09982264041900635,-0.1536640822887421,46.53835296630859,-11.03668785095215,0.20648193359375,2,10672.40189525,2,0,1580906956.643062,1580903939.50652,2106,0.4568741,0,0,2639.329,9,7,1580906940.646764,10670.200046,0,23.50873,96.93034
1580906957.296905,16,0,1580906956.998247,41.20960932782387,29.07534957533537,161.8416,-1,-1,36.89720916748047,48.00724964208526,-9999,10673.08616991667,0.9632110595703125,0.0950469970703125,-0.1495361328125,10673.08113491667,1.344501128102676,1.415684045420835,-0.1000221369452346,-0.002500798553228378,-0.004837378859519958,-0.002749797888100147,-0.01870065927505493,-0.006275653839111328,0.003208041191101074,2,0.4341192451951112,-0.4844388956153609,-0.4471205921498143,-0.6139564884659567,0.9830561280250549,0.0998554453253746,-0.1537188738584518,46.53835296630859,-11.03668785095215,0.20648193359375,2,10672.40189525,2,0,1580906956.643062,1580903939.50652,2106,0.4568741,0,0,2639.329,9,7,1580906940.646764,10670.200046,0,23.50873,96.93034
1580906957.306938,17,0,1580906956.998247,41.20960932782387,29.07534957533537,161.8416,-1,-1,36.89720916748047,48.00724964208526,-9999,10673.09624091667,0.9642486572265625,0.0950469970703125,-0.1484527587890625,10673.09117491667,1.344498335740855,1.415637690936431,-0.1000322209989164,0.00231233611702919,-0.004234137013554573,-0.001884022261947393,-0.02238523960113525,-0.005110740661621094,0.001910805702209473,2,0.4341110767560172,-0.4844227740980439,-0.4471271279810232,-0.6139702861634694,0.9830480813980103,0.09986547380685806,-0.1537642925977707,46.62694549560547,-11.02429389953613,0.188018798828125,2,10672.40189525,2,0,1580906956.643062,1580903939.50652,2106,0.4568741,0,0,2639.329,9,7,1580906940.646764,10670.200046,0,23.50873,96.93034
1580906957.316983,18,0,1580906956.998247,41.20960932782387,29.07534957533537,161.8416,-1,-1,36.89720916748047,48.00724964208526,-9999,10673.10628091667,0.9622955322265625,0.0937652587890625,-0.152191162109375,10673.10121491667,1.344490540285064,1.415647592424145,-0.100019461871216,0.0007943343371152878,0.0003169402480125427,0.001109903678297997,-0.02133512496948242,-0.004716575145721436,0.003274500370025635,2,0.4341077425666108,-0.4844306833768495,-0.4471259786041614,-0.6139672433169784,0.9830508232116699,0.0998527780175209,-0.1537547558546066,46.62694549560547,-11.02429389953613,0.188018798828125,2,10672.40189525,2,0,1580906956.643062,1580903939.50652,2106,0.4568741,0,0,2639.329,9,7,1580906940.646764,10670.200046,0,23.50873,96.93034
1580906957.328152,19,0,1580906956.998247,41.20960932782387,29.07534957533537,161.8416,-1,-1,36.89720916748047,48.00724964208526,-9999,10673.11632191667,0.9647979736328125,0.0940704345703125,-0.150604248046875,10673.11125591667,1.344491685741285,1.415723383363926,-0.09999774411331984,0.001629943028092384,0.007779987528920174,0.00206215213984251,-0.02270704507827759,-0.005946069955825806,0.0003160238265991211,2,0.434118807779817,-0.4844590623553567,-0.4471156100277158,-0.6139443637019664,0.9830644130706787,0.09983117133378983,-0.1536805480718613,46.55239105224609,-11.02067375183105,0.105499267578125,2,10672.40189525,2,0,1580906956.643062,1580903939.50652,2106,0.4568741,0,0,2639.329,9,7,1580906940.646764,10670.200046,0,23.50873,96.93034
1580906957.343321,20,0,1580906956.998247,41.20960932782387,29.07534957533537,161.8416,-1,-1,36.89720916748047,48.00724964208526,-9999,10673.12636191667,0.9671630859375,0.094390869140625,-0.1494293212890625,10673.12129591667,1.344492550605844,1.415828063689628,-0.0999720071912918,0.0008914489299058914,0.01149323396384716,0.002657635137438774,-0.02185606956481934,-0.006240904331207275,0.0001370906829833984,2,0.4341349886894063,-0.4844974484728207,-0.447100027148342,-0.613914130702342,0.983083188533783,0.0998055636882782,-0.1535780727863312,46.55239105224609,-11.02067375183105,0.105499267578125,2,10672.40189525,2,0,1580906956.643062,1580903939.50652,2106,0.4568741,0,0,2639.329,9,7,1580906940.646764,10670.200046,0,23.50873,96.93034
1580906957.347105,21,0,1580906956.998247,41.20960932782387,29.07534957533537,161.8416,-1,-1,36.89720916748047,48.00724964208526,-9999,10673.13640191667,0.9687347412109375,0.0941314697265625,-0.1459808349609375,10673.13136691667,1.344504076145022,1.415923530716911,-0.09995831458775617,0.0002275025472044945,0.01063087582588196,0.0009550461545586586,-0.01872885227203369,-0.005525320768356323,0.001736879348754883,2,0.4341551923287472,-0.4845276617258735,-0.4470864848000964,-0.6138858718710459,0.9830992221832275,0.09979193657636642,-0.153484433889389,46.59192657470703,-10.78740882873535,0.21038818359375,2,10672.40189525,2,0,1580906956.643062,1580903939.50652,2106,0.4568741,0,0,2639.329,9,7,1580906940.646764,10670.200046,0,23.50873,96.93034
1580906957.357201,22,0,1580906956.998247,41.20960932782387,29.07534957533537,161.8416,-1,-1,36.89720916748047,48.00724964208526,-9999,10673.14644191667,0.967193603515625,0.093505859375,-0.1483154296875,10673.14140691667,1.344505995642081,1.416006763138317,-0.09995696886191177,-0.0007440187036991119,0.009082246571779251,1.281965523958206e-05,-0.01717019081115723,-0.006012260913848877,0.004264116287231445,2,0.4341738610717182,-0.4845531376766039,-0.4470693733671711,-0.613865070464339,0.9831121563911438,0.09979060292243958,-0.1534026265144348,46.59192657470703,-10.78740882873535,0.21038818359375,2,10672.40189525,2,0,1580906956.643062,1580903939.50652,2106,0.4568741,0,0,2639.329,9,7,1580906940.646764,10670.200046,0,23.50873,96.93034
1580906957.367228,23,0,1580906956.998247,41.20960932782387,29.07534957533537,161.8416,-1,-1,36.89720916748047,48.00724964208526,-9999,10673.15648291667,0.9684906005859375,0.0938873291015625,-0.1468048095703125,10673.15144691667,1.34452716160137,1.416087085534286,-0.09995821645181954,-0.001635911874473095,0.007723502814769745,0.0007020458579063416,-0.01782345771789551,-0.006318747997283936,0.003910064697265625,2,0.4341973271651888,-0.4845728685855751,-0.4470580849368945,-0.6138410414913755,0.9831242561340332,0.09979183971881866,-0.1533236354589462,46.71746063232422,-11.10273170471191,0.1121826171875,2,10672.40189525,2,0,1580906956.643062,1580903939.50652,2106,0.4568741,0,0,2639.329,9,7,1580906940.646764,10670.200046,0,23.50873,96.93034
1580906957.378761,24,0,1580906956.998247,41.20960932782387,29.07534957533537,161.8416,-1,-1,36.89720916748047,48.00724964208526,-9999,10673.16652291667,0.9697113037109375,0.0941162109375,-0.147216796875,10673.16148791667,1.344527412886702,1.416142528916194,-0.09997300567674809,-7.157027721405029e-05,0.005699500441551208,-0.0007075658068060875,-0.0175405740737915,-0.006440281867980957,0.003687381744384766,2,0.4342140082244988,-0.4845861570008326,-0.4470422000165664,-0.6138303584130633,0.9831313490867615,0.09980655461549759,-0.1532689034938812,46.71746063232422,-11.10273170471191,0.1121826171875,2,10672.40189525,2,0,1580906956.643062,1580903939.50652,2106,0.4568741,0,0,2639.329,9,7,1580906940.646764,10670.200046,0,23.50873,96.93034
1580906957.387288,25,0,1580906956.998247,41.20960932782387,29.07534957533537,161.8416,-1,-1,36.89720916748047,48.00724964208526,-9999,10673.17659391667,0.968841552734375,0.094818115234375,-0.14752197265625,10673.17152791667,1.344534900480467,1.416137117477748,-0.1000070129805211,-0.0001303255558013916,-0.0006427839398384094,-0.004266505595296621,-0.01623952388763428,-0.005802839994430542,0.004149794578552246,2,0.4342243802233399,-0.4845743925730014,-0.4470366181959139,-0.6138363186278967,0.9831271171569824,0.09984039515256882,-0.1532736867666245,46.61463165283203,-11.15011787414551,0.118927001953125,2,10672.40189525,2,0,1580906956.643062,1580903939.50652,2106,0.4568741,0,0,2639.329,9,7,1580906940.646764,10670.200046,0,23.50873,96.93034
1580906957.405854,26,0,1580906956.998247,41.20960932782387,29.07534957533537,161.8416,-1,-1,36.89720916748047,48.00724964208526,-9999,10673.18663391667,0.9651641845703125,0.0954437255859375,-0.14752197265625,10673.18156791667,1.344531435864069,1.416088679460787,-0.1000233853878302,0.0009016497060656548,-0.005691337399184704,-0.001500013750046492,-0.01581847667694092,-0.005468219518661499,0.003861546516418457,2,0.434217402377678,-0.4845562054252597,-0.4470417204704963,-0.6138519112023928,0.9831181168556213,0.09985668212175369,-0.1533210575580597,46.61463165283203,-11.15011787414551,0.118927001953125,2,10672.40189525,2,0,1580906956.643062,1580903939.50652,2106,0.4568741,0,0,2639.329,9,7,1580906940.646764,10670.200046,0,23.50873,96.93034
1580906957.40746,27,0,1580906956.998247,41.20960932782387,29.07534957533537,161.8416,-1,-1,36.89720916748047,48.00724964208526,-9999,10673.19667391667,0.962738037109375,0.0941619873046875,-0.15045166015625,10673.19160891667,1.344559326386078,1.416056800275035,-0.1000353351712567,-0.001422520726919174,-0.003420602530241013,-0.0007450459524989128,-0.01935255527496338,-0.004656136035919189,0.004091024398803711,2,0.4342204370715169,-0.4845374049976088,-0.4470540380315743,-0.6138557017093115,0.983112096786499,0.09986857324838638,-0.1533522307872772,46.54239654541016,-11.07344627380371,0.1209716796875,2,10672.40189525,2,0,1580906956.643062,1580903939.50652,2106,0.4568741,0,0,2639.329,9,7,1580906940.646764,10670.200046,0,23.50873,96.93034
1580906957.417289,28,0,1580906956.998247,41.20960932782387,29.07534957533537,161.8416,-1,-1,36.89720916748047,48.00724964208526,-9999,10673.20671491667,0.9638671875,0.0948028564453125,-0.14971923828125,10673.20164891667,1.344564198159793,1.416062221115163,-0.1000191870139264,0.000943431630730629,0.001393860206007957,0.002381504513323307,-0.02246785163879395,-0.005540370941162109,0.001598477363586426,2,0.4342182611941141,-0.4845419916990426,-0.4470586130412571,-0.6138501037009095,0.9831143021583557,0.09985250979661942,-0.1533471196889877,46.54239654541016,-11.07344627380371,0.1209716796875,2,10672.40189525,2,0,1580906956.643062,1580903939.50652,2106,0.4568741,0,0,2639.329,9,7,1580906940.646764,10670.200046,0,23.50873,96.93034
1580906957.428587,29,0,1580906956.998247,41.20960932782387,29.07534957533537,161.8416,-1,-1,36.89720916748047,48.00724964208526,-9999,10673.21675491667,0.9651947021484375,0.094970703125,-0.1485748291015625,10673.21171991667,1.344583909240998,1.416088235717859,-0.09998289599899164,0.0006217220798134804,0.002260187640786171,0.00378419179469347,-0.02221596240997314,-0.005656719207763672,0.0009023547172546387,2,0.434218398424836,-0.4845547637863124,-0.4470686954315325,-0.6138327305290567,0.9831220507621765,0.09981639683246613,-0.1533221304416656,46.67713165283203,-11.12969017028809,0.002105712890625,2,10672.40189525,2,0,1580906956.643062,1580903939.50652,2106,0.4568741,0,0,2639.329,9,7,1580906940.646764,10670.200046,0,23.50873,96.93034
1580906957.437524,30,0,1580906956.998247,41.20960932782387,29.07534957533537,161.8416,-1,-1,36.89720916748047,48.00724964208526,-9999,10673.22679491667,0.9674072265625,0.095306396484375,-0.147613525390625,10673.22175991667,1.34457777566825,1.416109722353022,-0.09995902983382415,0.001149424351751804,0.001221619546413422,0.001330490224063396,-0.02064996957778931,-0.005007326602935791,0.002636313438415527,2,0.4342148571632661,-0.4845686422196782,-0.4470685044296704,-0.6138244680305311,0.983127772808075,0.09979265183210373,-0.1533013731241226,46.67713165283203,-11.12969017028809,0.002105712890625,2,10672.40189525,2,0,1580906956.643062,1580903939.50652,2106,0.4568741,0,0,2639.329,9,7,1580906940.646764,10670.200046,0,23.50873,96.93034
1580906957.448088,31,0,1580906956.998247,41.20960932782387,29.07534957533537,161.8416,-1,-1,36.89720916748047,48.00724964208526,-9999,10673.23683591667,0.966278076171875,0.0937347412109375,-0.14984130859375,10673.23179991667,1.34460176129027,1.416153657570691,-0.09993533160000165,-0.001966702751815319,0.005309591069817543,0.003778498619794846,-0.01914840936660767,-0.004770040512084961,0.003234326839447021,2,0.4342236908246346,-0.4845828218312671,-0.4470726319965402,-0.6138040341042459,0.9831368327140808,0.09976907074451447,-0.1532585471868515,46.50089263916016,-11.25318336486816,0.1661376953125,2,10672.40189525,2,0,1580906956.643062,1580903939.50652,2106,0.4568741,0,0,2639.329,9,7,1580906940.646764,10670.200046,0,23.50873,96.93034
1580906957.468072,32,0,1580906956.998247,41.20960932782387,29.07534957533537,161.8416,-1,-1,36.89720916748047,48.00724964208526,-9999,10673.24687591667,0.970367431640625,0.09417724609375,-0.145843505859375,10673.24183991667,1.344588814223606,1.416159916138966,-0.09992301258508844,0.002201144583523273,0.001089280471205711,0.00260297954082489,-0.01893699169158936,-0.005917400121688843,0.001915931701660156,2,0.434218449697139,-0.4845906020175739,-0.447070558298036,-0.6138030246115563,0.9831389188766479,0.09975681453943253,-0.1532525718212128,46.50089263916016,-11.25318336486816,0.1661376953125,2,10672.40189525,2,0,1580906956.643062,1580903939.50652,2106,0.4568741,0,0,2639.329,9,7,1580906940.646764,10670.200046,0,23.50873,96.93034
1580906957.468943,33,0,1580906956.998247,41.20960932782387,29.07534957533537,161.8416,-1,-1,36.89720916748047,48.00724964208526,-9999,10673.25694691667,0.96649169921875,0.0915069580078125,-0.150115966796875,10673.25188091667,1.344607173912626,1.416159346583058,-0.09994061078749028,-0.0003423178568482399,-0.0003382358700037003,-0.001581248361617327,-0.01638698577880859,-0.006041795015335083,0.004128932952880859,2,0.43422777455425,-0.4845820866503096,-0.4470716619344841,-0.6138024705456209,0.9831372499465942,0.0997743234038353,-0.1532528847455978,46.55222320556641,-11.39466285705566,0.01910400390625,2,10672.40189525,2,0,1580906956.643062,1580903939.50652,2106,0.4568741,0,0,2639.329,9,7,1580906940.646764,10670.200046,0,23.50873,96.93034
1580906957.47907,34,0,1580906956.998247,41.20960932782387,29.07534957533537,161.8416,-1,-1,36.89720916748047,48.00724964208526,-9999,10673.26698691667,0.965240478515625,0.0918731689453125,-0.151092529296875,10673.26192091667,1.344622022649982,1.416226879396298,-0.09999577218025675,-0.003060605842620134,0.006052285432815552,-0.006142976693809032,-0.0172310471534729,-0.007302254438400269,0.002703309059143066,2,0.4342623307540186,-0.4845858232592962,-0.4470468564615263,-0.6137929888713085,0.9831419587135315,0.09982921183109283,-0.1531856209039688,46.55222320556641,-11.39466285705566,0.01910400390625,2,10672.40189525,2,0,1580906956.643062,1580903939.50652,2106,0.4568741,0,0,2639.329,9,7,1580906940.646764,10670.200046,0,23.50873,96.93034
1580906957.487815,35,0,1580906956.998247,41.20960932782387,29.07534957533537,161.8416,-1,-1,36.89720916748047,48.00724964208526,-9999,10673.27702691667,0.9647064208984375,0.0954132080078125,-0.1497955322265625,10673.27196091667,1.344660086178571,1.416358297417121,-0.1000504149695531,-0.002296983730047941,0.01534984074532986,-0.005076284520328045,-0.01991605758666992,-0.009111493825912476,-0.0002040863037109375,2,0.4343165938373649,-0.4846042827307654,-0.4470154667120573,-0.6137628707036937,0.983156681060791,0.09988357871770859,-0.1530555635690689,46.54572296142578,-11.16278648376465,0.0491943359375,2,10672.40189525,2,0,1580906956.643062,1580903939.50652,2106,0.4568741,0,0,2639.329,9,7,1580906940.646764,10670.200046,0,23.50873,96.93034
1580906957.49795,36,0,1580906956.998247,41.20960932782387,29.07534957533537,161.8416,-1,-1,36.89720916748047,48.00724964208526,-9999,10673.28706691667,0.971527099609375,0.0955352783203125,-0.1449127197265625,10673.28200191667,1.344684816187947,1.416395336235172,-0.100097162963606,-0.001813087612390518,0.002154674381017685,-0.005569235421717167,-0.02182447910308838,-0.005511283874511719,-2.765655517578125e-05,2,0.4343442502319686,-0.4845986487515618,-0.4470025870126464,-0.6137571669864927,0.9831578135490417,0.09993009269237518,-0.153018444776535,46.54572296142578,-11.16278648376465,0.0491943359375,2,10672.40189525,2,0,1580906956.643062,1580903939.50652,2106,0.4568741,0,0,2639.329,9,7,1580906940.646764,10670.200046,0,23.50873,96.93034
1580906957.507872,37,0,1580906956.998247,41.20960932782387,29.07534957533537,161.8416,-1,-1,36.89720916748047,48.00724964208526,-9999,10673.29710791667,0.966552734375,0.094482421875,-0.14874267578125,10673.29207191667,1.344718550529532,1.416398626810219,-0.1001394762024257,-0.001081569120287895,0.001331169158220291,-0.005622290540486574,-0.01506125926971436,-0.004256457090377808,0.005736231803894043,2,0.4343652650158435,-0.4845818116581755,-0.4470009840003543,-0.6137568209304192,0.9831541776657104,0.0999721959233284,-0.1530145704746246,46.55792999267578,-11.16008567810059,0.158538818359375,2,10672.40189525,2,0,1580906956.643062,1580903939.50652,2106,0.4568741,0,0,2639.329,9,7,1580906940.646764,10670.200046,0,23.50873,96.93034
1580906957.525607,38,0,1580906956.998247,41.20960932782387,29.07534957533537,161.8416,-1,-1,36.89720916748047,48.00724964208526,-9999,10673.30714791667,0.966064453125,0.093719482421875,-0.1475677490234375,10673.30211291667,1.34474993563473,1.416386326384785,-0.1001607517111588,-0.003191324882209301,-0.004109933972358704,-0.001571089960634708,-0.01792609691619873,-0.00572735071182251,0.002757072448730469,2,0.4343762735372077,-0.4845658872883921,-0.4470075941782518,-0.6137566200747032,0.9831500053405762,0.09999336302280426,-0.1530263125896454,46.55792999267578,-11.16008567810059,0.158538818359375,2,10672.40189525,2,0,1580906956.643062,1580903939.50652,2106,0.4568741,0,0,2639.329,9,7,1580906940.646764,10670.200046,0,23.50873,96.93034
1580906957.528777,39,0,1580906956.998247,41.20960932782387,29.07534957533537,161.8416,-1,-1,36.89720916748047,48.00724964208526,-9999,10673.31718791667,0.9615478515625,0.093597412109375,-0.15142822265625,10673.31215291667,1.344815805184974,1.416481254896168,-0.1001691634707882,-0.00369506748393178,0.01010490022599697,-0.0009962525218725204,-0.01851963996887207,-0.005995124578475952,0.003868818283081055,2,0.4344158530847612,-0.484578621534118,-0.4470049563913708,-0.6137204949628078,0.9831637144088745,0.1000017300248146,-0.1529328525066376,46.65790557861328,-11.13253593444824,-0.08282470703125,2,10672.40189525,2,0,1580906956.643062,1580903939.50652,2106,0.4568741,0,0,2639.329,9,7,1580906940.646764,10670.200046,0,23.50873,96.93034
1580906957.537954,40,0,1580906956.998247,41.20960932782387,29.07534957533537,161.8416,-1,-1,36.89720916748047,48.00724964208526,-9999,10673.32722891667,0.96282958984375,0.0949554443359375,-0.14813232421875,10673.32219291667,1.344888957495083,1.416607978073415,-0.1001425178503447,-0.006563291884958744,0.01103940606117249,0.002881576307117939,-0.02345502376556396,-0.006914585828781128,-0.0003145933151245117,2,0.4344542681086385,-0.484608248364457,-0.4470069617021982,-0.6136684365456581,0.9831857085227966,0.09997522085905075,-0.152808666229248,46.65790557861328,-11.13253593444824,-0.08282470703125,2,10672.40189525,2,0,1580906956.643062,1580903939.50652,2106,0.4568741,0,0,2639.329,9,7,1580906940.646764,10670.200046,0,23.50873,96.93034
1580906957.548065,41,0,1580906956.998247,41.20960932782387,29.07534957533537,161.8416,-1,-1,36.89720916748047,48.00724964208526,-9999,10673.33726891667,0.9610137939453125,0.097686767578125,-0.1475830078125,10673.33223391667,1.344983685601395,1.416734782296699,-0.1000618986388795,-0.006336004938930273,0.01068252325057983,0.009302348829805851,-0.02314656972885132,-0.005460828542709351,0.00162208080291748,2,0.4344824034629701,-0.4846466864241009,-0.44702995939296,-0.6136015851430057,0.9832132458686829,0.09989500790834427,-0.1526852548122406,46.74463653564453,-11.03862953186035,0.289031982421875,2,10672.40189525,2,0,1580906956.643062,1580903939.50652,2106,0.4568741,0,0,2639.329,9,7,1580906940.646764,10670.200046,0,23.50873,96.93034
1580906957.55852,42,0,1580906956.998247,41.20960932782387,29.07534957533537,161.8416,-1,-1,36.89720916748047,48.00724964208526,-9999,10673.34733991667,0.959014892578125,0.0964508056640625,-0.1507568359375,10673.34227391667,1.345046973658132,1.41693220555613,-0.09995173681764893,-0.003992955666035414,0.0190802700817585,0.01187815796583891,-0.02382862567901611,-0.003138422966003418,0.002924442291259766,2,0.4345102870597085,-0.4847209394066192,-0.447035797261372,-0.6135189816388388,0.9832543134689331,0.09978539496660233,-0.1524928361177444,46.74463653564453,-11.03862953186035,0.289031982421875,2,10672.40189525,2,0,1580906956.643062,1580903939.50652,2106,0.4568741,0,0,2639.329,9,7,1580906940.646764,10670.200046,0,23.50873,96.93034
1580906957.568131,43,0,1580906956.998247,41.20960932782387,29.07534957533537,161.8416,-1,-1,36.89720916748047,48.00724964208526,-9999,10673.35737991667,0.965484619140625,0.0945587158203125,-0.148406982421875,10673.35231391667,1.345117582655668,1.417201388801489,-0.09982295114948468,-0.003078279551118612,0.02731877565383911,0.01529110874980688,-0.02670526504516602,-0.002704799175262451,0.0004180073738098145,2,0.4345506900392555,-0.4848202129273672,-0.4470332174223898,-0.6134137423689542,0.983307957649231,0.09965725243091583,-0.1522301137447357,46.56992340087891,-11.10223960876465,0.220611572265625,2,10672.40189525,2,0,1580906956.643062,1580903939.50652,2106,0.4568741,0,0,2639.329,9,7,1580906940.646764,10670.200046,0,23.50873,96.93034
1580906957.590954,44,0,1580906956.998247,41.20960932782387,29.07534957533537,161.8416,-1,-1,36.89720916748047,48.00724964208526,-9999,10673.36741991667,0.9715576171875,0.0923614501953125,-0.1456451416015625,10673.36235391667,1.345160909603118,1.417438354482873,-0.09971915186161869,-0.00201434688642621,0.02372696995735168,0.01149876695126295,-0.02305895090103149,-0.00473746657371521,3.337860107421875e-05,2,0.4345844254135483,-0.4849093071812488,-0.4470226279960849,-0.6133271260358124,0.9833542108535767,0.09955396503210068,-0.1519986838102341,46.56992340087891,-11.10223960876465,0.220611572265625,2,10672.40189525,2,0,1580906956.643062,1580903939.50652,2106,0.4568741,0,0,2639.329,9,7,1580906940.646764,10670.200046,0,23.50873,96.93034
1580906957.596298,45,0,1580906956.998247,41.20960932782387,29.07534957533537,161.8416,-1,-1,36.89720916748047,48.00724964208526,-9999,10673.37746091667,0.9755706787109375,0.09307861328125,-0.1443328857421875,10673.37239491667,1.34520007932082,1.417575018991132,-0.09966924973903496,-7.929373532533646e-05,0.01132462918758392,0.004023273475468159,-0.01568418741226196,-0.007159620523452759,0.003378450870513916,2,0.4346101822863627,-0.4849551183853651,-0.4470182131978982,-0.6132758458442997,0.9833798408508301,0.09950431436300278,-0.1518650501966476,46.61917877197266,-11.2401294708252,-0.064727783203125,2,10672.40189525,2,0,1580906956.643062,1580903939.50652,2106,0.4568741,0,0,2639.329,9,7,1580906940.646764,10670.200046,0,23.50873,96.93034
1580906957.598253,46,0,1580906956.998247,41.20960932782387,29.07534957533537,161.8416,-1,-1,36.89720916748047,48.00724964208526,-9999,10673.38750091667,0.97296142578125,0.093048095703125,-0.1461029052734375,10673.38246491667,1.345221940395141,1.417671813190383,-0.09965364256156087,-0.001608449034392834,0.01138065196573734,0.0009479429572820663,-0.01048213243484497,-0.00673210620880127,0.005617618560791016,2,0.4346326756783974,-0.4849839133035583,-0.4470080167168322,-0.6132444795945811,0.9833959937095642,0.09948877990245819,-0.1517700850963593,46.61917877197266,-11.2401294708252,-0.064727783203125,2,10672.40189525,2,0,1580906956.643062,1580903939.50652,2106,0.4568741,0,0,2639.329,9,7,1580906940.646764,10670.200046,0,23.50873,96.93034
1580906957.608272,47,0,1580906956.998247,41.20960932782387,29.07534957533537,161.8416,-1,-1,36.89720916748047,48.00724964208526,-9999,10673.39754091667,0.9710540771484375,0.0937957763671875,-0.1456146240234375,10673.39250591667,1.345273415202709,1.417693132372723,-0.09964874829134343,-0.004941453691571951,0.001029891893267632,0.001234114170074463,-0.0125306248664856,-0.007307052612304688,0.003460466861724854,2,0.4346485022570281,-0.4849804938304037,-0.4470204803128911,-0.6132269378624202,0.9833997488021851,0.0994839146733284,-0.1517491936683655,46.50588226318359,-11.19797706604004,0.19610595703125,2,10672.40189525,2,0,1580906956.643062,1580903939.50652,2106,0.4568741,0,0,2639.329,9,7,1580906940.646764,10670.200046,0,23.50873,96.93034
1580906957.618289,48,0,1580906956.998247,41.20960932782387,29.07534957533537,161.8416,-1,-1,36.89720916748047,48.00724964208526,-9999,10673.40758091667,0.9698638916015625,0.095123291015625,-0.1435546875,10673.40254591667,1.345303130706981,1.417629984053804,-0.09964422382703257,-0.001403444446623325,-0.006687416695058346,0.0008996212854981422,-0.01349794864654541,-0.005959779024124146,0.004545152187347412,2,0.4346403140532354,-0.4849557888530503,-0.4470445084791855,-0.6132347125312896,0.9833905696868896,0.09947941452264786,-0.1518113613128662,46.47431182861328,-10.91354179382324,0.244476318359375,2,10672.40189525,2,0,1580906956.643062,1580903939.50652,2106,0.4568741,0,0,2639.329,9,7,1580906940.646764,10670.200046,0,23.50873,96.93034
1580906957.62867,49,0,1580906956.998247,41.20960932782387,29.07534957533537,161.8416,-1,-1,36.89720916748047,48.00724964208526,-9999,10673.41762191667,0.96435546875,0.0935211181640625,-0.14691162109375,10673.41258591667,1.345338035838614,1.417538505674977,-0.0996122258487642,-0.004398844204843044,-0.009550110436975956,0.004189555533230305,-0.01589822769165039,-0.005210727453231812,0.005245864391326904,2,0.4346192138869032,-0.4849280859119133,-0.4470835724954612,-0.613242946156766,0.9833796620368958,0.09944757074117661,-0.1519017815589905,46.47431182861328,-10.91354179382324,0.244476318359375,2,10672.40189525,2,0,1580906956.643062,1580903939.50652,2106,0.4568741,0,0,2639.329,9,7,1580906940.646764,10670.200046,0,23.50873,96.93034
1580906957.647682,50,0,1580906956.998247,41.20960932782387,29.07534957533537,161.8416,-1,-1,36.89720916748047,48.00724964208526,-9999,10673.42769191667,0.9621734619140625,0.0922088623046875,-0.149383544921875,10673.42262691667,1.345395947586587,1.417507088813116,-0.09956089141720154,-0.003775131888687611,-0.003641886636614799,0.005644174292683601,-0.01887387037277222,-0.005235791206359863,0.00491178035736084,2,0.4346114417493272,-0.4849187009829948,-0.447121864483538,-0.6132282176403916,0.9833801984786987,0.0993964895606041,-0.151933491230011,46.38036346435547,-11.23951148986816,0.064544677734375,2,10672.40189525,2,0,1580906956.643062,1580903939.50652,2106,0.4568741,0,0,2639.329,9,7,1580906940.646764,10670.200046,0,23.50873,96.93034
1580906957.650444,51,0,1580906956.998247,41.20960932782387,29.07534957533537,161.8416,-1,-1,36.89720916748047,48.00724964208526,-9999,10673.43773291667,0.96551513671875,0.0927276611328125,-0.148590087890625,10673.43266691667,1.345454438446257,1.417529347511762,-0.09948474255450802,-0.004773018416017294,0.002691376954317093,0.008409866131842136,-0.02434730529785156,-0.007357090711593628,0.0002369284629821777,2,0.4346088203319408,-0.4849317474239159,-0.4471551967346211,-0.613195357551626,0.9833909869194031,0.09932071715593338,-0.1519127488136292,46.38036346435547,-11.23951148986816,0.064544677734375,2,10672.40189525,2,0,1580906956.643062,1580903939.50652,2106,0.4568741,0,0,2639.329,9,7,1580906940.646764,10670.200046,0,23.50873,96.93034
1580906957.658498,52,0,1580906956.998247,41.20960932782387,29.07534957533537,161.8416,-1,-1,36.89720916748047,48.00724964208526,-9999,10673.44777291667,0.9702301025390625,0.0944976806640625,-0.144989013671875,10673.44270691667,1.345526628561326,1.417518500990308,-0.09938484822087697,-0.00420762924477458,-0.001630401238799095,0.009768878109753132,-0.02179205417633057,-0.006967514753341675,0.0006916522979736328,2,0.4345952987645701,-0.4849375893326688,-0.4472062481760324,-0.6131630514399071,0.9833990931510925,0.09922131896018982,-0.1519249230623245,46.49076080322266,-11.01992988586426,0.359375,2,10672.40189525,2,0,1580906956.643062,1580903939.50652,2106,0.4568741,0,0,2639.329,9,7,1580906940.646764,10670.200046,0,23.50873,96.93034
1580906957.66855,53,0,1580906956.998247,41.20960932782387,29.07534957533537,161.8416,-1,-1,36.89720916748047,48.00724964208526,-9999,10673.45781291667,0.9677581787109375,0.0944671630859375,-0.1463470458984375,10673.45274691667,1.345588488444879,1.417458196468793,-0.09926134826541129,-0.003934546373784542,-0.005168382078409195,0.0124782957136631,-0.01613408327102661,-0.005593150854110718,0.004460811614990234,2,0.434561413187242,-0.4849364132341863,-0.4472711762879847,-0.6131407111850868,0.9834021329879761,0.09909842908382416,-0.1519861072301865,46.49076080322266,-11.01992988586426,0.359375,2,10672.40189525,2,0,1580906956.643062,1580903939.50652,2106,0.4568741,0,0,2639.329,9,7,1580906940.646764,10670.200046,0,23.50873,96.93034
1580906957.679425,54,0,1580906956.998247,41.20960932782387,29.07534957533537,161.8416,-1,-1,36.89720916748047,48.00724964208526,-9999,10673.46785391667,0.972991943359375,0.0929107666015625,-0.1416778564453125,10673.46281791667,1.34567698811097,1.417276250948247,-0.09914355605349444,-0.00596920121461153,-0.02091458812355995,0.01264793984591961,-0.01796412467956543,-0.004361718893051147,0.003680706024169922,2,0.4345084418861829,-0.4848907187082506,-0.4473691563057918,-0.6131428839313551,0.9833859205245972,0.09898121654987335,-0.1521668136119843,46.74663543701172,-10.90658378601074,0.12982177734375,2,10672.40189525,2,0,1580906956.643062,1580903939.50652,2106,0.4568741,0,0,2639.329,9,7,1580906940.646764,10670.200046,0,23.50873,96.93034
1580906957.688694,55,0,1580906956.998247,41.20960932782387,29.07534957533537,161.8416,-1,-1,36.89720916748047,48.00724964208526,-9999,10673.47789391667,0.9670867919921875,0.09197998046875,-0.14801025390625,10673.47285891667,1.345744464356855,1.417085462722715,-0.09906391690998895,-0.005696405656635761,-0.01948621496558189,0.008185585960745811,-0.01356363296508789,-0.005670815706253052,0.007974743843078613,2,0.4344592620108337,-0.4848374197245953,-0.4474524896403458,-0.6131592005391666,0.9833648204803467,0.09890196472406387,-0.1523556560277939,46.74663543701172,-10.90658378601074,0.12982177734375,2,10672.40189525,2,0,1580906956.643062,1580903939.50652,2106,0.4568741,0,0,2639.329,9,7,1580906940.646764,10670.200046,0,23.50873,96.93034
1580906957.714007,56,0,1580906956.998247,41.20960932782387,29.07534957533537,161.8416,-1,-1,36.89720916748047,48.00724964208526,-9999,10673.48793391667,0.9614410400390625,0.09259033203125,-0.151763916015625,10673.48289891667,1.34581191482002,1.41699885081713,-0.09900587291281349,-0.005796540528535843,-0.008047671988606453,0.00745215080678463,-0.01628744602203369,-0.007398247718811035,0.004703760147094727,2,0.4344396814813807,-0.4848106133146388,-0.4475073658433633,-0.6131539895977366,0.9833570122718811,0.09884420782327652,-0.1524416655302048,46.56468963623047,-11.18979835510254,0.131622314453125,2,10672.40189525,2,0,1580906956.643062,1580903939.50652,2106,0.4568741,0,0,2639.329,9,7,1580906940.646764,10670.200046,0,23.50873,96.93034
1580906957.716259,57,0,1580906956.998247,41.20960932782387,29.07534957533537,161.8416,-1,-1,36.89720916748047,48.00724964208526,-9999,10673.49797391667,0.96295166015625,0.0918731689453125,-0.1511688232421875,10673.49293891667,1.345850576986515,1.417030559821289,-0.09896966438717496,-0.002908864058554173,0.002848992124199867,0.005251296795904636,-0.02337604761123657,-0.006309241056442261,-0.0010184645652771,2,0.4344457125451154,-0.484820989822942,-0.4475219936576694,-0.6131310220038666,0.9833655953407288,0.0988081768155098,-0.1524110585451126,46.56468963623047,-11.18979835510254,0.131622314453125,2,10672.40189525,2,0,1580906956.643062,1580903939.50652,2106,0.4568741,0,0,2639.329,9,7,1580906940.646764,10670.200046,0,23.50873,96.93034
1580906957.718786,58,0,1580906956.998247,41.20960932782387,29.07534957533537,161.8416,-1,-1,36.89720916748047,48.00724964208526,-9999,10673.50804491667,0.96624755859375,0.092987060546875,-0.14849853515625,10673.50297891667,1.345905243423352,1.417118342957707,-0.09895552205258518,-0.002883297856897116,0.00858570821583271,0.0006919652223587036,-0.02334499359130859,-0.007210671901702881,-0.001104831695556641,2,0.4344745874498183,-0.4848395247237325,-0.4475234225688735,-0.6130947641849424,0.9833802580833435,0.09879410266876221,-0.1523249298334122,46.51094818115234,-11.24301719665527,0.1817626953125,2,10672.40189525,2,0,1580906956.643062,1580903939.50652,2106,0.4568741,0,0,2639.329,9,7,1580906940.646764,10670.200046,0,23.50873,96.93034
1580906957.728937,59,0,1580906956.998247,41.20960932782387,29.07534957533537,161.8416,-1,-1,36.89720916748047,48.00724964208526,-9999,10673.51808591667,0.96795654296875,0.093658447265625,-0.1452484130859375,10673.51301991667,1.345929648603015,1.41718736670151,-0.09892957381002031,-0.00227044615894556,0.00754179060459137,0.002351175062358379,-0.02090150117874146,-0.006254017353057861,0.0004144906997680664,2,0.4344884919718522,-0.4848618556397076,-0.4475228208638685,-0.6130677586533861,0.9833933711051941,0.09876827895641327,-0.1522574573755264,46.51094818115234,-11.24301719665527,0.1817626953125,2,10672.40189525,2,0,1580906956.643062,1580903939.50652,2106,0.4568741,0,0,2639.329,9,7,1580906940.646764,10670.200046,0,23.50873,96.93034
1580906957.73873,60,0,1580906956.998247,41.20960932782387,29.07534957533537,161.8416,-1,-1,36.89720916748047,48.00724964208526,-9999,10673.52812591667,0.9670562744140625,0.0929412841796875,-0.1465911865234375,10673.52305991667,1.34597288535493,1.417216982223681,-0.09891946871702367,-0.003705623559653759,-0.0001411624252796173,0.0007442235946655273,-0.01826715469360352,-0.005679339170455933,0.004535794258117676,2,0.4345027451518501,-0.4848640305745179,-0.4475323025664534,-0.6130488972305256,0.9833987355232239,0.09875822812318802,-0.1522284746170044,46.59607696533203,-11.14767265319824,0.22088623046875,2,10672.40189525,2,0,1580906956.643062,1580903939.50652,2106,0.4568741,0,0,2639.329,9,7,1580906940.646764,10670.200046,0,23.50873,96.93034
1580906957.749083,61,0,1580906956.998247,41.20960932782387,29.07534957533537,161.8416,-1,-1,36.89720916748047,48.00724964208526,-9999,10673.53816591667,0.963226318359375,0.09259033203125,-0.150054931640625,10673.53309991667,1.345987956307741,1.417334324265384,-0.09890628197616259,-0.0003511058166623116,0.01476428471505642,0.001856892369687557,-0.01721823215484619,-0.005528867244720459,0.00442039966583252,2,0.434528871352177,-0.4849000103353971,-0.4475149382459589,-0.6130146172643628,0.9834179282188416,0.09874510020017624,-0.1521132737398148,46.59607696533203,-11.14767265319824,0.22088623046875,2,10672.40189525,2,0,1580906956.643062,1580903939.50652,2106,0.4568741,0,0,2639.329,9,7,1580906940.646764,10670.200046,0,23.50873,96.93034
1580906957.773279,62,0,1580906956.998247,41.20960932782387,29.07534957533537,161.8416,-1,-1,36.89720916748047,48.00724964208526,-9999,10673.54820591667,0.9653778076171875,0.092926025390625,-0.1470489501953125,10673.54317091667,1.346029860644486,1.41744433163762,-0.09889405929446581,-0.004186687059700489,0.01123328134417534,0.002564660273492336,-0.02285122871398926,-0.006279617547988892,-2.110004425048828e-05,2,0.4345601149550977,-0.4849276845389017,-0.4475071480418253,-0.6129763548287651,0.9834359288215637,0.09873294085264206,-0.1520052999258041,46.61157989501953,-11.05261039733887,0.31134033203125,2,10672.40189525,2,0,1580906956.643062,1580903939.50652,2106,0.4568741,0,0,2639.329,9,7,1580906940.646764,10670.200046,0,23.50873,96.93034
1580906957.774489,63,0,1580906956.998247,41.20960932782387,29.07534957533537,161.8416,-1,-1,36.89720916748047,48.00724964208526,-9999,10673.55824691667,0.9631195068359375,0.0934906005859375,-0.149566650390625,10673.55321091667,1.346049852696046,1.417592588476362,-0.09886512848360655,-0.001179940067231655,0.0145056489855051,0.004042753949761391,-0.0205116868019104,-0.006327003240585327,0.002365827560424805,2,0.4345898919185555,-0.4849759504466021,-0.4474887257505166,-0.6129303750394115,0.9834611415863037,0.09870415180921555,-0.1518599092960358,46.61157989501953,-11.05261039733887,0.31134033203125,2,10672.40189525,2,0,1580906956.643062,1580903939.50652,2106,0.4568741,0,0,2639.329,9,7,1580906940.646764,10671.145185,0,23.49551,96.9305
1580906957.779223,64,0,1580906956.998247,41.20960932782387,29.07534957533537,161.8416,-1,-1,36.89720916748047,48.00724964208526,-9999,10673.56828691667,0.96771240234375,0.093353271484375,-0.147979736328125,10673.56325191667,1.346098980535929,1.417768624230567,-0.09881251483355442,-0.002123764250427485,0.01624469272792339,0.005454761907458305,-0.02240514755249023,-0.005404770374298096,0.0007740259170532227,2,0.4346261150324116,-0.4850323210320321,-0.4474795215854792,-0.6128668266369531,0.9834930300712585,0.09865179657936096,-0.1516875773668289,46.62404632568359,-11.20886039733887,0.134918212890625,2,10672.40189525,2,0,1580906956.643062,1580903939.50652,2106,0.4568741,0,0,2639.329,9,7,1580906940.646764,10671.145185,0,23.49551,96.9305
1580906957.789016,65,0,1580906956.998247,41.20960932782387,29.07534957533537,161.8416,-1,-1,36.89720916748047,48.00724964208526,-9999,10673.57832691667,0.9703216552734375,0.0929718017578125,-0.14532470703125,10673.57329191667,1.346128954268123,1.417917910036218,-0.09876425236360908,-0.001860682386904955,0.01409591361880302,0.004575346596539021,-0.01980793476104736,-0.005463451147079468,0.0005362033843994141,2,0.4346529235708442,-0.485083588564762,-0.4474691205966094,-0.6128149511721085,0.9835204482078552,0.09860377013683319,-0.1515415012836456,46.62404632568359,-11.20886039733887,0.134918212890625,2,10672.40189525,2,0,1580906956.643062,1580903939.50652,2106,0.4568741,0,0,2639.329,9,7,1580906940.646764,10671.145185,0,23.49551,96.9305
1580906957.799079,66,0,1580906956.998247,41.20960932782387,29.07534957533537,161.8416,-1,-1,36.89720916748047,48.00724964208526,-9999,10673.58836791667,0.9722747802734375,0.0924835205078125,-0.143829345703125,10673.58333191667,1.346172339409153,1.417999195928781,-0.09872712761818563,-0.002533663064241409,0.007181815803050995,0.004066949710249901,-0.01616179943084717,-0.005548477172851562,0.003508448600769043,2,0.434671018525207,-0.4851082934948544,-0.4474746090333092,-0.6127785014746406,0.9835363626480103,0.09856682270765305,-0.1514620929956436,46.56714630126953,-11.35397911071777,0.291473388671875,2,10672.40189525,2,0,1580906956.643062,1580903939.50652,2106,0.4568741,0,0,2639.329,9,7,1580906940.646764,10671.145185,0,23.49551,96.9305
1580906957.809158,67,0,1580906956.998247,41.20960932782387,29.07534957533537,161.8416,-1,-1,36.89720916748047,48.00724964208526,-9999,10673.59843791667,0.9699554443359375,0.0926513671875,-0.1459808349609375,10673.59337191667,1.346190017479794,1.418036742008024,-0.09869855224698153,-0.0006065722554922104,0.003503788262605667,0.003255808725953102,-0.01420187950134277,-0.00614553689956665,0.005257010459899902,2,0.4346755398389124,-0.4851230558769348,-0.4474794538402121,-0.6127600219989856,0.9835447669029236,0.09853838384151459,-0.1514255851507187,46.56714630126953,-11.35397911071777,0.291473388671875,2,10672.40189525,2,0,1580906956.643062,1580903939.50652,2106,0.4568741,0,0,2639.329,9,7,1580906940.646764,10671.145185,0,23.49551,96.9305
1580906957.829185,68,0,1580906956.998247,41.20960932782387,29.07534957533537,161.8416,-1,-1,36.89720916748047,48.00724964208526,-9999,10673.60847891667,0.9683074951171875,0.0930633544921875,-0.145660400390625,10673.60341291667,1.346219780461545,1.418047235005319,-0.0986790217631915,-0.001096860505640507,0.0009564757347106934,0.001159634441137314,-0.0146477222442627,-0.006324440240859985,0.004194378852844238,2,0.4346794890987399,-0.4851246785928473,-0.4474915005680998,-0.6127472139922611,0.9835483431816101,0.09851895272731781,-0.1514155715703964,46.54965972900391,-11.23771858215332,0.2403564453125,2,10672.40189525,2,0,1580906956.643062,1580903939.50652,2106,0.4568741,0,0,2639.329,9,7,1580906940.646764,10671.145185,0,23.49551,96.9305
1580906957.832431,69,0,1580906956.998247,41.20960932782387,29.07534957533537,161.8416,-1,-1,36.89720916748047,48.00724964208526,-9999,10673.61851891667,0.97039794921875,0.092987060546875,-0.146026611328125,10673.61345291667,1.346223452848636,1.418009846925461,-0.09865588102922,0.0003023687750101089,-0.004055563360452652,0.002043567597866058,-0.01765036582946777,-0.005843609571456909,0.00330054759979248,2,0.4346654295501785,-0.4851181572380476,-0.4475068789115088,-0.6127509937260709,0.9835448265075684,0.09849592298269272,-0.1514526754617691,46.54965972900391,-11.23771858215332,0.2403564453125,2,10672.40189525,2,0,1580906956.643062,1580903939.50652,2106,0.4568741,0,0,2639.329,9,7,1580906940.646764,10671.145185,0,23.49551,96.9305
1580906957.839257,70,0,1580906956.998247,41.20960932782387,29.07534957533537,161.8416,-1,-1,36.89720916748047,48.00724964208526,-9999,10673.62855891667,0.9698333740234375,0.0914154052734375,-0.1452178955078125,10673.62352391667,1.346225161857607,1.417950415300816,-0.09865910311356896,0.00169040821492672,-0.005274491384625435,-0.0004944251850247383,-0.01611512899398804,-0.005663782358169556,0.003526985645294189,2,0.4346534732201989,-0.4850987723383574,-0.4475194592094746,-0.6127656197966336,0.9835354685783386,0.0984991267323494,-0.1515110731124878,46.65213775634766,-11.11169624328613,0.2679443359375,2,10672.40189525,2,0,1580906956.643062,1580903939.50652,2106,0.4568741,0,0,2639.329,9,7,1580906940.646764,10671.145185,0,23.49551,96.9305
1580906957.84919,71,0,1580906956.998247,41.20960932782387,29.07534957533537,161.8416,-1,-1,36.89720916748047,48.00724964208526,-9999,10673.63859891667,0.9674072265625,0.0921478271484375,-0.1464385986328125,10673.63356391667,1.346195714947123,1.417894172270586,-0.0986812875657838,0.003319459967315197,-0.004727508872747421,-0.002723520621657372,-0.01528060436248779,-0.006845533847808838,0.004131436347961426,2,0.4346400564435994,-0.4850824464352312,-0.4475167876404879,-0.6127901401387527,0.9835249185562134,0.09852120280265808,-0.1515660881996155,46.65213775634766,-11.11169624328613,0.2679443359375,2,10672.40189525,2,0,1580906956.643062,1580903939.50652,2106,0.4568741,0,0,2639.329,9,7,1580906940.646764,10671.145185,0,23.49551,96.9305
1580906957.859333,72,0,1580906956.998247,41.20960932782387,29.07534957533537,161.8416,-1,-1,36.89720916748047,48.00724964208526,-9999,10673.64863991667,0.963775634765625,0.093292236328125,-0.1470947265625,10673.64360391667,1.346165430241176,1.417849961554763,-0.098738167193895,0.003158338367938995,-0.0052604079246521,-0.007588316686451435,-0.01812171936035156,-0.007161736488342285,0.003411054611206055,2,0.4346391445640073,-0.4850613024748123,-0.4475019706808769,-0.6128182341410696,0.9835125803947449,0.09857781231403351,-0.1516086906194687,46.74933624267578,-11.23060035705566,0.388671875,2,10672.40189525,2,0,1580906956.643062,1580903939.50652,2106,0.4568741,0,0,2639.329,9,7,1580906940.646764,10671.145185,0,23.49551,96.9305
1580906957.869426,73,0,1580906956.998247,41.20960932782387,29.07534957533537,161.8416,-1,-1,36.89720916748047,48.00724964208526,-9999,10673.65867991667,0.9599151611328125,0.091949462890625,-0.151641845703125,10673.65364491667,1.346122860526028,1.417921049720929,-0.09878063740416446,0.003590567968785763,0.007467970252037048,-0.004650524351745844,-0.02069181203842163,-0.005800187587738037,0.002760648727416992,2,0.4346568486081884,-0.4850817918829834,-0.4474622091983211,-0.6128186108751942,0.9835193157196045,0.09862007200717926,-0.1515381634235382,46.74933624267578,-11.23060035705566,0.388671875,2,10672.40189525,2,0,1580906956.643062,1580903939.50652,2106,0.4568741,0,0,2639.329,9,7,1580906940.646764,10671.145185,0,23.49551,96.9305
1580906957.889193,74,0,1580906956.998247,41.20960932782387,29.07534957533537,161.8416,-1,-1,36.89720916748047,48.00724964208526,-9999,10673.66871991667,0.9602203369140625,0.0935211181640625,-0.1515960693359375,10673.66368491667,1.346079601548059,1.418134452963564,-0.09881478224916514,0.006022035144269466,0.02138298749923706,-0.005208723247051239,-0.02517646551132202,-0.006704092025756836,-0.0007461309432983398,2,0.4347038804384715,-0.4851480799270274,-0.4473934902469487,-0.6127829307585015,0.9835482835769653,0.09865404665470123,-0.1513277590274811,46.77375030517578,-11.45165824890137,0.1734619140625,2,10672.40189525,2,0,1580906956.643062,1580903939.50652,2106,0.4568741,0,0,2639.329,9,7,1580906940.646764,10671.145185,0,23.49551,96.9305
1580906957.890311,75,0,1580906956.998247,41.20960932782387,29.07534957533537,161.8416,-1,-1,36.89720916748047,48.00724964208526,-9999,10673.67879091667,0.9646148681640625,0.0940399169921875,-0.147857666015625,10673.67372491667,1.346009789283634,1.418425034290074,-0.09883503241278226,0.006121016107499599,0.02924997173249722,-0.003547599073499441,-0.0263628363609314,-0.006174862384796143,-0.00393223762512207,2,0.4347577763236338,-0.4852472189038326,-0.4473035295345176,-0.6127317531766007,0.9835901260375977,0.09867420047521591,-0.1510416269302368,46.77375030517578,-11.45165824890137,0.1734619140625,2,10672.40189525,2,0,1580906956.643062,1580903939.50652,2106,0.4568741,0,0,2639.329,9,7,1580906940.646764,10671.145185,0,23.49551,96.9305
1580906957.899471,76,0,1580906956.998247,41.20960932782387,29.07534957533537,161.8416,-1,-1,36.89720916748047,48.00724964208526,-9999,10673.68883091667,0.9705963134765625,0.0933380126953125,-0.146148681640625,10673.68376491667,1.345947232929668,1.418721766173789,-0.09885042896036576,0.007384953089058399,0.03118928335607052,-0.002842926885932684,-0.02314078807830811,-0.004496574401855469,0.0003831386566162109,2,0.4348133595015874,-0.4853478945396708,-0.4472157644264156,-0.6126766469523743,0.9836333990097046,0.09868952631950378,-0.150749534368515,46.50325775146484,-11.19833946228027,0.246185302734375,2,10672.40189525,2,0,1580906956.643062,1580903939.50652,2106,0.4568741,0,0,2639.329,9,7,1580906940.646764,10671.145185,0,23.49551,96.9305
1580906957.909606,77,0,1580906956.998247,41.20960932782387,29.07534957533537,161.8416,-1,-1,36.89720916748047,48.00724964208526,-9999,10673.69887191667,0.9732818603515625,0.0934600830078125,-0.1434173583984375,10673.69380591667,1.345870445884774,1.418948268568688,-0.09888450728828022,0.006213095970451832,0.02350198477506638,-0.004964223131537437,-0.01702237129211426,-0.005522370338439941,0.001334309577941895,2,0.4348551000151528,-0.4854255112698989,-0.4471339434812371,-0.6126453169025801,0.9836642742156982,0.09872343391180038,-0.150526225566864,46.50325775146484,-11.19833946228027,0.246185302734375,2,10672.40189525,2,0,1580906956.643062,1580903939.50652,2106,0.4568741,0,0,2639.329,9,7,1580906940.646764,10671.145185,0,23.49551,96.9305
1580906957.91965,78,0,1580906956.998247,41.20960932782387,29.07534957533537,161.8416,-1,-1,36.89720916748047,48.00724964208526,-9999,10673.70891191667,0.9735107421875,0.093170166015625,-0.141845703125,10673.70384591667,1.34578919302269,1.419055469007304,-0.09891363574653805,0.009926074184477329,0.01100696623325348,-0.00417033489793539,-0.01337367296218872,-0.00562778115272522,0.004066228866577148,2,0.4348676696910907,-0.4854687781606683,-0.447078001258035,-0.6126429718219678,0.9836776256561279,0.09875242412090302,-0.1504203528165817,46.52648162841797,-11.15267372131348,0.14569091796875,2,10672.40189525,2,0,1580906956.643062,1580903939.50652,2106,0.4568741,0,0,2639.329,9,7,1580906940.646764,10671.145185,0,23.49551,96.9305
1580906957.92982,79,0,1580906956.998247,41.20960932782387,29.07534957533537,161.8416,-1,-1,36.89720916748047,48.00724964208526,-9999,10673.71895191667,0.9693603515625,0.0928497314453125,-0.1436614990234375,10673.71391691667,1.345687941581686,1.419096262746045,-0.09893515530053978,0.01028669718652964,0.004453225061297417,-0.004077629186213017,-0.01208078861236572,-0.005771249532699585,0.006131410598754883,2,0.4348583565873023,-0.4854979461900635,-0.4470323971112286,-0.6126597875144337,0.9836816787719727,0.09877383708953857,-0.1503799110651016,46.52648162841797,-11.15267372131348,0.14569091796875,2,10672.40189525,2,0,1580906956.643062,1580903939.50652,2106,0.4568741,0,0,2639.329,9,7,1580906940.646764,10671.145185,0,23.49551,96.9305
1580906957.951942,80,0,1580906956.998247,41.20960932782387,29.07534957533537,161.8416,-1,-1,36.89720916748047,48.00724964208526,-9999,10673.72899291667,0.9665374755859375,0.0931396484375,-0.1470184326171875,10673.72395691667,1.345633043035893,1.419165064447007,-0.09892383815956084,0.007424597628414631,0.007767796516418457,0.0009059440344572067,-0.0155254602432251,-0.006156682968139648,0.005621194839477539,2,0.4348572029120279,-0.4855337503588623,-0.4470036110200328,-0.6126531299549706,0.98369300365448,0.09876257181167603,-0.1503123790025711,46.53054046630859,-11.16440010070801,0.333709716796875,2,10672.40189525,2,0,1580906956.643062,1580903939.50652,2106,0.4568741,0,0,2639.329,9,7,1580906940.646764,10671.145185,0,23.49551,96.9305
1580906957.953349,81,0,1580906956.998247,41.20960932782387,29.07534957533537,161.8416,-1,-1,36.89720916748047,48.00724964208526,-9999,10673.73903291667,0.96563720703125,0.093017578125,-0.1482086181640625,10673.73399691667,1.345598992368711,1.419285631810801,-0.09889309424013919,0.003623504191637039,0.01217884384095669,0.002091377973556519,-0.01904094219207764,-0.00608024001121521,0.001962661743164062,2,0.4348670489448568,-0.4855857531338031,-0.446975168205288,-0.612625776697852,0.98371422290802,0.09873197972774506,-0.1501942574977875,46.53054046630859,-11.16440010070801,0.333709716796875,2,10672.40189525,2,0,1580906956.643062,1580903939.50652,2106,0.4568741,0,0,2639.329,9,7,1580906940.646764,10671.145185,0,23.49551,96.9305
1580906957.96194,82,0,1580906956.998247,41.20960932782387,29.07534957533537,161.8416,-1,-1,36.89720916748047,48.00724964208526,-9999,10673.74907291667,0.9688720703125,0.0924835205078125,-0.14569091796875,10673.74403791667,1.345613110801033,1.41945115621456,-0.0988260019724444,0.0005875006318092346,0.01799252443015575,0.006305564194917679,-0.02035409212112427,-0.005692929029464722,-0.0001220703125,2,0.4348882640410883,-0.4856500671218941,-0.4469613594539714,-0.6125698112401163,0.9837456345558167,0.09866521507501602,-0.1500324159860611,46.53073883056641,-11.31740379333496,0.341766357421875,2,10672.40189525,2,0,1580906956.643062,1580903939.50652,2106,0.4568741,0,0,2639.329,9,7,1580906940.646764,10671.145185,0,23.49551,96.9305
1580906957.969875,83,0,1580906956.998247,41.20960932782387,29.07534957533537,161.8416,-1,-1,36.89720916748047,48.00724964208526,-9999,10673.75914391667,0.973419189453125,0.094512939453125,-0.1398468017578125,10673.75407791667,1.345640469218889,1.419523339860103,-0.09871427224610446,-0.00108030904084444,0.008074380457401276,0.01172114629298449,-0.01900249719619751,-0.006451189517974854,0.001059591770172119,2,0.4348790881766602,-0.4856939885881751,-0.4469837646369094,-0.6125250666876912,0.9837672710418701,0.09855403006076813,-0.1499630510807037,46.53073883056641,-11.31740379333496,0.341766357421875,2,10672.40189525,2,0,1580906956.643062,1580903939.50652,2106,0.4568741,0,0,2639.329,9,7,1580906940.646764,10671.145185,0,23.49551,96.9305
1580906957.980215,84,0,1580906956.998247,41.20960932782387,29.07534957533537,161.8416,-1,-1,36.89720916748047,48.00724964208526,-9999,10673.76918391667,0.9690399169921875,0.0950164794921875,-0.1391448974609375,10673.76411791667,1.345712654251572,1.419413401886789,-0.09855168834556378,-0.003367431461811066,-0.01320187933743,0.01707170531153679,-0.01347798109054565,-0.00483936071395874,0.006175518035888672,2,0.434825499334645,-0.4856850539383907,-0.4470730517119678,-0.6125050573178974,0.9837666153907776,0.09839223325252533,-0.1500736325979233,46.65251922607422,-11.17402839660645,0.26605224609375,2,10672.40189525,2,0,1580906956.643062,1580903939.50652,2106,0.4568741,0,0,2639.329,9,7,1580906940.646764,10671.145185,0,23.49551,96.9305
1580906957.989951,85,0,1580906956.998247,41.20960932782387,29.07534957533537,161.8416,-1,-1,36.89720916748047,48.00724964208526,-9999,10673.77922391667,0.9600677490234375,0.09320068359375,-0.147918701171875,10673.77415891667,1.34578851101612,1.419284273229362,-0.09834019411296975,-0.004711960442364216,-0.01559531688690186,0.02155476249754429,-0.01469993591308594,-0.003178864717483521,0.01030361652374268,2,0.4347545311185433,-0.485681588255931,-0.447180620078485,-0.6124795897348286,0.9837677478790283,0.09818176925182343,-0.1502037793397903,46.65251922607422,-11.17402839660645,0.26605224609375,2,10672.40189525,2,0,1580906956.643062,1580903939.50652,2106,0.4568741,0,0,2639.329,9,7,1580906940.646764,10671.145185,0,23.49551,96.9305
1580906958.016565,86,0,1580906956.998247,41.20960932782387,29.07534957533537,161.8416,-1,-1,36.89720916748047,48.00724964208526,-9999,10673.78926491667,0.955718994140625,0.0909576416015625,-0.1517333984375,10673.78419891667,1.345863732366815,1.419320123964939,-0.09812372470638475,-0.002630966249853373,0.002325359731912613,0.02121494337916374,-0.02359187602996826,-0.00418362021446228,0.002489566802978516,2,0.4347188266993304,-0.485730046332543,-0.4472534671076734,-0.6124133602938501,0.9837941527366638,0.09796634316444397,-0.1501717269420624,46.62322235107422,-11.36318778991699,0.205230712890625,2,10672.40189525,2,0,1580906956.643062,1580903939.50652,2106,0.4568741,0,0,2639.329,9,7,1580906940.646764,10671.145185,0,23.49551,96.9305
1580906958.017813,87,0,1580906956.998247,41.20960932782387,29.07534957533537,161.8416,-1,-1,36.89720916748047,48.00724964208526,-9999,10673.79930491667,0.960113525390625,0.091217041015625,-0.151031494140625,10673.79426991667,1.345917521508896,1.419562290914951,-0.0979176917377149,0.0001613805070519447,0.02376090176403522,0.02144906669855118,-0.03042316436767578,-0.006602495908737183,-0.00365149974822998,2,0.4347270529783388,-0.4858437273799825,-0.4472721217630614,-0.6123037458151613,0.9838504791259766,0.09776129573583603,-0.1499365270137787,46.59612274169922,-11.2808895111084,0.1988525390625,2,10672.40189525,2,0,1580906956.643062,1580903939.50652,2106,0.4568741,0,0,2639.329,9,7,1580906940.646764,10671.145185,0,23.49551,96.9305
1580906958.02022,88,0,1580906956.998247,41.20960932782387,29.07534957533537,161.8416,-1,-1,36.89720916748047,48.00724964208526,-9999,10673.80934491667,0.9680328369140625,0.0904388427734375,-0.1484832763671875,10673.80430991667,1.345911629744839,1.419957315060074,-0.09776147347713096,0.005722859874367714,0.04170448333024979,0.01501540187746286,-0.02790355682373047,-0.006721347570419312,-0.003626823425292969,2,0.4347692663620101,-0.4860047437085916,-0.4472260005434812,-0.6121795879941477,0.9839246273040771,0.09760582447052002,-0.1495501548051834,46.59612274169922,-11.2808895111084,0.1988525390625,2,10672.40189525,2,0,1580906956.643062,1580903939.50652,2106,0.4568741,0,0,2639.329,9,7,1580906940.646764,10671.145185,0,23.49551,96.9305
1580906958.030772,89,0,1580906956.998247,41.20960932782387,29.07534957533537,161.8416,-1,-1,36.89720916748047,48.00724964208526,-9999,10673.81938591667,0.971923828125,0.08905029296875,-0.1441192626953125,10673.81434991667,1.345932323109518,1.420369992837504,-0.09767539501375101,0.0002365885302424431,0.04088608175516129,0.009346220642328262,-0.0208478569984436,-0.006940662860870361,-0.003025472164154053,2,0.4348418947318461,-0.4861479636031224,-0.4471655472738334,-0.6120585484022683,0.9839946627616882,0.09752015769481659,-0.1491453647613525,46.65773773193359,-11.25297355651855,0.151123046875,2,10672.40189525,2,0,1580906956.643062,1580903939.50652,2106,0.4568741,0,0,2639.329,9,7,1580906940.646764,10671.145185,0,23.49551,96.9305
1580906958.040151,90,0,1580906956.998247,41.20960932782387,29.07534957533537,161.8416,-1,-1,36.89720916748047,48.00724964208526,-9999,10673.82942591667,0.9693756103515625,0.0881805419921875,-0.146453857421875,10673.82438991667,1.345901605774704,1.42081184695849,-0.09767159259988363,0.002752210944890976,0.04330050200223923,9.71183180809021e-06,-0.01464283466339111,-0.008111774921417236,0.002153992652893066,2,0.4349321275312992,-0.4862907907307034,-0.4470610758482794,-0.6119572543837026,0.9840608239173889,0.09751637279987335,-0.148710623383522,46.65773773193359,-11.25297355651855,0.151123046875,2,10672.40189525,2,0,1580906956.643062,1580903939.50652,2106,0.4568741,0,0,2639.329,9,7,1580906940.646764,10671.145185,0,23.49551,96.9305
1580906958.050313,91,0,1580906956.998247,41.20960932782387,29.07534957533537,161.8416,-1,-1,36.89720916748047,48.00724964208526,-9999,10673.83949691667,0.9703216552734375,0.0904693603515625,-0.145263671875,10673.83443091667,1.345869535659296,1.421295405796583,-0.09773138533091956,0.004577848128974438,0.0485890693962574,-0.007043155841529369,-0.01678431034088135,-0.009590446949005127,0.0002721548080444336,2,0.4350494958502886,-0.4864308689426934,-0.4469301807528009,-0.6118581426650652,0.9841268658638,0.09757588058710098,-0.1482338905334473,46.69776153564453,-11.09841728210449,0.237152099609375,2,10672.40189525,2,0,1580906956.643062,1580903939.50652,2106,0.4568741,0,0,2639.329,9,7,1580906940.646764,10671.145185,0,23.49551,96.9305
1580906958.074662,92,0,1580906956.998247,41.20960932782387,29.07534957533537,161.8416,-1,-1,36.89720916748047,48.00724964208526,-9999,10673.84953691667,0.97027587890625,0.0923919677734375,-0.1442718505859375,10673.84447091667,1.345825735851802,1.421791060067373,-0.09782092811983073,0.003451330587267876,0.0498061366379261,-0.009716437198221684,-0.01655930280685425,-0.008443832397460938,-0.0002183914184570312,2,0.4351752450061382,-0.4865697511326607,-0.4467850719593718,-0.6117641161803591,0.9841914176940918,0.09766499698162079,-0.1477447599172592,46.69776153564453,-11.09841728210449,0.237152099609375,2,10672.40189525,2,0,1580906956.643062,1580903939.50652,2106,0.4568741,0,0,2639.329,9,7,1580906940.646764,10671.145185,0,23.49551,96.9305
1580906958.075852,93,0,1580906956.998247,41.20960932782387,29.07534957533537,161.8416,-1,-1,36.89720916748047,48.00724964208526,-9999,10673.85957691667,0.9693756103515625,0.0921173095703125,-0.14276123046875,10673.85451091667,1.345802894991018,1.422291122501572,-0.09791661221499719,0.001932382583618164,0.04957785457372665,-0.009780758060514927,-0.01616621017456055,-0.005930125713348389,0.0006296634674072266,2,0.4353087375430256,-0.4867039121139302,-0.4466437725371029,-0.611665605191871,0.9842559695243835,0.09776022285223007,-0.1472512036561966,46.52635955810547,-11.1952075958252,0.395294189453125,2,10672.40189525,2,0,1580906956.643062,1580903939.50652,2106,0.4568741,0,0,2639.329,9,7,1580906940.646764,10671.145185,0,23.49551,96.9305
1580906958.080495,94,0,1580906956.998247,41.20960932782387,29.07534957533537,161.8416,-1,-1,36.89720916748047,48.00724964208526,-9999,10673.86961579167,0.9704437255859375,0.0914764404296875,-0.1423797607421875,10673.86454979167,1.345751368437631,1.422776972335086,-0.09800245435950619,0.005167856812477112,0.04842763394117355,-0.008895790204405785,-0.01745033264160156,-0.00571054220199585,0.001476526260375977,2,0.4354291872577224,-0.4868424159897593,-0.4464993971290515,-0.611575152306347,0.9843192100524902,0.0978456512093544,-0.1467717736959457,46.52635955810547,-11.1952075958252,0.395294189453125,2,10672.40189525,2,0,1580906956.643062,1580903939.50652,2106,0.4568741,0,0,2639.329,9,7,1580906940.646764,10671.145185,0,23.49551,96.9305
1580906958.090231,95,0,1580906956.998247,41.20960932782387,29.07534957533537,161.8416,-1,-1,36.89720916748047,48.00724964208526,-9999,10673.87965579167,0.9733428955078125,0.0907135009765625,-0.13848876953125,10673.87461979167,1.345760307326091,1.423195947082843,-0.09806944401996256,-0.0001510875299572945,0.04242284595966339,-0.007242834661155939,-0.01707816123962402,-0.006357252597808838,0.00164186954498291,2,0.4355440522961392,-0.4869519365938515,-0.4463930331577764,-0.6114837542896531,0.9843740463256836,0.09791231900453568,-0.146358385682106,46.51789093017578,-11.14182472229004,0.14306640625,2,10672.40189525,2,0,1580906956.643062,1580903939.50652,2106,0.4568741,0,0,2639.329,9,7,1580906940.646764,10671.145185,0,23.49551,96.9305
1580906958.100502,96,0,1580906956.998247,41.20960932782387,29.07534957533537,161.8416,-1,-1,36.89720916748047,48.00724964208526,-9999,10673.88969579167,0.9746246337890625,0.09332275390625,-0.1346588134765625,10673.88466079167,1.345788945763989,1.423444016332027,-0.09809615029710353,-0.002997207920998335,0.02535944059491158,-0.002761001233011484,-0.01431965827941895,-0.007513076066970825,0.004295706748962402,2,0.4356140372903742,-0.4870149019570625,-0.4463406319811931,-0.6114219597209684,0.9844077229499817,0.0979388952255249,-0.1461137980222702,46.51789093017578,-11.14182472229004,0.14306640625,2,10672.40189525,2,0,1580906956.643062,1580903939.50652,2106,0.4568741,0,0,2639.329,9,7,1580906940.646764,10671.145185,0,23.49551,96.9305
1580906958.11242,97,0,1580906956.998247,41.20960932782387,29.07534957533537,161.8416,-1,-1,36.89720916748047,48.00724964208526,-9999,10673.89973579167,0.9749603271484375,0.095001220703125,-0.13043212890625,10673.89470079167,1.345856297831308,1.423441084801435,-0.09809277232366397,-0.005849299021065235,-0.001226849853992462,0.000751846469938755,-0.0124276876449585,-0.00573962926864624,0.007976055145263672,2,0.4356287673488714,-0.4870002076203622,-0.4463627925510716,-0.6114071452133159,0.9844077825546265,0.09793553501367569,-0.1461167484521866,46.55522918701172,-11.2021541595459,0.423309326171875,2,10672.40189525,2,0,1580906956.643062,1580903939.50652,2106,0.4568741,0,0,2639.329,9,7,1580906940.646764,10671.145185,0,23.49551,96.9305
1580906958.130066,98,0,1580906956.998247,41.20960932782387,29.07534957533537,161.8416,-1,-1,36.89720916748047,48.00724964208526,-9999,10673.90977679167,0.96923828125,0.094635009765625,-0.13470458984375,10673.90474079167,1.345902980840183,1.423213237042189,-0.09805181055827308,-0.003905191086232662,-0.02532872371375561,0.005304786376655102,-0.01177269220352173,-0.003425300121307373,0.01296210289001465,2,0.4355776302523862,-0.4869305145423651,-0.4464375756961596,-0.6114443117622606,0.9843782186508179,0.09789477288722992,-0.1463416069746017,46.55522918701172,-11.2021541595459,0.423309326171875,2,10672.40189525,2,0,1580906956.643062,1580903939.50652,2106,0.4568741,0,0,2639.329,9,7,1580906940.646764,10671.145185,0,23.49551,96.9305
1580906958.132792,99,0,1580906956.998247,41.20960932782387,29.07534957533537,161.8416,-1,-1,36.89720916748047,48.00724964208526,-9999,10673.91981679167,0.9639129638671875,0.092041015625,-0.141998291015625,10673.91478179167,1.345991932998117,1.422917615313845,-0.09799551096833896,-0.007599071133881807,-0.03119555860757828,0.00693084392696619,-0.0148932933807373,-0.003231793642044067,0.01204907894134521,2,0.435517178893135,-0.4868347519606312,-0.4465441698425389,-0.6114858478898526,0.9843404293060303,0.09783874452114105,-0.1466334164142609,46.52313995361328,-11.24959373474121,0.48687744140625,2,10672.40189525,2,0,1580906956.643062,1580903939.50652,2106,0.4568741,0,0,2639.329,9,7,1580906940.646764,10671.145185,0,23.49551,96.9305
1580906958.140615,100,0,1580906956.998247,41.20960932782387,29.07534957533537,161.8416,-1,-1,36.89720916748047,48.00724964208526,-9999,10673.92988779167,0.965240478515625,0.087646484375,-0.1460113525390625,10673.92482179167,1.346079275022413,1.422685077631376,-0.09797961254304645,-0.007781497668474913,-0.02514086291193962,0.004053298383951187,-0.02218496799468994,-0.004940211772918701,0.004435896873474121,2,0.4354819391401888,-0.4867486019457786,-0.4466257657701104,-0.6115200271403251,0.9843079447746277,0.09782291948795319,-0.1468625515699387,46.52313995361328,-11.24959373474121,0.48687744140625,2,10672.40189525,2,0,1580906956.643062,1580903939.50652,2106,0.4568741,0,0,2639.329,9,7,1580906940.646764,10671.145185,0,23.49551,96.9305
1580906958.150705,101,0,1580906956.998247,41.20960932782387,29.07534957533537,161.8416,-1,-1,36.89720916748047,48.00724964208526,-9999,10673.93992779167,0.9680938720703125,0.08209228515625,-0.1508636474609375,10673.93486179167,1.346186951034856,1.422606236487725,-0.09811988171269413,-0.0104798125103116,-0.01057150680571795,-0.01168678235262632,-0.02251064777374268,-0.009047329425811768,4.07099723815918e-05,2,0.435530641413534,-0.4866662062368986,-0.4466384680309864,-0.6115416031779436,0.9842827320098877,0.09796251356601715,-0.1469381302595139,46.59487152099609,-11.02323341369629,0.452728271484375,2,10672.40189525,2,0,1580906956.643062,1580903939.50652,2106,0.4568741,0,0,2639.329,9,7,1580906940.646764,10671.145185,0,23.49551,96.9305
1580906958.162522,102,0,1580906957.99824,41.20960762299419,29.07530854354018,161.8783,-1,-1,30.74014282226562,48.00724964208526,-9999,10673.94996779167,0.9667205810546875,0.082244873046875,-0.155670166015625,10673.94490179167,1.34630678886734,1.422816959628808,-0.09846156884230846,-0.01674090325832367,0.02046790160238743,-0.03341418132185936,-0.01873958110809326,-0.014667809009552,-0.004475116729736328,2,0.435704493466966,-0.4866196750632715,-0.4465381497884018,-0.6115280659213143,0.984280526638031,0.09830255061388016,-0.1467257738113403,46.59487152099609,-11.02323341369629,0.452728271484375,2,10672.40189525,2,0,1580906956.643062,1580903939.50652,2106,0.4568741,0,0,2639.329,9,7,1580906940.646764,10671.145185,0,23.49551,96.9305
1580906958.17066,103,0,1580906957.99824,41.20960762299419,29.07530854354018,161.8783,-1,-1,30.74014282226562,48.00724964208526,-9999,10673.96000879167,0.97021484375,0.0896453857421875,-0.147003173828125,10673.95494279167,1.346434983167147,1.423228024803719,-0.09892323914536305,-0.01772058382630348,0.04132063686847687,-0.04575836658477783,-0.02000617980957031,-0.01792073249816895,-0.01088440418243408,2,0.4359593819874742,-0.4866027077608674,-0.4463646559375659,-0.6114864135618224,0.9842956066131592,0.09876197576522827,-0.1463144421577454,46.64609527587891,-11.01627540588379,0.430389404296875,2,10672.40189525,2,0,1580906956.643062,1580903939.50652,2106,0.4568741,0,0,2639.329,9,7,1580906940.646764,10671.145185,0,23.49551,96.9305
1580906958.184215,104,0,1580906957.99824,41.20960762299419,29.07530854354018,161.8783,-1,-1,30.74014282226562,48.00724964208526,-9999,10673.97004879167,0.9705657958984375,0.0952301025390625,-0.1366424560546875,10673.96501279167,1.346534263683328,1.423606305246203,-0.09941627172562129,-0.01772191748023033,0.03814774751663208,-0.04765560105443001,-0.01799905300140381,-0.01217168569564819,-0.0070076584815979,2,0.436208731638455,-0.4865742235507663,-0.4461810384704132,-0.6114652615008146,0.9843025803565979,0.09925258904695511,-0.1459349393844604,46.64609527587891,-11.01627540588379,0.430389404296875,2,10672.40189525,2,0,1580906956.643062,1580903939.50652,2106,0.4568741,0,0,2639.329,9,7,1580906940.646764,10671.145185,0,23.49551,96.9305
1580906958.190747,105,0,1580906957.99824,41.20960762299419,29.07530854354018,161.8783,-1,-1,30.74014282226562,48.00724964208526,-9999,10673.98008879167,0.972808837890625,0.0998687744140625,-0.1315460205078125,10673.97505379167,1.346594124206461,1.423789551667033,-0.09987015685333836,-0.0103734452277422,0.01760898716747761,-0.04405601322650909,-0.01581436395645142,-0.006353080272674561,0.004615187644958496,2,0.4363936934880043,-0.4865044307359447,-0.4460382998057689,-0.6114930710099861,0.9842847585678101,0.09970422089099884,-0.1457479596138,46.34899139404297,-10.97607231140137,0.519378662109375,2,10672.40189525,2,0,1580906956.643062,1580903939.50652,2106,0.4568741,0,0,2639.329,9,7,1580906940.646764,10671.145185,0,23.49551,96.9305
1580906958.200814,106,0,1580906957.99824,41.20960762299419,29.07530854354018,161.8783,-1,-1,30.74014282226562,48.00724964208526,-9999,10673.99012879167,0.971038818359375,0.0990142822265625,-0.13299560546875,10673.98509379167,1.346606686599862,1.423731870454634,-0.1002649684275556,-0.006993627175688744,-0.007561348378658295,-0.03890493139624596,-0.01486659049987793,-0.001345247030258179,0.01113605499267578,2,0.436496559071546,-0.4863859293711638,-0.4459493815196406,-0.6115787805174916,0.9842373728752136,0.1000970602035522,-0.1457989662885666,46.34899139404297,-10.97607231140137,0.519378662109375,2,10672.40189525,2,0,1580906956.643062,1580903939.50652,2106,0.4568741,0,0,2639.329,9,7,1580906940.646764,10671.145185,0,23.49551,96.9305
1580906958.211739,107,0,1580906957.99824,41.20960762299419,29.07530854354018,161.8783,-1,-1,30.74014282226562,48.00724964208526,-9999,10674.00016979167,0.962799072265625,0.096771240234375,-0.138824462890625,10673.99513379167,1.346631851517392,1.423542806515586,-0.1006074146615831,-0.006920934654772282,-0.02102049998939037,-0.03421729058027267,-0.01388931274414062,-0.00110703706741333,0.01186686754226685,2,0.4365582680141606,-0.4862374730554846,-0.4459069461577355,-0.6116836524202761,0.9841757416725159,0.1004377752542496,-0.1459800004959106,46.68264007568359,-10.84085655212402,0.46270751953125,2,10672.40189525,2,0,1580906956.643062,1580903939.50652,2106,0.4568741,0,0,2639.329,9,7,1580906940.646764,10671.145185,0,23.49551,96.9305
1580906958.221364,108,0,1580906957.99824,41.20960762299419,29.07530854354018,161.8783,-1,-1,30.74014282226562,48.00724964208526,-9999,10674.01024079167,0.954986572265625,0.0942535400390625,-0.1443939208984375,10674.00517479167,1.346648791464195,1.423425316370236,-0.1008686199627818,-0.005561923142522573,-0.01158998068422079,-0.02523551508784294,-0.02100241184234619,-0.003320634365081787,0.007645368576049805,2,0.4366107347484893,-0.4861328862073449,-0.4458680636318603,-0.6117576528973461,0.9841325879096985,0.1006976589560509,-0.1460917592048645,46.68264007568359,-10.84085655212402,0.46270751953125,2,10672.40189525,2,0,1580906956.643062,1580903939.50652,2106,0.4568741,0,0,2639.329,9,7,1580906940.646764,10671.145185,0,23.49551,96.9305
1580906958.23109,109,0,1580906957.99824,41.20960762299419,29.07530854354018,161.8783,-1,-1,30.74014282226562,48.00724964208526,-9999,10674.02028079167,0.9599761962890625,0.096160888671875,-0.142181396484375,10674.01521479167,1.346689393497626,1.423405298166019,-0.101045926741188,-0.005525072570890188,0.0005904752761125565,-0.01756175607442856,-0.03021329641342163,-0.006427168846130371,0.0003077387809753418,2,0.4366667358530391,-0.4860738022593253,-0.4458375321506427,-0.6117868712338729,0.9841119647026062,0.1008740663528442,-0.1461088359355927,46.56589508056641,-10.99222373962402,0.466156005859375,2,10672.40189525,2,0,1580906956.643062,1580903939.50652,2106,0.4568741,0,0,2639.329,9,7,1580906940.646764,10671.145185,0,23.49551,96.9305
1580906958.247902,110,0,1580906957.99824,41.20960762299419,29.07530854354018,161.8783,-1,-1,30.74014282226562,48.00724964208526,-9999,10674.03032079167,0.9674224853515625,0.09832763671875,-0.1389312744140625,10674.02525479167,1.346710498732944,1.423353153084862,-0.1011357704630851,-0.002786277327686548,-0.00347750261425972,-0.008681444451212883,-0.0289912223815918,-0.005860656499862671,0.001044511795043945,2,0.4366858812307,-0.4860308938341589,-0.4458313918761383,-0.6118117520012504,0.9840953946113586,0.1009634509682655,-0.146158829331398,46.56589508056641,-10.99222373962402,0.466156005859375,2,10672.40189525,2,0,1580906956.643062,1580903939.50652,2106,0.4568741,0,0,2639.329,9,7,1580906940.646764,10671.145185,0,23.49551,96.9305
1580906958.251561,111,0,1580906957.99824,41.20960762299419,29.07530854354018,161.8783,-1,-1,30.74014282226562,48.00724964208526,-9999,10674.04036079167,0.9699554443359375,0.09747314453125,-0.1379547119140625,10674.03529479167,1.346761270403579,1.423208816951609,-0.1011751093441795,-0.003630413208156824,-0.01471102051436901,-0.004172053188085556,-0.02106213569641113,-0.003473818302154541,0.004360198974609375,2,0.436677222153307,-0.4859658984170239,-0.4458679672106957,-0.6118430428173428,0.9840704798698425,0.1010025888681412,-0.1463003009557724,46.50978851318359,-11.0397891998291,0.446075439453125,2,10672.40189525,2,0,1580906956.643062,1580903939.50652,2106,0.4568741,0,0,2639.329,9,7,1580906940.646764,10671.145185,0,23.49551,96.9305
1580906958.261977,112,0,1580906957.99824,41.20960762299419,29.07530854354018,161.8783,-1,-1,30.74014282226562,48.00724964208526,-9999,10674.05040179167,0.9646148681640625,0.095916748046875,-0.1425323486328125,10674.04536579167,1.34681844002289,1.423052487184305,-0.1011743558940466,-0.005118054803460836,-0.01502447482198477,0.0006623826920986176,-0.01617175340652466,-0.003305137157440186,0.006910085678100586,2,0.4366560357657001,-0.4859057838149521,-0.445919795326184,-0.6118681617898192,0.9840477108955383,0.1010018363595009,-0.1464541554450989,46.50978851318359,-11.0397891998291,0.446075439453125,2,10672.40189525,2,0,1580906956.643062,1580903939.50652,2106,0.4568741,0,0,2639.329,9,7,1580906940.646764,10671.145185,0,23.49551,96.9305
1580906958.271187,113,0,1580906957.99824,41.20960762299419,29.07530854354018,161.8783,-1,-1,30.74014282226562,48.00724964208526,-9999,10674.06044179167,0.9659576416015625,0.096771240234375,-0.140899658203125,10674.05540679167,1.346886780294661,1.422886115562452,-0.101165203330479,-0.006102626211941242,-0.01729835569858551,0.00119975209236145,-0.02008497714996338,-0.005142331123352051,0.002969682216644287,2,0.4366329325623436,-0.4858422390654493,-0.4459794663529483,-0.611891609577366,0.9840242266654968,0.1009927317500114,-0.1466180086135864,46.61693572998047,-11.21468162536621,0.446197509765625,2,10672.40189525,2,0,1580906956.643062,1580903939.50652,2106,0.4568741,0,0,2639.329,9,7,1580906940.646764,10671.145185,0,23.49551,96.9305
1580906958.281149,114,0,1580906957.99824,41.20960762299419,29.07530854354018,161.8783,-1,-1,30.74014282226562,48.00724964208526,-9999,10674.07048179167,0.9669036865234375,0.0951690673828125,-0.1429443359375,10674.06544679167,1.346905115294697,1.42271537631342,-0.1011467976582891,-0.001014124602079391,-0.01741580106317997,0.002231726422905922,-0.02160286903381348,-0.00460517406463623,0.003077328205108643,2,0.4365940673711575,-0.4857905717333584,-0.4460272547070516,-0.6119255038881528,0.9840009808540344,0.1009744182229042,-0.1467862874269485,46.61693572998047,-11.21468162536621,0.446197509765625,2,10672.40189525,2,0,1580906956.643062,1580903939.50652,2106,0.4568741,0,0,2639.329,9,7,1580906940.646764,10671.145185,0,23.49551,96.9305
1580906958.291244,115,0,1580906957.99824,41.20960762299419,29.07530854354018,161.8783,-1,-1,30.74014282226562,48.00724964208526,-9999,10674.08052279167,0.969085693359375,0.096405029296875,-0.1435699462890625,10674.07548679167,1.346936944152714,1.42255283368914,-0.1011208329098988,-0.001203475520014763,-0.01696546003222466,0.003808317705988884,-0.01935398578643799,-0.005571126937866211,0.00317692756652832,2,0.4365581392470371,-0.4857403496074215,-0.4460793993116444,-0.611952986134613,0.9839797019958496,0.1009485870599747,-0.1469466090202332,46.50290679931641,-11.26703453063965,0.5284423828125,2,10672.40189525,2,0,1580906956.643062,1580903939.50652,2106,0.4568741,0,0,2639.329,9,7,1580906940.646764,10671.145185,0,23.49551,96.9305
1580906958.310059,116,0,1580906957.99824,41.20960762299419,29.07530854354018,161.8783,-1,-1,30.74014282226562,48.00724964208526,-9999,10674.09059279167,0.9682769775390625,0.0959930419921875,-0.141754150390625,10674.08552679167,1.346941444827378,1.422370218777585,-0.1010913143429935,0.0008373921737074852,-0.01795589737594128,0.003235894255340099,-0.01804840564727783,-0.005190789699554443,0.0009921789169311523,2,0.4365101060627413,-0.4856908142874379,-0.4461284894576097,-0.6119906853488044,0.9839556813240051,0.1009192168712616,-0.1471267193555832,46.50290679931641,-11.26703453063965,0.5284423828125,2,10672.40189525,2,0,1580906956.643062,1580903939.50652,2106,0.4568741,0,0,2639.329,9,7,1580906940.646764,10671.145185,0,23.49551,96.9305
1580906958.313114,117,0,1580906957.99824,41.20960762299419,29.07530854354018,161.8783,-1,-1,30.74014282226562,48.00724964208526,-9999,10674.10063379167,0.96673583984375,0.0956573486328125,-0.14154052734375,10674.09556779167,1.346956329000733,1.422181280137659,-0.1010518570787306,0.000369461253285408,-0.01770578883588314,0.003973884508013725,-0.01778030395507812,-0.004968315362930298,0.003178000450134277,2,0.4364603048962585,-0.4856395719663948,-0.4461848047956017,-0.6120258276008831,0.983931839466095,0.1008799597620964,-0.1473132222890854,46.57576751708984,-11.18358039855957,0.472991943359375,2,10672.40189525,2,0,1580906956.643062,1580903939.50652,2106,0.4568741,0,0,2639.329,9,7,1580906940.646764,10671.145185,0,23.49551,96.9305
1580906958.321363,118,0,1580906957.99824,41.20960762299419,29.07530854354018,161.8783,-1,-1,30.74014282226562,48.00724964208526,-9999,10674.11067379167,0.96734619140625,0.095947265625,-0.140838623046875,10674.10560779167,1.346926853327268,1.421987806254195,-0.1010150205882475,0.003402535803616047,-0.01846558786928654,0.003432463854551315,-0.01889991760253906,-0.00540459156036377,0.003781378269195557,2,0.4363994521354536,-0.4855959735854631,-0.44622783617631,-0.6120724868499146,0.9839070439338684,0.1008433178067207,-0.147504135966301,46.57576751708984,-11.18358039855957,0.472991943359375,2,10672.40189525,2,0,1580906956.643062,1580903939.50652,2106,0.4568741,0,0,2639.329,9,7,1580906940.646764,10671.145185,0,23.49551,96.9305
1580906958.331462,119,0,1580906957.99824,41.20960762299419,29.07530854354018,161.8783,-1,-1,30.74014282226562,48.00724964208526,-9999,10674.12071379167,0.9691619873046875,0.09686279296875,-0.1401824951171875,10674.11564779167,1.346874377008952,1.421740433285213,-0.1009846422026331,0.007445233874022961,-0.02535499259829521,0.002429991960525513,-0.01965975761413574,-0.005328506231307983,0.004361510276794434,2,0.4363228417510981,-0.4855392750581112,-0.4462738486392694,-0.6121385382137787,0.9838735461235046,0.100813090801239,-0.1477479785680771,46.53055572509766,-11.18402290344238,0.425445556640625,2,10672.40189525,2,0,1580906956.643062,1580903939.50652,2106,0.4568741,0,0,2639.329,9,7,1580906940.646764,10671.145185,0,23.49551,96.9305
1580906958.341476,120,0,1580906957.99824,41.20960762299419,29.07530854354018,161.8783,-1,-1,30.74014282226562,48.00724964208526,-9999,10674.13075379167,0.9661712646484375,0.095550537109375,-0.14178466796875,10674.12571879167,1.346789805049317,1.421442706727448,-0.1009678768657187,0.008360561914741993,-0.0296781025826931,0.0005942750722169876,-0.01722180843353271,-0.004426777362823486,0.005952417850494385,2,0.4362310529133673,-0.4854707871209883,-0.4463173984149301,-0.6122266229207851,0.9838312864303589,0.1007964089512825,-0.1480411738157272,46.53055572509766,-11.18402290344238,0.425445556640625,2,10672.40189525,2,0,1580906956.643062,1580903939.50652,2106,0.4568741,0,0,2639.329,9,7,1580906940.646764,10671.145185,0,23.49551,96.9305
1580906958.351568,121,0,1580906957.99824,41.20960762299419,29.07530854354018,161.8783,-1,-1,30.74014282226562,48.00724964208526,-9999,10674.14079479167,0.963348388671875,0.0941162109375,-0.1435089111328125,10674.13575879167,1.346720899157321,1.421134474307824,-0.1009593674784008,0.008172809146344662,-0.03140409663319588,-0.001077923458069563,-0.01894700527191162,-0.005227059125900269,0.004959344863891602,2,0.4361431559079582,-0.4853935417769202,-0.4463657670871133,-0.6123150841512857,0.9837863445281982,0.1007879450917244,-0.1483445167541504,46.55362701416016,-11.07636070251465,0.450103759765625,2,10672.40189525,2,0,1580906956.643062,1580903939.50652,2106,0.4568741,0,0,2639.329,9,7,1580906940.646764,10671.145185,0,23.49551,96.9305
1580906958.369086,122,0,1580906957.99824,41.20960762299419,29.07530854354018,161.8783,-1,-1,30.74014282226562,48.00724964208526,-9999,10674.15083479167,0.961334228515625,0.0939178466796875,-0.1473846435546875,10674.14579979167,1.34665512062558,1.420909737426742,-0.1009350864605799,0.006773318164050579,-0.0215045940130949,0.0006400812417268753,-0.02201342582702637,-0.006377726793289185,0.003701210021972656,2,0.4360701003382464,-0.4853451182835165,-0.4464011017693601,-0.612379728000064,0.983755350112915,0.1007637903094292,-0.1485659629106522,46.55362701416016,-11.07636070251465,0.450103759765625,2,10672.40189525,2,0,1580906956.643062,1580903939.50652,2106,0.4568741,0,0,2639.329,9,7,1580906940.646764,10671.145185,0,23.49551,96.9305
1580906958.371619,123,0,1580906957.99824,41.20960762299419,29.07530854354018,161.8783,-1,-1,30.74014282226562,48.00724964208526,-9999,10674.16087479167,0.9643707275390625,0.0941925048828125,-0.146514892578125,10674.15583979167,1.346601367248992,1.420774838451371,-0.100910152803041,0.006600205786526203,-0.0116985347121954,0.0004491629078984261,-0.0246356725692749,-0.007237911224365234,0.0005081295967102051,2,0.4360198331040335,-0.4853217314174072,-0.4464206922218994,-0.612419742216074,0.9837377667427063,0.1007389798760414,-0.1486990451812744,46.51993560791016,-10.84564018249512,0.50885009765625,2,10672.40189525,2,0,1580906956.643062,1580903939.50652,2106,0.4568741,0,0,2639.329,9,7,1580906940.646764,10671.145185,0,23.49551,96.9305
1580906958.381685,124,0,1580906957.99824,41.20960762299419,29.07530854354018,161.8783,-1,-1,30.74014282226562,48.00724964208526,-9999,10674.17091579167,0.967132568359375,0.0924224853515625,-0.1461944580078125,10674.16587979167,1.346551273785514,1.420677043636499,-0.1008850547983662,0.006332292221486568,-0.009178651496767998,0.0008707409724593163,-0.02314341068267822,-0.006480485200881958,-0.0005394220352172852,2,0.4359786864067338,-0.4853089469728627,-0.446433355074593,-0.6124499088853353,0.9837256669998169,0.1007140129804611,-0.1487956196069717,46.51993560791016,-10.84564018249512,0.50885009765625,2,10672.40189525,2,0,1580906956.643062,1580903939.50652,2106,0.4568741,0,0,2639.329,9,7,1580906940.646764,10671.145185,0,23.49551,96.9305
1580906958.391711,125,0,1580906957.99824,41.20960762299419,29.07530854354018,161.8783,-1,-1,30.74014282226562,48.00724964208526,-9999,10674.18098579167,0.9673004150390625,0.0927734375,-0.147796630859375,10674.17591979167,1.346537871964125,1.42063307678621,-0.1008798428467701,0.002440153621137142,-0.005103696137666702,-0.0008289050310850143,-0.01933783292770386,-0.008092701435089111,0.0008927583694458008,2,0.4359640898189264,-0.4852997288327714,-0.4464402495163863,-0.6124627024578886,0.9837198257446289,0.1007088273763657,-0.1488389670848846,46.53420257568359,-10.9350643157959,0.348968505859375,2,10672.40189525,2,0,1580906956.643062,1580903939.50652,2106,0.4568741,0,0,2639.329,9,7,1580906940.646764,10671.145185,0,23.49551,96.9305
1580906958.401795,126,0,1580906957.99824,41.20960762299419,29.07530854354018,161.8783,-1,-1,30.74014282226562,48.00724964208526,-9999,10674.19102679167,0.9654541015625,0.0932159423828125,-0.1480865478515625,10674.18596079167,1.34654933186654,1.420688898894514,-0.1008839119396858,-0.0001889197155833244,0.004770506173372269,0.0002432828769087791,-0.01872026920318604,-0.008539259433746338,-0.0007036924362182617,2,0.4359805332967164,-0.4853132862106558,-0.446430481656013,-0.6124472551447805,0.9837275743484497,0.1007128730416298,-0.1487839818000793,46.55947113037109,-10.9148998260498,0.40191650390625,2,10672.40189525,2,0,1580906956.643062,1580903939.50652,2106,0.4568741,0,0,2639.329,9,7,1580906940.646764,10671.145185,0,23.49551,96.9305
1580906958.412375,127,0,1580906957.99824,41.20960762299419,29.07530854354018,161.8783,-1,-1,30.74014282226562,48.00724964208526,-9999,10674.20106679167,0.9613189697265625,0.0919342041015625,-0.149139404296875,10674.19600079167,1.346597206254185,1.42085324341733,-0.1008903762511518,-0.004568926524370909,0.01408137567341328,-0.0002525001764297485,-0.01985800266265869,-0.00753861665725708,-0.001567721366882324,2,0.436030656258826,-0.4853515807202921,-0.4464076062423677,-0.6123979725286263,0.9837514758110046,0.1007193028926849,-0.1486222147941589,46.55947113037109,-10.9148998260498,0.40191650390625,2,10672.40189525,2,0,1580906956.643062,1580903939.50652,2106,0.4568741,0,0,2639.329,9,7,1580906940.646764,10671.145185,0,23.49551,96.9305
1580906958.430763,128,0,1580906957.99824,41.20960762299419,29.07530854354018,161.8783,-1,-1,30.74014282226562,48.00724964208526,-9999,10674.21110679167,0.9590606689453125,0.09222412109375,-0.1489105224609375,10674.20604079167,1.346695227359211,1.421175549236884,-0.1008632119855205,-0.007772709242999554,0.03246410936117172,0.004295912571251392,-0.02320468425750732,-0.008579641580581665,-0.002220869064331055,2,0.43611860170949,-0.4854356648599531,-0.4463745960930334,-0.6122928194706723,0.9838020801544189,0.1006922796368599,-0.1483055651187897,46.55800628662109,-10.88469123840332,0.349090576171875,2,10672.40189525,2,0,1580906956.643062,1580903939.50652,2106,0.4568741,0,0,2639.329,9,7,1580906940.646764,10671.145185,0,23.49551,96.9305
1580906958.432019,129,0,1580906957.99824,41.20960762299419,29.07530854354018,161.8783,-1,-1,30.74014282226562,48.00724964208526,-9999,10674.22114779167,0.96539306640625,0.0947723388671875,-0.1417083740234375,10674.21611179167,1.346803612484194,1.421534127329733,-0.1008209176901234,-0.01118340063840151,0.03513265401124954,0.005367894656956196,-0.0275956392288208,-0.008949458599090576,-0.003855526447296143,2,0.4362128731956129,-0.4855323112676149,-0.4463408399570716,-0.6121735871747433,0.9838593602180481,0.1006501987576485,-0.1479534059762955,46.55800628662109,-10.88469123840332,0.349090576171875,2,10672.40189525,2,0,1580906956.643062,1580903939.50652,2106,0.4568741,0,0,2639.329,9,7,1580906940.646764,10671.145185,0,23.49551,96.9305
1580906958.442253,130,0,1580906957.99824,41.20960762299419,29.07530854354018,161.8783,-1,-1,30.74014282226562,48.00724964208526,-9999,10674.23118779167,0.9712066650390625,0.0953826904296875,-0.139801025390625,10674.22615179167,1.346905342631975,1.421819758529353,-0.1007707687525403,-0.008401462808251381,0.02892429567873478,0.005286668427288532,-0.02289748191833496,-0.006595373153686523,0.001890659332275391,2,0.4362869877157686,-0.4856100264629459,-0.4463230458771968,-0.612072113439048,0.9839065670967102,0.1006003022193909,-0.1476731300354004,46.77265167236328,-10.9240894317627,0.302154541015625,2,10672.40189525,2,0,1580906956.643062,1580903939.50652,2106,0.4568741,0,0,2639.329,9,7,1580906940.646764,10671.145185,0,23.49551,96.9305
1580906958.452017,131,0,1580906957.99824,41.20960762299419,29.07530854354018,161.8783,-1,-1,30.74014282226562,48.00724964208526,-9999,10674.24122779167,0.9746246337890625,0.0970611572265625,-0.1371002197265625,10674.23619279167,1.346984469343702,1.421975286926304,-0.1007129924148658,-0.007287195883691311,0.01572726853191853,0.006734096445143223,-0.01688367128372192,-0.005500108003616333,0.005354404449462891,2,0.4363244372388999,-0.4856547205244948,-0.4463287197559977,-0.6120057408698962,0.9839352369308472,0.1005428209900856,-0.1475209593772888,46.77265167236328,-10.9240894317627,0.302154541015625,2,10672.40189525,2,0,1580906956.643062,1580903939.50652,2106,0.4568741,0,0,2639.329,9,7,1580906940.646764,10671.145185,0,23.49551,96.9305
1580906958.462739,132,0,1580906957.99824,41.20960762299419,29.07530854354018,161.8783,-1,-1,30.74014282226562,48.00724964208526,-9999,10674.25126779167,0.9705810546875,0.0963134765625,-0.139801025390625,10674.24623279167,1.347051204743225,1.422014733169567,-0.1006547642281823,-0.003334116656333208,0.002240685746073723,0.006968440487980843,-0.01201266050338745,-0.004206061363220215,0.007452547550201416,2,0.4363327984139136,-0.4856667358940728,-0.4463560729797351,-0.6119703633292041,0.9839468598365784,0.1004848852753639,-0.1474830210208893,46.82454681396484,-11.02914237976074,0.383880615234375,2,10672.40189525,2,0,1580906956.643062,1580903939.50652,2106,0.4568741,0,0,2639.329,9,7,1580906940.646764,10671.145185,0,23.49551,96.9305
1580906958.472138,133,0,1580906957.99824,41.20960762299419,29.07530854354018,161.8783,-1,-1,30.74014282226562,48.00724964208526,-9999,10674.26133879167,0.9671478271484375,0.095367431640625,-0.1426849365234375,10674.25627279167,1.347110468789035,1.422038474516708,-0.1006005605311935,-0.006093489937484264,0.001313833519816399,0.006087786518037319,-0.01408147811889648,-0.003862053155899048,0.007231652736663818,2,0.4363369906649071,-0.4856745734138331,-0.4463834916802497,-0.6119412221103895,0.9839558601379395,0.1004309579730034,-0.147460475564003,46.82454681396484,-11.02914237976074,0.383880615234375,2,10672.40189525,2,0,1580906956.643062,1580903939.50652,2106,0.4568741,0,0,2639.329,9,7,1580906940.646764,10671.145185,0,23.49551,96.9305
1580906958.498375,134,0,1580906957.99824,41.20960762299419,29.07530854354018,161.8783,-1,-1,30.74014282226562,48.00724964208526,-9999,10674.27137879167,0.966705322265625,0.0951690673828125,-0.1430816650390625,10674.26631379167,1.347134680168301,1.422081122300305,-0.1005593969465318,-0.0005248207598924637,0.005683815106749535,0.003556451760232449,-0.01859337091445923,-0.005179107189178467,0.00311589241027832,2,0.4363406719371995,-0.485692559752439,-0.4463925475044004,-0.6119176090350403,0.9839661121368408,0.1003900021314621,-0.1474191099405289,46.81844329833984,-10.99080085754395,0.27838134765625,2,10672.40189525,2,0,1580906956.643062,1580903939.50652,2106,0.4568741,0,0,2639.329,9,7,1580906940.646764,10671.145185,0,23.49551,96.9305
1580906958.499529,135,0,1580906957.99824,41.20960762299419,29.07530854354018,161.8783,-1,-1,30.74014282226562,48.00724964208526,-9999,10674.28141979167,0.968475341796875,0.09478759765625,-0.1414947509765625,10674.27635379167,1.347121536808441,1.422090120483869,-0.1005303216252045,0.001903275027871132,0.000755922868847847,0.002899370156228542,-0.02015399932861328,-0.005211174488067627,0.00193256139755249,2,0.4363311830340532,-0.4857054179531344,-0.446394317249043,-0.6119128914406625,0.9839703440666199,0.1003610715270042,-0.1474106907844543,46.81844329833984,-10.99080085754395,0.27838134765625,2,10672.40189525,2,0,1580906956.643062,1580903939.50652,2106,0.4568741,0,0,2639.329,9,7,1580906940.646764,10671.145185,0,23.49551,96.9305
1580906958.50227,136,0,1580906957.99824,41.20960762299419,29.07530854354018,161.8783,-1,-1,30.74014282226562,48.00724964208526,-9999,10674.29145979167,0.96685791015625,0.09576416015625,-0.141815185546875,10674.28639379167,1.347120660320571,1.422097995985061,-0.1004990941228989,0.001754137687385082,0.002366868779063225,0.002516673877835274,-0.01838809251785278,-0.005958139896392822,0.003359675407409668,2,0.4363237956054825,-0.485715799904379,-0.4464006664991851,-0.6119053371766781,0.9839746356010437,0.1003300026059151,-0.1474034190177917,46.67894744873047,-11.10407066345215,0.445556640625,2,10672.40189525,2,0,1580906956.643062,1580903939.50652,2106,0.4568741,0,0,2639.329,9,7,1580906940.646764,10671.145185,0,23.49551,96.9305
1580906958.512423,137,0,1580906957.99824,41.20960762299419,29.07530854354018,161.8783,-1,-1,30.74014282226562,48.00724964208526,-9999,10674.30149979167,0.9697265625,0.0948028564453125,-0.1388702392578125,10674.29646479167,1.34710462586922,1.422051851389404,-0.1004713883216388,0.001198947429656982,-0.004220133647322655,0.001538741402328014,-0.01914685964584351,-0.004664063453674316,0.00337517261505127,2,0.4363017263946973,-0.4857120506847512,-0.4464131920837632,-0.6119148063575743,0.9839704632759094,0.1003024354577065,-0.1474492102861404,46.67894744873047,-11.10407066345215,0.445556640625,2,10672.40189525,2,0,1580906956.643062,1580903939.50652,2106,0.4568741,0,0,2639.329,9,7,1580906940.646764,10671.145185,0,23.49551,96.9305
1580906958.522953,138,0,1580906957.99824,41.20960762299419,29.07530854354018,161.8783,-1,-1,30.74014282226562,48.00724964208526,-9999,10674.31154079167,0.9726104736328125,0.0943450927734375,-0.1407928466796875,10674.30650479167,1.34710719228868,1.421936658521496,-0.1004527103899174,0.0007395530119538307,-0.01250602677464485,0.001565373502671719,-0.01803320646286011,-0.005820333957672119,0.005609989166259766,2,0.4362712645567316,-0.485680919424723,-0.4464441093287226,-0.6119387975831589,0.983955442905426,0.1002838537096977,-0.1475628614425659,46.61229705810547,-11.12914848327637,0.479736328125,2,10672.40189525,2,0,1580906956.643062,1580903939.50652,2106,0.4568741,0,0,2639.329,9,7,1580906940.646764,10671.145185,0,23.49551,96.9305
1580906958.532609,139,0,1580906957.99824,41.20960762299419,29.07530854354018,161.8783,-1,-1,30.74014282226562,48.00724964208526,-9999,10674.32158079167,0.976226806640625,0.0945892333984375,-0.1392822265625,10674.31654479167,1.347093720161891,1.4217349341916,-0.1004393786340275,0.003227041102945805,-0.01922126859426498,0.001463473774492741,-0.01457136869430542,-0.006081730127334595,0.005763471126556396,2,0.4362191503009745,-0.4856254544182564,-0.4464875441652974,-0.6119882898922432,0.9839270114898682,0.1002705916762352,-0.1477615386247635,46.61229705810547,-11.12914848327637,0.479736328125,2,10672.40189525,2,0,1580906956.643062,1580903939.50652,2106,0.4568741,0,0,2639.329,9,7,1580906940.646764,10671.145185,0,23.49551,96.9305
1580906958.556464,140,0,1580906957.99824,41.20960762299419,29.07530854354018,161.8783,-1,-1,30.74014282226562,48.00724964208526,-9999,10674.33162079167,0.97100830078125,0.0938873291015625,-0.141510009765625,10674.32658579167,1.347089899708938,1.421435182648891,-0.1004474908337519,0.002093599177896976,-0.03036819584667683,-0.001510478090494871,-0.01106226444244385,-0.005860954523086548,0.005647003650665283,2,0.4361536388921497,-0.4855325267157939,-0.4465495733323573,-0.6120633872547059,0.9838818311691284,0.1002786606550217,-0.1480563431978226,46.73438262939453,-11.1886043548584,0.45562744140625,2,10672.40189525,2,0,1580906956.643062,1580903939.50652,2106,0.4568741,0,0,2639.329,9,7,1580906940.646764,10671.145185,0,23.49551,96.9305
1580906958.557537,141,0,1580906957.99824,41.20960762299419,29.07530854354018,161.8783,-1,-1,30.74014282226562,48.00724964208526,-9999,10674.34169179167,0.9679412841796875,0.0933837890625,-0.1439361572265625,10674.33662579167,1.347063969424271,1.421141142603289,-0.1004762959250033,0.001960175111889839,-0.0284536499530077,-0.003513175528496504,-0.01280093193054199,-0.006530493497848511,0.006318032741546631,2,0.4360899483599156,-0.4854409993980201,-0.4465980603197363,-0.6121458900896476,0.9838352799415588,0.100307323038578,-0.1483451873064041,46.73438262939453,-11.1886043548584,0.45562744140625,2,10672.40189525,2,0,1580906956.643062,1580903939.50652,2106,0.4568741,0,0,2639.329,9,7,1580906940.646764,10671.145185,0,23.49551,96.9305
1580906958.562394,142,0,1580906957.99824,41.20960762299419,29.07530854354018,161.8783,-1,-1,30.74014282226562,48.00724964208526,-9999,10674.35173179167,0.9671478271484375,0.09552001953125,-0.1431884765625,10674.34666579167,1.347044455151176,1.420850920869123,-0.1005301947694751,0.001791597343981266,-0.0285098422318697,-0.006065815221518278,-0.01812338829040527,-0.007347136735916138,0.002514302730560303,2,0.4360357449682074,-0.4853430384747615,-0.4466410371935805,-0.6122309821540771,0.9837870001792908,0.1003609523177147,-0.1486299335956573,46.72005462646484,-11.09144401550293,0.497100830078125,2,10672.40189525,2,0,1580906956.643062,1580903939.50652,2106,0.4568741,0,0,2639.329,9,7,1580906940.646764,10671.145185,0,23.49551,96.9305
1580906958.572336,143,0,1580906957.99824,41.20960762299419,29.07530854354018,161.8783,-1,-1,30.74014282226562,48.00724964208526,-9999,10674.36177279167,0.9644012451171875,0.094635009765625,-0.14544677734375,10674.35670679167,1.347007608755811,1.420604552050097,-0.1005734357060444,0.002968181855976582,-0.02440937235951424,-0.003919307608157396,-0.0186774730682373,-0.005696624517440796,0.003794193267822266,2,0.4359841514940694,-0.485264874903235,-0.4466719376507106,-0.6123070909591689,0.9837459921836853,0.1004039719700813,-0.1488716453313828,46.72005462646484,-11.09144401550293,0.497100830078125,2,10672.40189525,2,0,1580906956.643062,1580903939.50652,2106,0.4568741,0,0,2639.329,9,7,1580906940.646764,10671.145185,0,23.49551,96.9305
1580906958.582509,144,0,1580906957.99824,41.20960762299419,29.07530854354018,161.8783,-1,-1,30.74014282226562,48.00724964208526,-9999,10674.37181279167,0.9624786376953125,0.0948486328125,-0.148284912109375,10674.36674679167,1.346987028102767,1.420445452235579,-0.1006125759643596,0.002858991734683514,-0.01555755827575922,-0.005044492892920971,-0.02067923545837402,-0.005583077669143677,0.002485692501068115,2,0.4359547949802414,-0.4852109141807521,-0.4466898991430731,-0.6123576897173718,0.9837184548377991,0.1004429161548615,-0.1490275710821152,46.79894256591797,-11.41944694519043,0.380645751953125,2,10672.40189525,2,0,1580906956.643062,1580903939.50652,2106,0.4568741,0,0,2639.329,9,7,1580906940.646764,10671.145185,0,23.49551,96.9305
1580906958.592411,145,0,1580906957.99824,41.20960762299419,29.07530854354018,161.8783,-1,-1,30.74014282226562,48.00724964208526,-9999,10674.38185279167,0.9604949951171875,0.0929718017578125,-0.1478271484375,10674.37681779167,1.346967918002631,1.420410289630182,-0.1006272290315514,0.001464826986193657,-0.003226855769753456,-0.001989581156522036,-0.02329707145690918,-0.006101250648498535,-0.0005928874015808105,2,0.4359465530527054,-0.4852006255435924,-0.446687771729828,-0.6123730779151966,0.9837116003036499,0.100457489490509,-0.149061918258667,46.79894256591797,-11.41944694519043,0.380645751953125,2,10672.40189525,2,0,1580906956.643062,1580903939.50652,2106,0.4568741,0,0,2639.329,9,7,1580906940.646764,10671.145185,0,23.49551,96.9305
1580906958.614351,146,0,1580906957.99824,41.20960762299419,29.07530854354018,161.8783,-1,-1,30.74014282226562,48.00724964208526,-9999,10674.39189279167,0.963623046875,0.093017578125,-0.1476593017578125,10674.38685779167,1.346986611913974,1.420477775046428,-0.1006281830703452,-0.0005767522379755974,0.007024982944130898,-0.0004787696525454521,-0.025290846824646,-0.006910920143127441,-0.001330792903900146,2,0.4359663720115279,-0.4852170159672481,-0.4466785686662929,-0.6123528789450788,0.9837217330932617,0.1004584431648254,-0.1489955335855484,46.75438690185547,-11.1645450592041,0.340057373046875,2,10672.40189525,2,0,1580906956.643062,1580903939.50652,2106,0.4568741,0,0,2639.329,9,7,1580906940.646764,10671.145185,0,23.49551,96.9305
1580906958.615316,147,0,1580906957.99824,41.20960762299419,29.07530854354018,161.8783,-1,-1,30.74014282226562,48.00724964208526,-9999,10674.40193379167,0.9650115966796875,0.093170166015625,-0.14654541015625,10674.39689779167,1.346993376100743,1.420591483050497,-0.1006370768992536,-0.000886211171746254,0.01092012040317059,-0.001376787666231394,-0.02390313148498535,-0.007926881313323975,-0.0009396076202392578,2,0.4359959615173449,-0.4852481328867435,-0.4466534753193112,-0.6123254198808284,0.9837377667427063,0.100467287003994,-0.1488835364580154,46.75438690185547,-11.1645450592041,0.340057373046875,2,10672.40189525,2,0,1580906956.643062,1580903939.50652,2106,0.4568741,0,0,2639.329,9,7,1580906940.646764,10671.145185,0,23.49551,96.9305
1580906958.622881,148,0,1580906957.99824,41.20960762299419,29.07530854354018,161.8783,-1,-1,30.74014282226562,48.00724964208526,-9999,10674.41197379167,0.96685791015625,0.0951995849609375,-0.1428375244140625,10674.40693879167,1.347004633788845,1.420705407113534,-0.1006557646931026,0.001269084401428699,0.01100454293191433,-0.001767206937074661,-0.0211716890335083,-0.007625073194503784,-0.0004571676254272461,2,0.4360294966734202,-0.4852758895610985,-0.4466270927535304,-0.6122987175012575,0.9837527871131897,0.1004858836531639,-0.1487711817026138,46.56169891357422,-11.07428932189941,0.38018798828125,2,10674.40440579167,2,2,1580906958.645572,1580903939.50652,2106,0.4568741,0,0,2639.329,9,7,1580906940.646764,10671.145185,0,23.49551,96.9305
1580906958.633225,149,0,1580906957.99824,41.20960762299419,29.07530854354018,161.8783,-1,-1,30.74014282226562,48.00724964208526,-9999,10674.42201379167,0.967010498046875,0.096160888671875,-0.1439208984375,10674.41697879167,1.346997871759138,1.420809744049315,-0.1006724423772282,0.0006065024062991142,0.01004694029688835,-0.002191124949604273,-0.02037680149078369,-0.006146341562271118,0.002689957618713379,2,0.4360558918037641,-0.4853051721779341,-0.4465978484655386,-0.6122781259419489,0.9837667346000671,0.1005024760961533,-0.1486683040857315,46.56169891357422,-11.07428932189941,0.38018798828125,2,10674.40440579167,2,2,1580906958.645572,1580903939.50652,2106,0.4568741,0,0,2639.329,9,7,1580906940.646764,10671.145185,0,23.49551,96.9305
1580906958.642881,150,0,1580906957.99824,41.20960762299419,29.07530854354018,161.8783,-1,-1,30.74014282226562,48.00724964208526,-9999,10674.43208479167,0.9654083251953125,0.0956878662109375,-0.144439697265625,10674.42701879167,1.346996467644517,1.420927469659806,-0.1006661792421108,0.002319181337952614,0.01215323247015476,4.060380160808563e-05,-0.01857924461364746,-0.00484311580657959,0.003428399562835693,2,0.4360800590765368,-0.4853430705406388,-0.4465734131683102,-0.612248665800459,0.9837847948074341,0.1004962474107742,-0.1485525667667389,46.62715911865234,-11.29047584533691,0.3299560546875,2,10674.40440579167,2,2,1580906958.645572,1580903939.50652,2106,0.4568741,0,0,2639.329,9,7,1580906940.646764,10671.145185,0,23.49551,96.9305
1580906958.653992,151,0,1580906957.99824,41.20960762299419,29.07530854354018,161.8783,-1,-1,30.74014282226562,48.00724964208526,-9999,10674.44212479167,0.9666900634765625,0.094146728515625,-0.1418914794921875,10674.43705879167,1.346988652318821,1.421022969559089,-0.1006542617516693,0.001324116252362728,0.008669033646583557,0.0009432584047317505,-0.02074611186981201,-0.004556506872177124,0.001396477222442627,2,0.4360960866568654,-0.4853769721730999,-0.4465533700406388,-0.6122249775533977,0.9838001728057861,0.1004843860864639,-0.148458793759346,46.62715911865234,-11.29047584533691,0.3299560546875,2,10674.40440579167,2,2,1580906958.645572,1580903939.50652,2106,0.4568741,0,0,2639.329,9,7,1580906940.646764,10671.145185,0,23.49551,96.9305
1580906958.666988,152,0,1580906957.99824,41.20960762299419,29.07530854354018,161.8783,-1,-1,30.74014282226562,48.00724964208526,-9999,10674.45216579167,0.96771240234375,0.094512939453125,-0.1432647705078125,10674.44709979167,1.346982254397955,1.421093220026363,-0.1006420117922074,0.00262853316962719,0.006726790219545364,0.0004324642941355705,-0.01985740661621094,-0.006405889987945557,0.004150569438934326,2,0.436106680279461,-0.485402946637521,-0.4465393821620304,-0.6122071598121845,0.9838119149208069,0.1004721969366074,-0.1483898907899857,46.60759735107422,-10.96313667297363,0.437652587890625,2,10674.40440579167,2,2,1580906958.645572,1580903939.50652,2106,0.4568741,0,0,2639.329,9,7,1580906940.646764,10671.145185,0,23.49551,96.9305
1580906958.672913,153,0,1580906957.99824,41.20960762299419,29.07530854354018,161.8783,-1,-1,30.74014282226562,48.00724964208526,-9999,10674.46220579167,0.965576171875,0.093841552734375,-0.144500732421875,10674.45716979167,1.346955062014729,1.421157936291133,-0.1006360782627804,0.003156277351081371,0.005763597786426544,0.000388425774872303,-0.0185248851776123,-0.006216883659362793,0.003460884094238281,2,0.4361129149373549,-0.4854301099327758,-0.446518478417399,-0.6121961844858816,0.9838218688964844,0.1004662960767746,-0.1483262628316879,46.60759735107422,-10.96313667297363,0.437652587890625,2,10674.40440579167,2,2,1580906958.645572,1580903939.50652,2106,0.4568741,0,0,2639.329,9,7,1580906940.646764,10671.145185,0,23.49551,96.9305
1580906958.683004,154,0,1580906957.99824,41.20960762299419,29.07530854354018,161.8783,-1,-1,30.74014282226562,48.00724964208526,-9999,10674.47224579167,0.9664154052734375,0.0937652587890625,-0.1459808349609375,10674.46721079167,1.346949864541185,1.421272453440446,-0.1006284952564879,0.002236687578260899,0.01117913611233234,0.001447564922273159,-0.01980912685394287,-0.006636500358581543,0.002005338668823242,2,0.4361350336204395,-0.4854681965782902,-0.4464939489904712,-0.612168176737281,0.9838396906852722,0.1004587486386299,-0.148213729262352,46.86087799072266,-11.02704811096191,0.401214599609375,2,10674.40440579167,2,2,1580906958.645572,1580903939.50652,2106,0.4568741,0,0,2639.329,9,7,1580906940.646764,10671.145185,0,23.49551,96.9305
1580906958.693009,155,0,1580906957.99824,41.20960762299419,29.07530854354018,161.8783,-1,-1,30.74014282226562,48.00724964208526,-9999,10674.48228579167,0.965789794921875,0.0937957763671875,-0.1437835693359375,10674.47725079167,1.346942186457129,1.421421867548885,-0.1006170838568536,0.001711447723209858,0.01511094160377979,0.001390560530126095,-0.02048861980438232,-0.006884574890136719,0.0002101659774780273,2,0.4361632506164176,-0.4855184528090699,-0.4464620661134929,-0.6121315138401948,0.9838629961013794,0.1004474014043808,-0.148066908121109,46.86087799072266,-11.02704811096191,0.401214599609375,2,10674.40440579167,2,2,1580906958.645572,1580903939.50652,2106,0.4568741,0,0,2639.329,9,7,1580906940.646764,10671.145185,0,23.49551,96.9305
1580906958.703084,156,0,1580906957.99824,41.20960762299419,29.07530854354018,161.8783,-1,-1,30.74014282226562,48.00724964208526,-9999,10674.49232679167,0.9668731689453125,0.09454345703125,-0.142425537109375,10674.48729079167,1.346940211223306,1.42158268209098,-0.1006080312421775,0.002011053264141083,0.01710644923150539,0.0001854803413152695,-0.01993370056152344,-0.006722927093505859,0.0009672641754150391,2,0.4361960525184281,-0.4855703747867238,-0.4464288213776825,-0.6120912934845784,0.983887791633606,0.1004383936524391,-0.1479088366031647,46.83423614501953,-11.03131675720215,0.450653076171875,2,10674.40440579167,2,2,1580906958.645572,1580903939.50652,2106,0.4568741,0,0,2639.329,9,7,1580906940.646764,10671.145185,0,23.49551,96.9305
1580906958.713145,157,0,1580906957.99824,41.20960762299419,29.07530854354018,161.8783,-1,-1,30.74014282226562,48.00724964208526,-9999,10674.50236679167,0.9670257568359375,0.09454345703125,-0.143768310546875,10674.49733179167,1.346940501905002,1.421741487099914,-0.1005996408383584,-0.0008607413619756699,0.01631683297455311,-0.0001680785790085793,-0.02011054754257202,-0.006378859281539917,0.003130137920379639,2,0.4362291771681506,-0.4856209967819566,-0.4463965081454607,-0.612051080296878,0.9839120507240295,0.10043004155159,-0.1477527022361755,46.83423614501953,-11.03131675720215,0.450653076171875,2,10674.40440579167,2,2,1580906958.645572,1580903939.50652,2106,0.4568741,0,0,2639.329,9,7,1580906940.646764,10672.090282,0,23.48758,96.93056
1580906958.725216,158,0,1580906957.99824,41.20960762299419,29.07530854354018,161.8783,-1,-1,30.74014282226562,48.00724964208526,-9999,10674.51243779167,0.967010498046875,0.0958099365234375,-0.1417388916015625,10674.50737179167,1.346946476492207,1.421906517118235,-0.1005840452720831,0.001647157594561577,0.01803403906524181,0.001293464563786983,-0.01905310153961182,-0.006180167198181152,0.002051949501037598,2,0.4362630468528852,-0.4856740501861485,-0.4463664729976341,-0.6120066282641129,0.9839378595352173,0.1004145294427872,-0.1475905478000641,46.73828887939453,-11.22632789611816,0.46978759765625,2,10674.40440579167,2,2,1580906958.645572,1580903939.50652,2106,0.4568741,0,0,2639.329,9,7,1580906940.646764,10672.090282,0,23.48758,96.93056
1580906958.7333,159,0,1580906957.99824,41.20960762299419,29.07530854354018,161.8783,-1,-1,30.74014282226562,48.00724964208526,-9999,10674.52247779167,0.9695281982421875,0.09649658203125,-0.1395416259765625,10674.51741179167,1.346943908023966,1.42201455045163,-0.1005560719431693,0.0003165630623698235,0.01073229685425758,0.002147737890481949,-0.01981949806213379,-0.005145251750946045,0.002510428428649902,2,0.4362785616446795,-0.4857146184815797,-0.4463495695134668,-0.6119756547298711,0.983956515789032,0.1003866940736771,-0.1474846452474594,46.73828887939453,-11.22632789611816,0.46978759765625,2,10674.40440579167,2,2,1580906958.645572,1580903939.50652,2106,0.4568741,0,0,2639.329,9,7,1580906940.646764,10672.090282,0,23.48758,96.93056
1580906958.745256,160,0,1580906957.99824,41.20960762299419,29.07530854354018,161.8783,-1,-1,30.74014282226562,48.00724964208526,-9999,10674.53251779167,0.9687042236328125,0.095001220703125,-0.1410980224609375,10674.52745179167,1.346949951591057,1.422033681488038,-0.1004820953373491,0.001715787686407566,-0.0001200847327709198,0.007841574959456921,-0.01757133007049561,-0.004079610109329224,0.005452752113342285,2,0.4362631798411764,-0.4857375573893946,-0.4463669658528587,-0.6119557138368692,0.9839667081832886,0.1003130897879601,-0.1474669277667999,46.44568634033203,-11.03852653503418,0.50115966796875,2,10674.40440579167,2,2,1580906958.645572,1580903939.50652,2106,0.4568741,0,0,2639.329,9,7,1580906940.646764,10672.090282,0,23.48758,96.93056
