loggingTime,loggingSample,identifierForVendor,locationTimestamp_since1970,locationLatitude,locationLongitude,locationAltitude,locationSpeed,locationCourse,locationVerticalAccuracy,locationHorizontalAccuracy,locationFloor,accelerometerTimestamp_sinceReboot,accelerometerAccelerationX,accelerometerAccelerationY,accelerometerAccelerationZ,motionTimestamp_sinceReboot,motionYaw,motionRoll,motionPitch,motionRotationRateX,motionRotationRateY,motionRotationRateZ,motionUserAccelerationX,motionUserAccelerationY,motionUserAccelerationZ,motionAttitudeReferenceFrame,motionQuaternionX,motionQuaternionY,motionQuaternionZ,motionQuaternionW,motionGravityX,motionGravityY,motionGravityZ,motionMagneticFieldX,motionMagneticFieldY,motionMagneticFieldZ,motionMagneticFieldCalibrationAccuracy,activityTimestamp_sinceReboot,activity,activityActivityConfidence,activityActivityStartDate,pedometerStartDate,pedometerNumberofSteps,pedometerAverageActivePace,pedometerCurrentPace,pedometerCurrentCadence,pedometerDistance,pedometerFloorAscended,pedometerFloorDescended,pedometerEndDate,altimeterTimestamp_sinceReboot,altimeterReset,altimeterRelativeAltitude,altimeterPressure
1580904612.784892,1,0,1580904337.000819,41.20701635159924,29.07533761282497,172.748,-1,-1,5.74967098236084,48.00724964208526,-9999,8328.506680625,0.97198486328125,0.0604095458984375,-0.145355224609375,8328.501615625,-3.137238949381647,1.418183665522289,-0.0507893640364588,-0.007793845608830452,0.008070958778262138,-0.008197629824280739,-0.01183640956878662,0.009714782238006592,0.009970545768737793,2,0.6508913365372549,0.02068825434476426,-0.7587431122893142,-0.01488220006059258,0.9871028661727905,0.05076752975583076,-0.1518249213695526,42.3541259765625,-8.23651123046875,-36.23773193359375,2,8326.631531125,4,2,1580904610.872697,1580903939.50652,226,0.6966805,0,0,212.7492,1,0,1580904562.426208,8325.66793,0,5.340118,97.14109
1580904612.786232,2,0,1580904337.000819,41.20701635159924,29.07533761282497,172.748,-1,-1,5.74967098236084,48.00724964208526,-9999,8328.516721625001,0.9687347412109375,0.061126708984375,-0.14617919921875,8328.511655625001,-3.137186416504451,1.418284218948557,-0.05087180844740347,-0.005893309134989977,0.0119398795068264,-0.006642546039074659,-0.01549440622329712,0.009540855884552002,0.006055772304534912,2,0.6509281930119539,0.02073587640538611,-0.7587099726765514,-0.01489014982535967,0.987113893032074,0.05084986984729767,-0.1517250239849091,42.48895263671875,-8.210075378417969,-36.202392578125,2,8326.631531125,4,2,1580904610.872697,1580903939.50652,226,0.6966805,0,0,212.7492,1,0,1580904562.426208,8325.66793,0,5.340118,97.14109
1580904612.787393,3,0,1580904337.000819,41.20701635159924,29.07533761282497,172.748,-1,-1,5.74967098236084,48.00724964208526,-9999,8328.526761625,0.968292236328125,0.062896728515625,-0.1451568603515625,8328.521695625001,-3.137134795660803,1.418379352081044,-0.05094577034011535,-0.006818757858127356,0.009070325642824173,-0.005896594375371933,-0.01875525712966919,0.01018411666154861,0.005137324333190918,2,0.6509630690494242,0.02078002369739189,-0.7586787552307199,-0.01489563006555586,0.9871246218681335,0.05092373490333557,-0.1516305506229401,42.48895263671875,-8.210075378417969,-36.202392578125,2,8326.631531125,4,2,1580904610.872697,1580903939.50652,226,0.6966805,0,0,212.7492,1,0,1580904562.426208,8325.66793,0,5.340118,97.14109
1580904612.788446,4,0,1580904337.000819,41.20701635159924,29.07533761282497,172.748,-1,-1,5.74967098236084,48.00724964208526,-9999,8328.536801625001,0.9698486328125,0.062835693359375,-0.1433258056640625,8328.531735625,-3.137087253791489,1.418444779300906,-0.05100878427524322,-0.006793580949306488,0.006296414881944656,-0.0058992775157094,-0.01920455694198608,0.01189118623733521,0.006094574928283691,2,0.6509868145855995,0.02081891161749388,-0.7586572831477635,-0.01489878822472013,0.9871314167976379,0.05098666623234749,-0.1515654772520065,42.5172119140625,-8.135635375976562,-36.18133544921875,2,8326.631531125,4,2,1580904610.872697,1580903939.50652,226,0.6966805,0,0,212.7492,1,0,1580904562.426208,8325.66793,0,5.340118,97.14109
1580904612.790031,5,0,1580904337.000819,41.20701635159924,29.07533761282497,172.748,-1,-1,5.74967098236084,48.00724964208526,-9999,8328.546842625001,0.9691162109375,0.06268310546875,-0.1446075439453125,8328.541776625001,-3.13703923795867,1.418477306784059,-0.0510393856727125,-0.005873724818229675,0.003387974575161934,-0.001556993462145329,-0.01765143871307373,0.01179958879947662,0.007893264293670654,2,0.6509983726329222,0.02084590510314852,-0.758646777471761,-0.01489087542557499,0.9871348142623901,0.05101722851395607,-0.1515331268310547,42.5172119140625,-8.135635375976562,-36.18133544921875,2,8326.631531125,4,2,1580904610.872697,1580903939.50652,226,0.6966805,0,0,212.7492,1,0,1580904562.426208,8325.66793,0,5.340118,97.14109
1580904612.791707,6,0,1580904337.000819,41.20701635159924,29.07533761282497,172.748,-1,-1,5.74967098236084,48.00724964208526,-9999,8328.556882625,0.967803955078125,0.061981201171875,-0.144439697265625,8328.551816625,-3.137002928708359,1.418483660205996,-0.05105300735283697,-0.003594012930989265,-4.309602081775665e-05,-0.000640153419226408,-0.01838409900665283,0.01163338869810104,0.006605207920074463,2,0.6510002821798848,0.02086284296680846,-0.7586448131119466,-0.01488160455410827,0.9871350526809692,0.05103083327412605,-0.1515267491340637,42.58379364013672,-8.125339508056641,-36.28961181640625,2,8326.631531125,4,2,1580904610.872697,1580903939.50652,226,0.6966805,0,0,212.7492,1,0,1580904562.426208,8325.66793,0,5.340118,97.14109
1580904612.812669,7,0,1580904337.000819,41.20701635159924,29.07533761282497,172.748,-1,-1,5.74967098236084,48.00724964208526,-9999,8328.566922625001,0.96893310546875,0.0614166259765625,-0.1446990966796875,8328.561887625001,-3.136971969490692,1.418488029445289,-0.05105547652949136,-0.003626237157732248,-4.25633043050766e-05,0.001328721176832914,-0.01969695091247559,0.01092900335788727,0.006768643856048584,2,0.6510015928672817,0.02087382422554727,-0.7586436125952826,-0.01487071004764065,0.9871355891227722,0.05103329941630363,-0.1515224128961563,42.58379364013672,-8.125339508056641,-36.28961181640625,2,8326.631531125,4,2,1580904610.872697,1580903939.50652,226,0.6966805,0,0,212.7492,1,0,1580904562.426208,8325.66793,0,5.340118,97.14109
1580904612.8137,8,0,1580904337.000819,41.20701635159924,29.07533761282497,172.748,-1,-1,5.74967098236084,48.00724964208526,-9999,8328.576962625,0.9711456298828125,0.0612335205078125,-0.1454315185546875,8328.571927625,-3.136951337422178,1.418491276096721,-0.05104817342628509,-0.001552433706820011,-0.0003501567989587784,0.002132996451109648,-0.01856863498687744,0.01037173718214035,0.006506145000457764,2,0.6510026785569127,0.02087774591455656,-0.7586427402151598,-0.01486054128748322,0.9871364235877991,0.05102600529789925,-0.1515192687511444,42.47417449951172,-8.12530517578125,-35.9677734375,2,8326.631531125,4,2,1580904610.872697,1580903939.50652,226,0.6966805,0,0,212.7492,1,0,1580904562.426208,8325.66793,0,5.340118,97.14109
1580904612.81462,9,0,1580904337.000819,41.20701635159924,29.07533761282497,172.748,-1,-1,5.74967098236084,48.00724964208526,-9999,8328.587003625,0.97021484375,0.0611724853515625,-0.143951416015625,8328.581967625001,-3.136909648895256,1.418478697765957,-0.05104190702511857,-0.004604443907737732,-0.001691924408078194,0.002133836969733238,-0.01635450124740601,0.01019488275051117,0.005786120891571045,2,0.6509975278894838,0.02088903219004527,-0.758647224615778,-0.01484255580660702,0.9871348142623901,0.05101974681019783,-0.1515317410230637,42.47417449951172,-8.12530517578125,-35.9677734375,2,8326.631531125,4,2,1580904610.872697,1580903939.50652,226,0.6966805,0,0,212.7492,1,0,1580904562.426208,8325.66793,0,5.340118,97.14109
1580904612.824871,10,0,1580904337.000819,41.20701635159924,29.07533761282497,172.748,-1,-1,5.74967098236084,48.00724964208526,-9999,8328.597043625001,0.9694061279296875,0.061920166015625,-0.14300537109375,8328.592008625001,-3.136881998894065,1.418436805968712,-0.05103481673524227,-0.00152361486107111,-0.003902815282344818,0.001912102568894625,-0.01727932691574097,0.01014092564582825,0.007307648658752441,2,0.6509814148189274,0.02089565361145908,-0.7586611110384917,-0.01482932215960371,0.9871288537979126,0.05101266503334045,-0.1515731364488602,42.36970520019531,-8.465919494628906,-36.17730712890625,2,8326.631531125,4,2,1580904610.872697,1580903939.50652,226,0.6966805,0,0,212.7492,1,0,1580904562.426208,8325.66793,0,5.340118,97.14109
1580904612.834689,11,0,1580904337.000819,41.20701635159924,29.07533761282497,172.748,-1,-1,5.74967098236084,48.00724964208526,-9999,8328.607083625,0.9704132080078125,0.0626220703125,-0.143768310546875,8328.602048625,-3.136843832034222,1.418352310620181,-0.05101707535895587,-0.004628328140825033,-0.008410748094320297,0.002448462415486574,-0.01807606220245361,0.01090634614229202,0.008337318897247314,2,0.6509491272976903,0.02090197304706428,-0.7586890497687823,-0.01480818590705928,0.9871169328689575,0.05099494755268097,-0.1516566872596741,42.36970520019531,-8.465919494628906,-36.17730712890625,2,8326.631531125,4,2,1580904610.872697,1580903939.50652,226,0.6966805,0,0,212.7492,1,0,1580904562.426208,8325.66793,0,5.340118,97.14109
1580904612.844826,12,0,1580904337.000819,41.20701635159924,29.07533761282497,172.748,-1,-1,5.74967098236084,48.00724964208526,-9999,8328.617124625,0.970245361328125,0.0624847412109375,-0.144439697265625,8328.612088625001,-3.136822709437232,1.41825355143766,-0.05097178042905437,-0.0018451027572155,-0.009633054956793785,0.006444871891289949,-0.01705622673034668,0.01165349036455154,0.00767219066619873,2,0.6509118618213431,0.02089239739103744,-0.7587217105549896,-0.01478439834334146,0.9871041774749756,0.05094971135258675,-0.1517545133829117,42.42378997802734,-8.4058837890625,-36.28759765625,2,8326.631531125,4,2,1580904610.872697,1580903939.50652,226,0.6966805,0,0,212.7492,1,0,1580904562.426208,8325.66793,0,5.340118,97.14109
1580904612.871049,13,0,1580904337.000819,41.20701635159924,29.07533761282497,172.748,-1,-1,5.74967098236084,48.00724964208526,-9999,8328.627164625001,0.96978759765625,0.06231689453125,-0.144134521484375,8328.622128625,-3.136806642203098,1.418139014392779,-0.05093301668753276,-0.0008818376809358597,-0.01124639809131622,0.004867747891694307,-0.01720869541168213,0.01155491918325424,0.00711435079574585,2,0.650868597601031,0.02088376822713971,-0.7587594645949625,-0.01476448895714877,0.9870887398719788,0.05091099813580513,-0.1518678665161133,42.42378997802734,-8.4058837890625,-36.28759765625,2,8326.631531125,4,2,1580904610.872697,1580903939.50652,226,0.6966805,0,0,212.7492,1,0,1580904562.426208,8325.66793,0,5.340118,97.14109
1580904612.872088,14,0,1580904337.000819,41.20701635159924,29.07533761282497,172.748,-1,-1,5.74967098236084,48.00724964208526,-9999,8328.637204625,0.970977783203125,0.06158447265625,-0.1436767578125,8328.632169625,-3.136783481046506,1.417996236989544,-0.0508839786583737,-0.001000348478555679,-0.01406402140855789,0.005601982120424509,-0.01764732599258423,0.01143604516983032,0.007560908794403076,2,0.6508146336478547,0.02087375576577002,-0.7588065981911158,-0.01473824906786085,0.9870696067810059,0.05086202174425125,-0.1520092040300369,42.41237640380859,-8.158760070800781,-36.292724609375,2,8326.631531125,4,2,1580904610.872697,1580903939.50652,226,0.6966805,0,0,212.7492,1,0,1580904562.426208,8325.66793,0,5.340118,97.14109
1580904612.875138,15,0,1580904337.000819,41.20701635159924,29.07533761282497,172.748,-1,-1,5.74967098236084,48.00724964208526,-9999,8328.647275625,0.971954345703125,0.0619354248046875,-0.1453094482421875,8328.642209625001,-3.136764200376789,1.417832805225606,-0.05082843442607928,-0.0003337590023875237,-0.01593968644738197,0.00672237342223525,-0.01643514633178711,0.01075911521911621,0.008180201053619385,2,0.6507529384113891,0.02086016058771689,-0.7588603527202941,-0.01471115407354909,0.9870474338531494,0.05080655217170715,-0.1521709263324738,42.41237640380859,-8.158760070800781,-36.292724609375,2,8326.631531125,4,2,1580904610.872697,1580903939.50652,226,0.6966805,0,0,212.7492,1,0,1580904562.426208,8325.66793,0,5.340118,97.14109
1580904612.884967,16,0,1580904337.000819,41.20701635159924,29.07533761282497,172.748,-1,-1,5.74967098236084,48.00724964208526,-9999,8328.657315625,0.970733642578125,0.0618438720703125,-0.1452789306640625,8328.652249625,-3.136756651902426,1.417664095747341,-0.05076816624095957,0.0002540210261940956,-0.01637797243893147,0.007194238714873791,-0.01543599367141724,0.01117026805877686,0.006714582443237305,2,0.6506893972284192,0.02084099050006898,-0.758915834892767,-0.01468691925308858,0.9870247840881348,0.05074635893106461,-0.1523379236459732,42.24886322021484,-8.272861480712891,-36.271240234375,2,8326.631531125,4,2,1580904610.872697,1580903939.50652,226,0.6966805,0,0,212.7492,1,0,1580904562.426208,8325.66793,0,5.340118,97.14109
1580904612.895095,17,0,1580904337.000819,41.20701635159924,29.07533761282497,172.748,-1,-1,5.74967098236084,48.00724964208526,-9999,8328.667356625001,0.9691162109375,0.0613861083984375,-0.14434814453125,8328.662290625001,-3.136757219438317,1.417488887910752,-0.05069644858358906,0.001465759240090847,-0.01814711093902588,0.008646727539598942,-0.01663368940353394,0.01115036755800247,0.006918489933013916,2,0.6506235752842106,0.02081487940020286,-0.7589734526166743,-0.01466197526044007,0.9870016574859619,0.05067473649978638,-0.152511402964592,42.24886322021484,-8.272861480712891,-36.271240234375,2,8326.631531125,4,2,1580904610.872697,1580903939.50652,226,0.6966805,0,0,212.7492,1,0,1580904562.426208,8325.66793,0,5.340118,97.14109
1580904612.905061,18,0,1580904337.000819,41.20701635159924,29.07533761282497,172.748,-1,-1,5.74967098236084,48.00724964208526,-9999,8328.677396625,0.9691925048828125,0.0614776611328125,-0.145599365234375,8328.672330625001,-3.136756891109237,1.417300755988447,-0.05063981833133736,0.0008656270802021027,-0.0190456286072731,0.00623041857033968,-0.01822531223297119,0.01074917614459991,0.008035421371459961,2,0.6505526901095975,0.02079487538483148,-0.7590352105765253,-0.01464146776927404,0.9869758486747742,0.05061817914247513,-0.1526975482702255,42.21393585205078,-8.195510864257812,-36.35235595703125,2,8326.631531125,4,2,1580904610.872697,1580903939.50652,226,0.6966805,0,0,212.7492,1,0,1580904562.426208,8325.66793,0,5.340118,97.14109
1580904612.933165,19,0,1580904337.000819,41.20701635159924,29.07533761282497,172.748,-1,-1,5.74967098236084,48.00724964208526,-9999,8328.68742025,0.9683074951171875,0.0604095458984375,-0.14544677734375,8328.682370625,-3.136747361149567,1.417106017310846,-0.05057531670088057,0.000242181122303009,-0.0194389782845974,0.00764642097055912,-0.01812267303466797,0.01090515404939651,0.006976723670959473,2,0.6504792771442865,0.02077492145166578,-0.7590991094414588,-0.01461484677162186,0.9869492650032043,0.05055375769734383,-0.152890220284462,42.21393585205078,-8.195510864257812,-36.35235595703125,2,8326.631531125,4,2,1580904610.872697,1580903939.50652,226,0.6966805,0,0,212.7492,1,0,1580904562.426208,8325.66793,0,5.340118,97.14109
1580904612.934408,20,0,1580904337.000819,41.20701635159924,29.07533761282497,172.748,-1,-1,5.74967098236084,48.00724964208526,-9999,8328.697460250001,0.965728759765625,0.0582122802734375,-0.1471710205078125,8328.69239425,-3.136721407864565,1.416961406927378,-0.05052906308763309,-0.0008275490254163742,-0.01402555592358112,0.005593550391495228,-0.01898777484893799,0.009883269667625427,0.007272601127624512,2,0.6504245358829307,0.02076686366478665,-0.7591468239938208,-0.0145884463992093,0.9869295358657837,0.0505075640976429,-0.1530333161354065,42.41998291015625,-8.220527648925781,-36.32476806640625,2,8326.631531125,4,2,1580904610.872697,1580903939.50652,226,0.6966805,0,0,212.7492,1,0,1580904562.426208,8325.66793,0,5.340118,97.14109
1580904612.93548,21,0,1580904337.000819,41.20701635159924,29.07533761282497,172.748,-1,-1,5.74967098236084,48.00724964208526,-9999,8328.707501250001,0.967559814453125,0.05926513671875,-0.1484222412109375,8328.702435250001,-3.136692391128113,1.416891187895177,-0.0505237341844255,-0.002530107740312815,-0.007122110575437546,0.0008038543164730072,-0.02155607938766479,0.007691308856010437,0.00561755895614624,2,0.6503976374473606,0.02077478949874212,-0.7591698075918999,-0.01457497310923685,0.9869189262390137,0.0505022406578064,-0.1531026363372803,42.41998291015625,-8.220527648925781,-36.32476806640625,2,8326.631531125,4,2,1580904610.872697,1580903939.50652,226,0.6966805,0,0,212.7492,1,0,1580904562.426208,8325.66793,0,5.340118,97.14109
1580904612.945405,22,0,1580904337.000819,41.20701635159924,29.07533761282497,172.748,-1,-1,5.74967098236084,48.00724964208526,-9999,8328.71754125,0.9689178466796875,0.0605010986328125,-0.145965576171875,8328.71250625,-3.136661658368699,1.4168649154263,-0.05053988300106607,-0.003784130327403545,-0.003670433536171913,-0.0007694116793572903,-0.01972025632858276,0.00872802734375,0.004392147064208984,2,0.6503871940407627,0.0207911043216789,-0.7591784833636305,-0.01456828511495432,0.9869141578674316,0.05051837116479874,-0.1531284600496292,42.31642150878906,-8.433994293212891,-36.3985595703125,2,8326.631531125,4,2,1580904610.872697,1580903939.50652,226,0.6966805,0,0,212.7492,1,0,1580904562.426208,8325.66793,0,5.340118,97.14109
1580904612.955148,23,0,1580904337.000819,41.20701635159924,29.07533761282497,172.748,-1,-1,5.74967098236084,48.00724964208526,-9999,8328.727581250001,0.9701690673828125,0.061279296875,-0.1458282470703125,8328.722546250001,-3.136621373180436,1.416854611818875,-0.05055881897867353,-0.004737009294331074,-0.001819802448153496,-0.001018950249999762,-0.01835978031158447,0.009945064783096313,0.006858885288238525,2,0.6503826843554467,0.02081146693220631,-0.7591820461640094,-0.01455904223419981,0.9869117140769958,0.05053728073835373,-0.1531384885311127,42.31642150878906,-8.433994293212891,-36.3985595703125,2,8326.631531125,4,2,1580904610.872697,1580903939.50652,226,0.6966805,0,0,212.7492,1,0,1580904562.426208,8325.66793,0,5.340118,97.14109
1580904612.965312,24,0,1580904337.000819,41.20701635159924,29.07533761282497,172.748,-1,-1,5.74967098236084,48.00724964208526,-9999,8328.737622250001,0.9675140380859375,0.061309814453125,-0.14666748046875,8328.73258625,-3.136582383821364,1.416856965903868,-0.05057225244427555,-0.003644314128905535,-0.0002187099307775497,-0.0007054959423840046,-0.01710844039916992,0.01070985198020935,0.006993591785430908,2,0.6503830531970055,0.02082922747477298,-0.7591813853658571,-0.01454863768358065,0.9869113564491272,0.05055069923400879,-0.1531360596418381,42.19135284423828,-8.303077697753906,-36.31781005859375,2,8326.631531125,4,2,1580904610.872697,1580903939.50652,226,0.6966805,0,0,212.7492,1,0,1580904562.426208,8325.66793,0,5.340118,97.14109
1580904612.975607,25,0,1580904337.000819,41.20701635159924,29.07533761282497,172.748,-1,-1,5.74967098236084,48.00724964208526,-9999,8328.74766225,0.967498779296875,0.06085205078125,-0.14556884765625,8328.742626250001,-3.136537966292073,1.416880331771126,-0.05058882038823725,-0.005119354929775,0.003194211050868034,-0.0008750227279961109,-0.01976639032363892,0.01072379946708679,0.006130993366241455,2,0.6503913079784495,0.02084979018590397,-0.7591739601805685,-0.01453740947022472,0.9869140982627869,0.05056724324822426,-0.1531128585338593,42.19135284423828,-8.303077697753906,-36.31781005859375,2,8326.631531125,4,2,1580904610.872697,1580903939.50652,226,0.6966805,0,0,212.7492,1,0,1580904562.426208,8325.66793,0,5.340118,97.14109
1580904612.998798,26,0,1580904337.000819,41.20701635159924,29.07533761282497,172.748,-1,-1,5.74967098236084,48.00724964208526,-9999,8328.757702250001,0.970123291015625,0.0616455078125,-0.1461639404296875,8328.752667250001,-3.136501489163107,1.41689609985569,-0.05059696659450155,-0.003574248868972063,0.00138036347925663,5.268305540084839e-05,-0.01978373527526855,0.01025789976119995,0.007214009761810303,2,0.6503968341718808,0.02086462971823461,-0.7591690802691008,-0.014526375569478,0.986916184425354,0.0505753792822361,-0.1530972570180893,42.28510284423828,-8.177131652832031,-36.4176025390625,2,8326.631531125,4,2,1580904610.872697,1580903939.50652,226,0.6966805,0,0,212.7492,1,0,1580904562.426208,8325.66793,0,5.340118,97.14109
1580904613.000222,27,0,1580904337.000819,41.20701635159924,29.07533761282497,172.748,-1,-1,5.74967098236084,48.00724964208526,-9999,8328.76774225,0.970947265625,0.0616607666015625,-0.1451416015625,8328.76270725,-3.136459935823656,1.416900997219537,-0.05061669657471698,-0.00426107831299305,-0.0006478987634181976,-0.001851210836321115,-0.01715904474258423,0.01103165000677109,0.006613969802856445,2,0.6503980753302844,0.02088559561435675,-0.7591676520391633,-0.01451706973052204,0.9869159460067749,0.05059508606791496,-0.1530922651290894,42.28510284423828,-8.177131652832031,-36.4176025390625,2,8326.631531125,4,2,1580904610.872697,1580903939.50652,226,0.6966805,0,0,212.7492,1,0,1580904562.426208,8325.66793,0,5.340118,97.14109
1580904613.005496,28,0,1580904337.000819,41.20701635159924,29.07533761282497,172.748,-1,-1,5.74967098236084,48.00724964208526,-9999,8328.77778325,0.9699859619140625,0.0608062744140625,-0.144500732421875,8328.772747250001,-3.136410735602284,1.416886765499071,-0.05063281416973648,-0.005924040451645851,-0.001375274732708931,-0.0002041514962911606,-0.01633226871490479,0.01103077828884125,0.007649898529052734,2,0.6503920195554365,0.02090781595755925,-0.7591723704571893,-0.01450349140804194,0.9869128465652466,0.05061118304729462,-0.1531061679124832,42.14479827880859,-8.208095550537109,-36.39801025390625,2,8326.631531125,4,2,1580904610.872697,1580903939.50652,226,0.6966805,0,0,212.7492,1,0,1580904562.426208,8325.66793,0,5.340118,97.14109
1580904613.015718,29,0,1580904337.000819,41.20701635159924,29.07533761282497,172.748,-1,-1,5.74967098236084,48.00724964208526,-9999,8328.787823250001,0.9691162109375,0.0616455078125,-0.145263671875,8328.782788250001,-3.136379459672254,1.416834096845115,-0.05064459795441874,-0.00313464505597949,-0.006176687777042389,-0.0005833860486745834,-0.01728498935699463,0.01016450673341751,0.0083426833152771,2,0.6503715855775317,0.02092284095046727,-0.7591897014029109,-0.01449489867663231,0.9869042634963989,0.05062295123934746,-0.1531580686569214,42.14479827880859,-8.208095550537109,-36.39801025390625,2,8326.631531125,4,2,1580904610.872697,1580903939.50652,226,0.6966805,0,0,212.7492,1,0,1580904562.426208,8325.66793,0,5.340118,97.14109
1580904613.025735,30,0,1580904337.000819,41.20701635159924,29.07533761282497,172.748,-1,-1,5.74967098236084,48.00724964208526,-9999,8328.797894250001,0.9687652587890625,0.0624237060546875,-0.145233154296875,8328.79282825,-3.136348382011423,1.416764335234923,-0.05064290768229478,-0.003615838475525379,-0.007846338674426079,0.0007435767911374569,-0.01814401149749756,0.01100543886423111,0.007648587226867676,2,0.6503447996478775,0.02093281055663577,-0.759212553211712,-0.01448182412282877,0.9868935942649841,0.05062126368284225,-0.153226912021637,42.12973022460938,-8.281314849853516,-36.21435546875,2,8326.631531125,4,2,1580904610.872697,1580903939.50652,226,0.6966805,0,0,212.7492,1,0,1580904562.426208,8325.66793,0,5.340118,97.14109
1580904613.058368,31,0,1580904337.000819,41.20701635159924,29.07533761282497,172.748,-1,-1,5.74967098236084,48.00724964208526,-9999,8328.80793425,0.9690399169921875,0.0616607666015625,-0.1459197998046875,8328.802868250001,-3.136316709906203,1.416694221434497,-0.05062512192821108,-0.003654720727354288,-0.007978431880474091,0.002238675486296415,-0.01848524808883667,0.01180139929056168,0.00774848461151123,2,0.6503180101600582,0.02093686569806182,-0.7592358227815896,-0.01446328023356476,0.986883819103241,0.05060350149869919,-0.1532962620258331,42.12973022460938,-8.281314849853516,-36.21435546875,2,8326.631531125,4,2,1580904610.872697,1580903939.50652,226,0.6966805,0,0,212.7492,1,0,1580904562.426208,8325.66793,0,5.340118,97.14109
1580904613.060063,32,0,1580904337.000819,41.20701635159924,29.07533761282497,172.748,-1,-1,5.74967098236084,48.00724964208526,-9999,8328.81797425,0.967803955078125,0.060760498046875,-0.145111083984375,8328.81290825,-3.136294509557989,1.416640503828245,-0.05059263114552604,-0.00200011907145381,-0.00527673028409481,0.004133293870836496,-0.01820415258407593,0.01107090711593628,0.007114946842193604,2,0.6502976887912197,0.02093213961124687,-0.7592536862193272,-0.01444372552256457,0.9868771433830261,0.05057105049490929,-0.1533495187759399,42.43993377685547,-8.220874786376953,-36.41168212890625,2,8326.631531125,4,2,1580904610.872697,1580903939.50652,226,0.6966805,0,0,212.7492,1,0,1580904562.426208,8325.66793,0,5.340118,97.14109
1580904613.061422,33,0,1580904337.000819,41.20701635159924,29.07533761282497,172.748,-1,-1,5.74967098236084,48.00724964208526,-9999,8328.828015250001,0.96832275390625,0.062164306640625,-0.1462249755859375,8328.822949250001,-3.136276186979604,1.416580860724275,-0.05055742341645569,-0.001499977894127369,-0.006554780527949333,0.004342885222285986,-0.01943290233612061,0.01020580530166626,0.00798267126083374,2,0.6502751785341444,0.0209251630902443,-0.759273534595865,-0.01442469572545967,0.9868698120117188,0.0505358874797821,-0.1534086614847183,42.43993377685547,-8.220874786376953,-36.41168212890625,2,8326.631531125,4,2,1580904610.872697,1580903939.50652,226,0.6966805,0,0,212.7492,1,0,1580904562.426208,8325.66793,0,5.340118,97.14109
1580904613.066144,34,0,1580904337.000819,41.20701635159924,29.07533761282497,172.748,-1,-1,5.74967098236084,48.00724964208526,-9999,8328.83805525,0.9684600830078125,0.0608978271484375,-0.1466064453125,8328.832989250001,-3.136259650005833,1.416531995918477,-0.05052832400595608,-0.001158273778855801,-0.005969077348709106,0.00320194149389863,-0.01890820264816284,0.01163868606090546,0.006917059421539307,2,0.6502567300371501,0.02091984596921403,-0.7592896973156493,-0.01440844678425995,0.9868636131286621,0.0505068264901638,-0.1534570902585983,42.53935241699219,-8.3343505859375,-36.4542236328125,2,8326.631531125,4,2,1580904610.872697,1580903939.50652,226,0.6966805,0,0,212.7492,1,0,1580904562.426208,8325.66793,0,5.340118,97.14109
1580904613.075861,35,0,1580904337.000819,41.20701635159924,29.07533761282497,172.748,-1,-1,5.74967098236084,48.00724964208526,-9999,8328.848095250001,0.9674224853515625,0.0601959228515625,-0.146392822265625,8328.84302925,-3.136246536203625,1.416516240149957,-0.05049909840127413,-7.916055619716644e-05,-0.001576991751790047,0.004404624458402395,-0.01876991987228394,0.0104013979434967,0.00655132532119751,2,0.6502508797065837,0.02091312896284938,-0.7592951867517711,-0.01439379933554141,0.9868626594543457,0.05047763884067535,-0.1534728705883026,42.53935241699219,-8.3343505859375,-36.4542236328125,2,8326.631531125,4,2,1580904610.872697,1580903939.50652,226,0.6966805,0,0,212.7492,1,0,1580904562.426208,8325.66793,0,5.340118,97.14109
1580904613.085936,36,0,1580904337.000819,41.20701635159924,29.07533761282497,172.748,-1,-1,5.74967098236084,48.00724964208526,-9999,8328.85813525,0.967193603515625,0.0602264404296875,-0.1466827392578125,8328.85310025,-3.136226779858661,1.416512347216992,-0.05048620892096576,-0.001272479072213173,-0.001586131751537323,0.002730225678533316,-0.01980763673782349,0.009712383151054382,0.006768882274627686,2,0.6502493098601922,0.0209146873636996,-0.7592967663971308,-0.01438206498330957,0.9868627786636353,0.05046476423740387,-0.153476819396019,42.52481079101562,-8.250934600830078,-36.32696533203125,2,8326.631531125,4,2,1580904610.872697,1580903939.50652,226,0.6966805,0,0,212.7492,1,0,1580904562.426208,8325.66793,0,5.340118,97.14109
1580904613.116911,37,0,1580904337.000819,41.20701635159924,29.07533761282497,172.748,-1,-1,5.74967098236084,48.00724964208526,-9999,8328.86817625,0.9680938720703125,0.0595855712890625,-0.1469573974609375,8328.863140250001,-3.136201420208795,1.416553590348909,-0.05048066931122959,-0.001570752821862698,0.003550838679075241,0.001879611518234015,-0.02004313468933105,0.009748436510562897,0.006438374519348145,2,0.6502647522608996,0.02092053320446004,-0.7592836051593997,-0.01437106675905217,0.9868694543838501,0.05045923218131065,-0.1534361690282822,42.3555908203125,-8.207122802734375,-36.453369140625,2,8326.631531125,4,2,1580904610.872697,1580903939.50652,226,0.6966805,0,0,212.7492,1,0,1580904562.426208,8325.66793,0,5.340118,97.14109
1580904613.118319,38,0,1580904337.000819,41.20701635159924,29.07533761282497,172.748,-1,-1,5.74967098236084,48.00724964208526,-9999,8328.878216250001,0.96807861328125,0.05963134765625,-0.146484375,8328.873181250001,-3.136171605520582,1.416665363821528,-0.05048792785754022,-0.002568086609244347,0.01172176748514175,-0.000303157139569521,-0.01915985345840454,0.009100288152694702,0.006052970886230469,2,0.6503068101742991,0.02093217955141725,-0.7592473571730802,-0.01436327982108578,0.9868861436843872,0.05046648159623146,-0.1533257961273193,42.3555908203125,-8.207122802734375,-36.453369140625,2,8326.631531125,4,2,1580904610.872697,1580903939.50652,226,0.6966805,0,0,212.7492,1,0,1580904562.426208,8325.66793,0,5.340118,97.14109
1580904613.119547,39,0,1580904337.000819,41.20701635159924,29.07533761282497,172.748,-1,-1,5.74967098236084,48.00724964208526,-9999,8328.88825625,0.9670257568359375,0.0605010986328125,-0.1444549560546875,8328.88322125,-3.136141181876288,1.416792201184982,-0.05050631602098347,-0.003656254149973392,0.01274974644184113,1.769512891769409e-07,-0.01919364929199219,0.009127691388130188,0.006400644779205322,2,0.6503544691919109,0.02094814107693417,-0.7592061952758347,-0.01435903804398375,0.9869046807289124,0.05048484727740288,-0.1532004773616791,42.33065032958984,-8.292045593261719,-36.2554931640625,2,8328.880993250001,2,0,1580904613.122159,1580903939.50652,226,0.6966805,0,0,212.7492,1,0,1580904562.426208,8325.66793,0,5.340118,97.14109
1580904613.126045,40,0,1580904337.000819,41.20701635159924,29.07533761282497,172.748,-1,-1,5.74967098236084,48.00724964208526,-9999,8328.89829725,0.969512939453125,0.0615692138671875,-0.143768310546875,8328.893261250001,-3.136118226803726,1.416883199011457,-0.05053072289184435,-0.003104713279753923,0.008598413318395615,-0.0008821282535791397,-0.02025926113128662,0.009973064064979553,0.008340060710906982,2,0.6503885452015777,0.02096421606229894,-0.7591765566092806,-0.01435921592324405,0.9869174361228943,0.05050922185182571,-0.1531104892492294,42.33065032958984,-8.292045593261719,-36.2554931640625,2,8328.880993250001,2,0,1580904613.122159,1580903939.50652,226,0.6966805,0,0,212.7492,1,0,1580904562.426208,8325.66793,0,5.340118,97.14109
1580904613.136033,41,0,1580904337.000819,41.20701635159924,29.07533761282497,172.748,-1,-1,5.74967098236084,48.00724964208526,-9999,8328.908337250001,0.9686431884765625,0.0607147216796875,-0.1448974609375,8328.90330125,-3.136102185167218,1.41696662868872,-0.05054216821398118,-0.0009026499465107918,0.008161237463355064,-0.0004038889892399311,-0.0177842378616333,0.01102974265813828,0.008944272994995117,2,0.6504199410428939,0.02097317778609903,-0.7591494174842633,-0.01435772488407645,0.9869295954704285,0.0505206510424614,-0.1530280560255051,42.28474426269531,-8.247219085693359,-36.11669921875,2,8328.880993250001,2,0,1580904613.122159,1580903939.50652,226,0.6966805,0,0,212.7492,1,0,1580904562.426208,8325.66793,0,5.340118,97.14109
1580904613.146087,42,0,1580904337.000819,41.20701635159924,29.07533761282497,172.748,-1,-1,5.74967098236084,48.00724964208526,-9999,8328.91837725,0.9688568115234375,0.0620574951171875,-0.144500732421875,8328.91334225,-3.136079801388379,1.417051908628502,-0.05055085606484802,-0.002222594805061817,0.007700690999627113,7.749861106276512e-05,-0.01866656541824341,0.01016657054424286,0.007730841636657715,2,0.6504519958353018,0.0209831425155598,-0.7591217601444283,-0.01435294937840692,0.9869421720504761,0.05052933096885681,-0.1529438197612762,42.28474426269531,-8.247219085693359,-36.11669921875,2,8328.880993250001,2,0,1580904613.122159,1580903939.50652,226,0.6966805,0,0,212.7492,1,0,1580904562.426208,8325.66793,0,5.340118,97.14109
1580904613.173786,43,0,1580904337.000819,41.20701635159924,29.07533761282497,172.748,-1,-1,5.74967098236084,48.00724964208526,-9999,8328.928417250001,0.9675445556640625,0.0613555908203125,-0.144317626953125,8328.923382250001,-3.136060910030282,1.417126231987802,-0.05055282288459937,-0.00190887413918972,0.006887363269925117,0.0006375615485012531,-0.01846426725387573,0.01150738447904587,0.008054256439208984,2,0.6504799848424258,0.02098949977881033,-0.7590977669529595,-0.01434719685246597,0.9869535565376282,0.0505312941968441,-0.1528704613447189,42.62296295166016,-8.192359924316406,-36.078369140625,2,8328.880993250001,2,0,1580904613.122159,1580903939.50652,226,0.6966805,0,0,212.7492,1,0,1580904562.426208,8325.66793,0,5.340118,97.14109
1580904613.175607,44,0,1580904337.000819,41.20701635159924,29.07533761282497,172.748,-1,-1,5.74967098236084,48.00724964208526,-9999,8328.93848825,0.9642181396484375,0.061187744140625,-0.14691162109375,8328.93342225,-3.136041050711517,1.417225010520436,-0.05053541134103918,-0.001060637645423412,0.009407317265868187,0.00217096135020256,-0.01979243755340576,0.01082286238670349,0.008139908313751221,2,0.6505174341585467,0.02098864308949914,-0.7590658519166718,-0.01433503456158521,0.9869694113731384,0.05051390454173088,-0.1527730822563171,42.62296295166016,-8.192359924316406,-36.078369140625,2,8328.880993250001,2,0,1580904613.122159,1580903939.50652,226,0.6966805,0,0,212.7492,1,0,1580904562.426208,8325.66793,0,5.340118,97.14109
1580904613.177093,45,0,1580904337.000819,41.20701635159924,29.07533761282497,172.748,-1,-1,5.74967098236084,48.00724964208526,-9999,8328.948528250001,0.9636077880859375,0.0617523193359375,-0.14862060546875,8328.94346325,-3.136017619990786,1.417420581099011,-0.05049349626813691,-0.00161990150809288,0.01941441185772419,0.004924138076603413,-0.0231509804725647,0.0106968879699707,0.005353093147277832,2,0.6505917980432648,0.02097895824787133,-0.7590027884027573,-0.01431455724713371,0.987001359462738,0.05047204345464706,-0.1525803953409195,42.52809143066406,-8.179840087890625,-36.12115478515625,2,8328.880993250001,2,0,1580904613.122159,1580903939.50652,226,0.6966805,0,0,212.7492,1,0,1580904562.426208,8325.66793,0,5.340118,97.14109
1580904613.18646,46,0,1580904337.000819,41.20701635159924,29.07533761282497,172.748,-1,-1,5.74967098236084,48.00724964208526,-9999,8328.95856925,0.9631805419921875,0.0612335205078125,-0.147430419921875,8328.953503250001,-3.135981074524574,1.417724997017226,-0.05043749664784119,-0.004073061048984528,0.0300468448549509,0.007344395387917757,-0.02381038665771484,0.0113174244761467,0.00334399938583374,2,0.6507074542613333,0.02096742281002651,-0.758904481022696,-0.01428566093011402,0.9870505332946777,0.05041611567139626,-0.1522803455591202,42.52809143066406,-8.179840087890625,-36.12115478515625,2,8328.880993250001,2,0,1580904613.122159,1580903939.50652,226,0.6966805,0,0,212.7492,1,0,1580904562.426208,8325.66793,0,5.340118,97.14109
1580904613.196384,47,0,1580904337.000819,41.20701635159924,29.07533761282497,172.748,-1,-1,5.74967098236084,48.00724964208526,-9999,8328.96860925,0.9604034423828125,0.06005859375,-0.1486053466796875,8328.96354325,-3.135943699095761,1.418160995818569,-0.05035922686945452,-0.002280487213283777,0.04309047758579254,0.009767871350049973,-0.02430766820907593,0.0108768418431282,0.004104495048522949,2,0.6508732077522602,0.02094678090701313,-0.7587636346529874,-0.01425057331911773,0.9871208071708679,0.05033794417977333,-0.1518505960702896,42.58106994628906,-8.428909301757812,-36.09771728515625,2,8328.880993250001,2,0,1580904613.122159,1580903939.50652,226,0.6966805,0,0,212.7492,1,0,1580904562.426208,8325.66793,0,5.340118,97.14109
1580904613.206599,48,0,1580904337.000819,41.20701635159924,29.07533761282497,172.748,-1,-1,5.74967098236084,48.00724964208526,-9999,8328.978649250001,0.9589691162109375,0.0606536865234375,-0.1483612060546875,8328.973583250001,-3.135884301788306,1.418729124918944,-0.05024637104274074,-0.00391489127650857,0.05626320466399193,0.01278634462505579,-0.02717655897140503,0.00981467217206955,0.002369344234466553,2,0.6510891477110514,0.02091926861861205,-0.7585800502050684,-0.01419725031627278,0.9872124791145325,0.05022523179650307,-0.1512906104326248,42.58106994628906,-8.428909301757812,-36.09771728515625,2,8328.880993250001,2,0,1580904613.122159,1580903939.50652,226,0.6966805,0,0,212.7492,1,0,1580904562.426208,8325.66793,0,5.340118,97.14109
1580904613.244219,49,0,1580904337.000819,41.20701635159924,29.07533761282497,172.748,-1,-1,5.74967098236084,48.00724964208526,-9999,8328.98869025,0.9572601318359375,0.0610198974609375,-0.1500091552734375,8328.983624250001,-3.135831735109695,1.419463212812087,-0.05007047640870231,-0.0006549162790179253,0.07325524091720581,0.01836726441979408,-0.02873069047927856,0.01058550179004669,0.001889586448669434,2,0.6513686138314236,0.02086449042838994,-0.7583429235025824,-0.01412769954639791,0.9873320460319519,0.0500495582818985,-0.1505672037601471,42.34627532958984,-8.568836212158203,-36.30291748046875,2,8328.880993250001,2,0,1580904613.122159,1580903939.50652,226,0.6966805,0,0,212.7492,1,0,1580904562.426208,8325.66793,0,5.340118,97.14109
1580904613.24589,50,0,1580904337.000819,41.20701635159924,29.07533761282497,172.748,-1,-1,5.74967098236084,48.00724964208526,-9999,8328.998730250001,0.9603729248046875,0.0604095458984375,-0.1470947265625,8328.99366425,-3.135751257798039,1.420358065275402,-0.04985242877532869,-0.004523217678070068,0.08953678607940674,0.02270143106579781,-0.03058499097824097,0.01116954535245895,-0.0006408095359802246,2,0.6517090253357553,0.02080175563524236,-0.7580538736635557,-0.01403546547626823,0.98747718334198,0.04983178153634071,-0.149685263633728,42.34627532958984,-8.568836212158203,-36.30291748046875,2,8328.880993250001,2,0,1580904613.122159,1580903939.50652,226,0.6966805,0,0,212.7492,1,0,1580904562.426208,8325.66793,0,5.340118,97.14109
1580904613.247284,51,0,1580904337.000819,41.20701635159924,29.07533761282497,172.748,-1,-1,5.74967098236084,48.00724964208526,-9999,8329.00877025,0.969390869140625,0.0608367919921875,-0.13934326171875,8329.00373525,-3.135668706226717,1.421286073574961,-0.04961361107720694,-0.004851318895816803,0.09217172116041183,0.02433448098599911,-0.02762264013290405,0.01079781353473663,0.001358628273010254,2,0.6520620341380768,0.02073168430274528,-0.757754095810024,-0.01393596097747409,0.9876275062561035,0.04959325864911079,-0.1487706005573273,42.4925537109375,-8.360401153564453,-36.030517578125,2,8328.880993250001,2,0,1580904613.122159,1580903939.50652,226,0.6966805,0,0,212.7492,1,0,1580904562.426208,8325.66793,0,5.340118,97.14109
1580904613.24836,52,0,1580904337.000819,41.20701635159924,29.07533761282497,172.748,-1,-1,5.74967098236084,48.00724964208526,-9999,8329.01881025,0.9833221435546875,0.060516357421875,-0.1314544677734375,8329.013775250001,-3.135573105055783,1.422051118611032,-0.04934412070216176,-0.00554466200992465,0.07593392580747604,0.02841149270534515,-0.01873165369033813,0.01149430125951767,0.008355796337127686,2,0.6523533440824787,0.02065547744102622,-0.7575074126825566,-0.01381976850704279,0.9877541065216064,0.04932409897446632,-0.1480169296264648,42.4925537109375,-8.360401153564453,-36.030517578125,2,8328.880993250001,2,0,1580904613.122159,1580903939.50652,226,0.6966805,0,0,212.7492,1,0,1580904562.426208,8326.607244999999,0,5.308411,97.14145
1580904613.256629,53,0,1580904337.000819,41.20701635159924,29.07533761282497,172.748,-1,-1,5.74967098236084,48.00724964208526,-9999,8329.028851250001,0.9899139404296875,0.0625152587890625,-0.126739501953125,8329.023815250001,-3.135468728169745,1.422496616688998,-0.04905353636072649,-0.005627485923469067,0.04533367604017258,0.03144297003746033,-0.00488048791885376,0.0114642009139061,0.01580643653869629,2,0.6525236558518577,0.02057642786753013,-0.7573651789197469,-0.01369002189656922,0.9878340363502502,0.04903386533260345,-0.1475789844989777,42.48548889160156,-8.299850463867188,-36.13275146484375,2,8328.880993250001,2,0,1580904613.122159,1580903939.50652,226,0.6966805,0,0,212.7492,1,0,1580904562.426208,8326.607244999999,0,5.308411,97.14145
1580904613.267119,54,0,1580904337.000819,41.20701635159924,29.07533761282497,172.748,-1,-1,5.74967098236084,48.00724964208526,-9999,8329.03889125,0.9886322021484375,0.0604095458984375,-0.1250152587890625,8329.03385625,-3.135381734891351,1.422536970784302,-0.04879470414469657,-0.005702671129256487,0.0008857026696205139,0.02783533558249474,0.001692891120910645,0.01372171938419342,0.02048337459564209,2,0.6525404138330754,0.02050653391527657,-0.7573547202440858,-0.01357303150947825,0.9878524541854858,0.04877534508705139,-0.1475409865379333,42.48548889160156,-8.299850463867188,-36.13275146484375,2,8328.880993250001,2,0,1580904613.122159,1580903939.50652,226,0.6966805,0,0,212.7492,1,0,1580904562.426208,8326.607244999999,0,5.308411,97.14145
1580904613.302592,55,0,1580904337.000819,41.20701635159924,29.07533761282497,172.748,-1,-1,5.74967098236084,48.00724964208526,-9999,8329.048931250001,0.9823150634765625,0.0583648681640625,-0.13494873046875,8329.043896250001,-3.135354636254011,1.422362453044968,-0.04859903069446032,0.0004510944709181786,-0.01806721463799477,0.02019898593425751,0.0004276037216186523,0.0118115246295929,0.02238166332244873,2,0.6524758306365155,0.02044246573325326,-0.7574134861927089,-0.01349713117363514,0.9878361821174622,0.04857990145683289,-0.1477147936820984,42.50741577148438,-8.266071319580078,-36.13189697265625,2,8328.880993250001,2,0,1580904613.122159,1580903939.50652,226,0.6966805,0,0,212.7492,1,0,1580904562.426208,8326.607244999999,0,5.308411,97.14145
1580904613.304239,56,0,1580904337.000819,41.20701635159924,29.07533761282497,172.748,-1,-1,5.74967098236084,48.00724964208526,-9999,8329.058972250001,0.97784423828125,0.058502197265625,-0.137786865234375,8329.05393625,-3.135336033465649,1.422104283356074,-0.04844082648646849,-0.000452924519777298,-0.02552676945924759,0.01553129032254219,-0.005859017372131348,0.009924933314323425,0.01270455121994019,2,0.6523792960939544,0.02039036406014152,-0.757499238916826,-0.01343582927150951,0.9878057241439819,0.04842188581824303,-0.147970974445343,42.50741577148438,-8.266071319580078,-36.13189697265625,2,8328.880993250001,2,0,1580904613.122159,1580903939.50652,226,0.6966805,0,0,212.7492,1,0,1580904562.426208,8326.607244999999,0,5.308411,97.14145
1580904613.305268,57,0,1580904337.000819,41.20701635159924,29.07533761282497,172.748,-1,-1,5.74967098236084,48.00724964208526,-9999,8329.06901225,0.9683990478515625,0.058380126953125,-0.1400909423828125,8329.063976250001,-3.135323550335366,1.421811902879129,-0.04827508006252611,0.002415033988654613,-0.02993669733405113,0.01813479512929916,-0.01029437780380249,0.01022787392139435,0.01015645265579224,2,0.6522699347962171,0.02033362296347913,-0.7575959222365248,-0.01337405797965768,0.9877701997756958,0.04825633019208908,-0.1482609510421753,42.57269287109375,-8.397449493408203,-36.2158203125,2,8328.880993250001,2,0,1580904613.122159,1580903939.50652,226,0.6966805,0,0,212.7492,1,0,1580904562.426208,8326.607244999999,0,5.308411,97.14145
1580904613.306803,58,0,1580904337.000819,41.20701635159924,29.07533761282497,172.748,-1,-1,5.74967098236084,48.00724964208526,-9999,8329.079052250001,0.9587249755859375,0.054107666015625,-0.1467132568359375,8329.074017250001,-3.135289633281175,1.42163223150536,-0.04817006119335637,-0.002716280985623598,-0.01875407993793488,0.0114040793851018,-0.01971781253814697,0.01021073013544083,0.008030593395233154,2,0.6522024820550223,0.02030610585962575,-0.7576555561620889,-0.0133251308989065,0.9877485036849976,0.04815143346786499,-0.1484391689300537,42.57269287109375,-8.397449493408203,-36.2158203125,2,8328.880993250001,2,0,1580904613.122159,1580903939.50652,226,0.6966805,0,0,212.7492,1,0,1580904562.426208,8326.607244999999,0,5.308411,97.14145
1580904613.316865,59,0,1580904337.000819,41.20701635159924,29.07533761282497,172.748,-1,-1,5.74967098236084,48.00724964208526,-9999,8329.08912325,0.953887939453125,0.0559234619140625,-0.1513671875,8329.08405725,-3.135250903048373,1.421735781736418,-0.0480988058561904,-0.003260897472500801,0.01071672886610031,0.00827513076364994,-0.02941060066223145,0.006009481847286224,0.001306712627410889,2,0.6522419517879419,0.02029105798359829,-0.7576227480565098,-0.01328826494067187,0.9877673983573914,0.04808026179671288,-0.1483374238014221,42.36309051513672,-8.284168243408203,-36.284423828125,2,8328.880993250001,2,0,1580904613.122159,1580903939.50652,226,0.6966805,0,0,212.7492,1,0,1580904562.426208,8326.607244999999,0,5.308411,97.14145
1580904613.326899,60,0,1580904337.000819,41.20701635159924,29.07533761282497,172.748,-1,-1,5.74967098236084,48.00724964208526,-9999,8329.099163250001,0.9542236328125,0.0565185546875,-0.14892578125,8329.094097250001,-3.135203253012649,1.422144018292658,-0.04803630518542615,-0.004252878949046135,0.04040472581982613,0.007159712258726358,-0.03431123495101929,0.007887713611125946,-0.003750443458557129,2,0.65239667018765,0.02028021978942605,-0.757490343497372,-0.01325397027818924,0.9878307580947876,0.04801783338189125,-0.1479346007108688,42.36309051513672,-8.284168243408203,-36.284423828125,2,8328.880993250001,2,0,1580904613.122159,1580903939.50652,226,0.6966805,0,0,212.7492,1,0,1580904562.426208,8326.607244999999,0,5.308411,97.14145
1580904613.360093,61,0,1580904337.000819,41.20701635159924,29.07533761282497,172.748,-1,-1,5.74967098236084,48.00724964208526,-9999,8329.10920425,0.958404541015625,0.0595855712890625,-0.144561767578125,8329.104138250001,-3.135162778738406,1.422762340476919,-0.04797019032071125,-0.002760443370789289,0.06134383007884026,0.007243335712701082,-0.03407019376754761,0.008548863232135773,-0.001919865608215332,2,0.6526310187177939,0.02026429781406549,-0.7572893358269613,-0.01322333830032157,0.987925112247467,0.04795179516077042,-0.1473242193460464,42.67546081542969,-8.575401306152344,-36.080078125,2,8328.880993250001,2,0,1580904613.122159,1580903939.50652,226,0.6966805,0,0,212.7492,1,0,1580904562.426208,8326.607244999999,0,5.308411,97.14145
1580904613.361857,62,0,1580904337.000819,41.20701635159924,29.07533761282497,172.748,-1,-1,5.74967098236084,48.00724964208526,-9999,8329.11924425,0.9622955322265625,0.0590667724609375,-0.1406097412109375,8329.11417825,-3.135128384807059,1.423464334943404,-0.04790688541871025,-0.003214949741959572,0.06669801473617554,0.007470300421118736,-0.02999550104141235,0.01167913526296616,0.001750946044921875,2,0.6528970047556852,0.02024692348388068,-0.7570610205085321,-0.01319675947832616,0.9880313873291016,0.04788856208324432,-0.146631121635437,42.67546081542969,-8.575401306152344,-36.080078125,2,8328.880993250001,2,0,1580904613.122159,1580903939.50652,226,0.6966805,0,0,212.7492,1,0,1580904562.426208,8326.607244999999,0,5.308411,97.14145
1580904613.362873,63,0,1580904337.000819,41.20701635159924,29.07533761282497,172.748,-1,-1,5.74967098236084,48.00724964208526,-9999,8329.129284250001,0.96917724609375,0.0603179931640625,-0.1401519775390625,8329.124218250001,-3.135141474088676,1.424267190992242,-0.04784722866565111,0.003675180487334728,0.07929316908121109,0.006884138099849224,-0.02622485160827637,0.01121994853019714,0.004909813404083252,2,0.6532015263320207,0.02021477830292537,-0.7567993056390268,-0.01319035024192551,0.9881516695022583,0.04782897233963013,-0.1458382606506348,42.54924011230469,-8.552524566650391,-36.05145263671875,2,8328.880993250001,2,0,1580904613.122159,1580903939.50652,226,0.6966805,0,0,212.7492,1,0,1580904562.426208,8326.607244999999,0,5.308411,97.14145
1580904613.366977,64,0,1580904337.000819,41.20701635159924,29.07533761282497,172.748,-1,-1,5.74967098236084,48.00724964208526,-9999,8329.13932425,0.9774322509765625,0.0582275390625,-0.1341094970703125,8329.13425825,-3.13516067605635,1.425069794638145,-0.04780113640713698,0.002920135855674744,0.07951963692903519,0.005433599930256605,-0.01946210861206055,0.01251722872257233,0.004574477672576904,2,0.6535057870007644,0.02018577616066069,-0.7565373845974566,-0.01319066056295226,0.9882705807685852,0.04778293520212173,-0.1450454443693161,42.54924011230469,-8.552524566650391,-36.05145263671875,2,8328.880993250001,2,0,1580904613.122159,1580903939.50652,226,0.6966805,0,0,212.7492,1,0,1580904562.426208,8326.607244999999,0,5.308411,97.14145
1580904613.377599,65,0,1580904337.000819,41.20701635159924,29.07533761282497,172.748,-1,-1,5.74967098236084,48.00724964208526,-9999,8329.149365250001,0.979248046875,0.0553131103515625,-0.1327972412109375,8329.14429925,-3.135186384991785,1.42580244163785,-0.04781784067349135,0.002380845136940479,0.0714566558599472,-0.001558529213070869,-0.01131248474121094,0.01041007786989212,0.00989222526550293,2,0.6537829945140509,0.02017885451381063,-0.7562975561638189,-0.01321323990066672,0.988375723361969,0.04779962077736855,-0.1443212181329727,42.80820465087891,-8.791259765625,-35.8338623046875,2,8328.880993250001,2,0,1580904613.122159,1580903939.50652,226,0.6966805,0,0,212.7492,1,0,1580904562.426208,8326.607244999999,0,5.308411,97.14145
1580904613.38714,66,0,1580904337.000819,41.20701635159924,29.07533761282497,172.748,-1,-1,5.74967098236084,48.00724964208526,-9999,8329.15940525,0.9727935791015625,0.0558929443359375,-0.136199951171875,8329.15437025,-3.135215556729147,1.426516000417731,-0.04790687435042267,0.002303036861121655,0.06989932060241699,-0.01001159846782684,-0.009595334529876709,0.00740668922662735,0.0104982852935791,2,0.6540522684330843,0.02019825228708794,-0.7560634316255344,-0.01326058519254898,0.9884743094444275,0.04788855090737343,-0.1436153203248978,42.80820465087891,-8.791259765625,-35.8338623046875,2,8328.880993250001,2,0,1580904613.122159,1580903939.50652,226,0.6966805,0,0,212.7492,1,0,1580904562.426208,8326.607244999999,0,5.308411,97.14145
1580904613.413745,67,0,1580904337.000819,41.20701635159924,29.07533761282497,172.748,-1,-1,5.74967098236084,48.00724964208526,-9999,8329.16944525,0.9689178466796875,0.057647705078125,-0.1370849609375,8329.164410250001,-3.135239745956862,1.427302348447815,-0.04802167791260072,0.00146147795021534,0.07924488186836243,-0.01206702645868063,-0.01615709066390991,0.007871799170970917,0.006317138671875,2,0.6543486863503889,0.02022850177925302,-0.7558051552702408,-0.01331523357775771,0.9885815382003784,0.04800322279334068,-0.1428372114896774,42.82634735107422,-8.589569091796875,-36.07147216796875,2,8328.880993250001,2,0,1580904613.122159,1580903939.50652,226,0.6966805,0,0,212.7492,1,0,1580904562.426208,8326.607244999999,0,5.308411,97.14145
1580904613.415271,68,0,1580904337.000819,41.20701635159924,29.07533761282497,172.748,-1,-1,5.74967098236084,48.00724964208526,-9999,8329.179486250001,0.9687347412109375,0.0577545166015625,-0.135833740234375,8329.174450250001,-3.135267394969973,1.428175943152944,-0.04814574846320963,0.001088107004761696,0.08836182206869125,-0.01231502089649439,-0.02015149593353271,0.009502589702606201,0.004567146301269531,2,0.6546779153292877,0.02026049575445755,-0.7555180355020886,-0.01337513447059031,0.9886999726295471,0.04812715202569962,-0.1419726759195328,42.82634735107422,-8.589569091796875,-36.07147216796875,2,8328.880993250001,2,0,1580904613.122159,1580903939.50652,226,0.6966805,0,0,212.7492,1,0,1580904562.426208,8326.607244999999,0,5.308411,97.14145
1580904613.417272,69,0,1580904337.000819,41.20701635159924,29.07533761282497,172.748,-1,-1,5.74967098236084,48.00724964208526,-9999,8329.18952625,0.9687652587890625,0.0580596923828125,-0.13226318359375,8329.18449025,-3.135305449057526,1.429105120680038,-0.04826907372675254,0.002990135923027992,0.0947752445936203,-0.01230250485241413,-0.02046054601669312,0.009486131370067596,0.004898130893707275,2,0.655028116605846,0.02028837863929431,-0.7552125214730844,-0.0134393139565164,0.9888255596160889,0.04825033247470856,-0.141053095459938,42.94745635986328,-8.418899536132812,-35.83917236328125,2,8328.880993250001,2,0,1580904613.122159,1580903939.50652,226,0.6966805,0,0,212.7492,1,0,1580904562.426208,8326.607244999999,0,5.308411,97.14145
1580904613.427264,70,0,1580904337.000819,41.20701635159924,29.07533761282497,172.748,-1,-1,5.74967098236084,48.00724964208526,-9999,8329.199566250001,0.9736328125,0.0599365234375,-0.1305694580078125,8329.194531250001,-3.135322176333177,1.430022207001944,-0.04837070493036507,0.000513770617544651,0.09238133579492569,-0.009926579892635345,-0.02055424451828003,0.009689755737781525,0.007560610771179199,2,0.6553735967159149,0.02031508882956171,-0.7549110426918323,-0.01348824173369731,0.9889494776725769,0.04835184663534164,-0.1401454955339432,42.94745635986328,-8.418899536132812,-35.83917236328125,2,8328.880993250001,2,0,1580904613.122159,1580903939.50652,226,0.6966805,0,0,212.7492,1,0,1580904562.426208,8326.607244999999,0,5.308411,97.14145
1580904613.437316,71,0,1580904337.000819,41.20701635159924,29.07533761282497,172.748,-1,-1,5.74967098236084,48.00724964208526,-9999,8329.20960625,0.97625732421875,0.061676025390625,-0.1277923583984375,8329.20457125,-3.135354963480737,1.430864905370183,-0.04841491705947499,0.0036355284973979,0.08388344943523407,-0.00435524620115757,-0.01580250263214111,0.01152241230010986,0.008420348167419434,2,0.6556915438038728,0.02031533452864951,-0.7546343450682984,-0.01352366595378006,0.9890652298927307,0.04839600622653961,-0.1393117755651474,42.84998321533203,-8.420417785644531,-35.75103759765625,2,8328.880993250001,2,0,1580904613.122159,1580903939.50652,226,0.6966805,0,0,212.7492,1,0,1580904562.426208,8326.607244999999,0,5.308411,97.14145
1580904613.447328,72,0,1580904337.000819,41.20701635159924,29.07533761282497,172.748,-1,-1,5.74967098236084,48.00724964208526,-9999,8329.21964725,0.9788818359375,0.06298828125,-0.122833251953125,8329.214611250001,-3.135404596187051,1.431557200624927,-0.04841983324985051,0.004860183224081993,0.06869043409824371,-0.0004220427945256233,-0.01327401399612427,0.01325699687004089,0.01051235198974609,2,0.6559531767070295,0.02029622795262766,-0.754406984818688,-0.01355103073095336,0.9891612529754639,0.04840091615915298,-0.1386269927024841,42.84998321533203,-8.420417785644531,-35.75103759765625,2,8328.880993250001,2,0,1580904613.122159,1580903939.50652,226,0.6966805,0,0,212.7492,1,0,1580904562.426208,8326.607244999999,0,5.308411,97.14145
1580904613.480173,73,0,1580904337.000819,41.20701635159924,29.07533761282497,172.748,-1,-1,5.74967098236084,48.00724964208526,-9999,8329.229687250001,0.98114013671875,0.061981201171875,-0.1220550537109375,8329.224652250001,-3.135466200073062,1.432063784434348,-0.04841005724447169,0.006402687169611454,0.04949250817298889,0.0003758403472602367,-0.01072001457214355,0.01457902044057846,0.01497018337249756,2,0.6561449580887687,0.02026889810653647,-0.7542404197332003,-0.01357619713187998,0.9892317652702332,0.04839115217328072,-0.1381259262561798,42.91239166259766,-8.5250244140625,-35.666748046875,2,8328.880993250001,2,0,1580904613.122159,1580903939.50652,226,0.6966805,0,0,212.7492,1,0,1580904562.426208,8326.607244999999,0,5.308411,97.14145
1580904613.482129,74,0,1580904337.000819,41.20701635159924,29.07533761282497,172.748,-1,-1,5.74967098236084,48.00724964208526,-9999,8329.23975825,0.9813690185546875,0.060150146484375,-0.1221923828125,8329.23469225,-3.135529815867022,1.432399575231164,-0.04839223499536006,0.006639871746301651,0.03407317399978638,0.001375257037580013,-0.008508861064910889,0.0135897621512413,0.01541638374328613,2,0.6562723837035619,0.02023902458810247,-0.7541300335281611,-0.01359773587190395,0.98927903175354,0.04837334901094437,-0.1377938836812973,42.91239166259766,-8.5250244140625,-35.666748046875,2,8328.880993250001,2,0,1580904613.122159,1580903939.50652,226,0.6966805,0,0,212.7492,1,0,1580904562.426208,8326.607244999999,0,5.308411,97.14145
1580904613.483107,75,0,1580904337.000819,41.20701635159924,29.07533761282497,172.748,-1,-1,5.74967098236084,48.00724964208526,-9999,8329.249798250001,0.98260498046875,0.059600830078125,-0.1216888427734375,8329.244732250001,-3.135597429325405,1.432543981945075,-0.04838651272593441,0.005888327956199646,0.01417084224522114,-0.001095890067517757,-0.008300244808197021,0.01176441460847855,0.01513606309890747,2,0.6563275693577856,0.02021369718674865,-0.7540822185572251,-0.01362281250519824,0.9892991781234741,0.04836763441562653,-0.1376510560512543,43.02151489257812,-8.433914184570312,-35.58746337890625,2,8328.880993250001,2,0,1580904613.122159,1580903939.50652,226,0.6966805,0,0,212.7492,1,0,1580904562.426208,8326.607244999999,0,5.308411,97.14145
1580904613.487647,76,0,1580904337.000819,41.20701635159924,29.07533761282497,172.748,-1,-1,5.74967098236084,48.00724964208526,-9999,8329.25983825,0.9772796630859375,0.0572967529296875,-0.1255950927734375,8329.25477225,-3.135677072028145,1.432588183087103,-0.04839863696225263,0.007732221856713295,0.004097137600183487,-0.002291207201778889,-0.007069766521453857,0.01120299845933914,0.01559573411941528,2,0.6563449300339037,0.02019183024503947,-0.7540670618398487,-0.01365726700129596,0.9893046617507935,0.04837974533438683,-0.1376072466373444,43.02151489257812,-8.433914184570312,-35.58746337890625,2,8328.880993250001,2,0,1580904613.122159,1580903939.50652,226,0.6966805,0,0,212.7492,1,0,1580904562.426208,8326.607244999999,0,5.308411,97.14145
1580904613.497645,77,0,1580904337.000819,41.20701635159924,29.07533761282497,172.748,-1,-1,5.74967098236084,48.00724964208526,-9999,8329.269879250001,0.9737396240234375,0.056640625,-0.128509521484375,8329.26481325,-3.135749679989556,1.432625033577938,-0.04843954467822804,0.006667489185929298,0.002964228391647339,-0.004381788428872824,-0.01239818334579468,0.008858047425746918,0.01165276765823364,2,0.6563591886241036,0.02018317154270827,-0.7540541007771452,-0.01369844261252441,0.989307701587677,0.04842060431838036,-0.1375705152750015,43.18111419677734,-8.494163513183594,-35.68853759765625,2,8328.880993250001,2,0,1580904613.122159,1580903939.50652,226,0.6966805,0,0,212.7492,1,0,1580904562.426208,8326.607244999999,0,5.308411,97.14145
1580904613.507628,78,0,1580904337.000819,41.20701635159924,29.07533761282497,172.748,-1,-1,5.74967098236084,48.00724964208526,-9999,8329.279919250001,0.97296142578125,0.057464599609375,-0.1286773681640625,8329.274853250001,-3.135810967377124,1.432698288454812,-0.04850086287785781,0.005559530109167099,0.007068885490298271,-0.006411491893231869,-0.0159454345703125,0.008140645921230316,0.00866544246673584,2,0.6563868647575414,0.0201856707743361,-0.7540292301097787,-0.01374241279091874,0.9893149733543396,0.04848185181617737,-0.1374976485967636,43.18111419677734,-8.494163513183594,-35.68853759765625,2,8328.880993250001,2,0,1580904613.122159,1580903939.50652,226,0.6966805,0,0,212.7492,1,0,1580904562.426208,8326.607244999999,0,5.308411,97.14145
1580904613.534718,79,0,1580904337.000819,41.20701635159924,29.07533761282497,172.748,-1,-1,5.74967098236084,48.00724964208526,-9999,8329.28995925,0.9712371826171875,0.05755615234375,-0.1289215087890625,8329.28489325,-3.135851619384947,1.432818378371252,-0.04858372231340624,0.003179196268320084,0.01276964880526066,-0.008483697660267353,-0.01673626899719238,0.008881807327270508,0.008377909660339355,2,0.6564318081546537,0.02020273659773907,-0.7539887211196732,-0.01378615465032507,0.9893273115158081,0.048564612865448,-0.1373782604932785,42.84372711181641,-8.398410797119141,-35.72552490234375,2,8328.880993250001,2,0,1580904613.122159,1580903939.50652,226,0.6966805,0,0,212.7492,1,0,1580904562.426208,8326.607244999999,0,5.308411,97.14145
1580904613.536208,80,0,1580904337.000819,41.20701635159924,29.07533761282497,172.748,-1,-1,5.74967098236084,48.00724964208526,-9999,8329.299999250001,0.97314453125,0.057373046875,-0.1273956298828125,8329.294964250001,-3.135854138732385,1.432948364240404,-0.04865736703235056,-0.001616064459085464,0.0114115197211504,-0.006128434557467699,-0.01847487688064575,0.008899763226509094,0.008004665374755859,2,0.6564801673212124,0.02022877230569596,-0.7539454542951434,-0.01381259377720838,0.989341676235199,0.04863816872239113,-0.1372491717338562,42.84372711181641,-8.398410797119141,-35.72552490234375,2,8328.880993250001,2,0,1580904613.122159,1580903939.50652,226,0.6966805,0,0,212.7492,1,0,1580904562.426208,8326.607244999999,0,5.308411,97.14145
1580904613.537792,81,0,1580904337.000819,41.20701635159924,29.07533761282497,172.748,-1,-1,5.74967098236084,48.00724964208526,-9999,8329.31004025,0.975189208984375,0.0587158203125,-0.1272735595703125,8329.30500425,-3.135829123816229,1.433066358768642,-0.04872056767554942,-0.003829684108495712,0.01031935773789883,-0.005388874560594559,-0.01658076047897339,0.008653528988361359,0.009413361549377441,2,0.6565238156013963,0.02025998964813576,-0.7539064432731155,-0.0138251053818184,0.9893548488616943,0.04870129376649857,-0.1371320188045502,43.00127410888672,-8.352169036865234,-35.7659912109375,2,8328.880993250001,2,0,1580904613.122159,1580903939.50652,226,0.6966805,0,0,212.7492,1,0,1580904562.426208,8326.607244999999,0,5.308411,97.14145
1580904613.547765,82,0,1580904337.000819,41.20701635159924,29.07533761282497,172.748,-1,-1,5.74967098236084,48.00724964208526,-9999,8329.320080250001,0.976165771484375,0.060272216796875,-0.1258392333984375,8329.315045250001,-3.135787284069322,1.433145081122947,-0.04876017667353965,-0.004397393204271793,0.007568918168544769,-0.003547996282577515,-0.01454508304595947,0.009956695139408112,0.009456932544708252,2,0.6565527091129372,0.02028810881990944,-0.7538805073005411,-0.01382313827523333,0.9893636703491211,0.04874085634946823,-0.1370538622140884,43.00127410888672,-8.352169036865234,-35.7659912109375,2,8328.880993250001,2,0,1580904613.122159,1580903939.50652,226,0.6966805,0,0,212.7492,1,0,1580904562.426208,8326.607244999999,0,5.308411,97.14145
1580904613.557911,83,0,1580904337.000819,41.20701635159924,29.07533761282497,172.748,-1,-1,5.74967098236084,48.00724964208526,-9999,8329.330120250001,0.977874755859375,0.060150146484375,-0.1227874755859375,8329.32508525,-3.135731280613098,1.433107947929378,-0.04877163229861595,-0.005459461826831102,-0.005494421347975731,0.0002419482916593552,-0.01356291770935059,0.01150164008140564,0.01092791557312012,2,0.6565380380473266,0.02031106730981502,-0.7538930085499512,-0.01380541185620147,0.9893580675125122,0.04875230044126511,-0.1370905339717865,43.08084106445312,-8.469451904296875,-35.6068115234375,2,8328.880993250001,2,0,1580904613.122159,1580903939.50652,226,0.6966805,0,0,212.7492,1,0,1580904562.426208,8326.607244999999,0,5.308411,97.14145
1580904613.567902,84,0,1580904337.000819,41.20701635159924,29.07533761282497,172.748,-1,-1,5.74967098236084,48.00724964208526,-9999,8329.34016125,0.9773406982421875,0.0610198974609375,-0.1220550537109375,8329.33512525,-3.135675877083874,1.432923046437646,-0.04877346661232211,-0.00524671608582139,-0.02026506140828133,0.001447357703000307,-0.01182860136032104,0.01137776672840118,0.01416283845901489,2,0.6564677488807862,0.02033122037948813,-0.7539542052688273,-0.01378324622016455,0.9893327951431274,0.04875413328409195,-0.1372734755277634,43.08084106445312,-8.469451904296875,-35.6068115234375,2,8328.880993250001,2,0,1580904613.122159,1580903939.50652,226,0.6966805,0,0,212.7492,1,0,1580904562.426208,8326.607244999999,0,5.308411,97.14145
1580904613.596739,85,0,1580904337.000819,41.20701635159924,29.07533761282497,172.748,-1,-1,5.74967098236084,48.00724964208526,-9999,8329.350201250001,0.9725494384765625,0.060760498046875,-0.1269683837890625,8329.345165250001,-3.135633303432415,1.432658401372224,-0.04876833730469255,-0.003861605655401945,-0.02731524780392647,0.001685444731265306,-0.01232659816741943,0.01225262135267258,0.01515698432922363,2,0.6563676014239145,0.02034508229683268,-0.7540412509949728,-0.01376282557397943,0.9892964959144592,0.04874900728464127,-0.1375353038311005,43.16263580322266,-8.545200347900391,-35.71942138671875,2,8328.880993250001,2,0,1580904613.122159,1580903939.50652,226,0.6966805,0,0,212.7492,1,0,1580904562.426208,8326.607244999999,0,5.308411,97.14145
1580904613.598249,86,0,1580904337.000819,41.20701635159924,29.07533761282497,172.748,-1,-1,5.74967098236084,48.00724964208526,-9999,8329.36024125,0.9680023193359375,0.0590362548828125,-0.1312255859375,8329.35520625,-3.135601577912726,1.432426301409163,-0.0487613384360218,-0.003354356158524752,-0.02478579245507717,0.001327964477241039,-0.01708614826202393,0.01200022548437119,0.01047354936599731,2,0.6562798266686646,0.02035445115769235,-0.7541177695836316,-0.01374620271485003,0.989264965057373,0.04874201864004135,-0.1377649754285812,43.16263580322266,-8.545200347900391,-35.71942138671875,2,8328.880993250001,2,0,1580904613.122159,1580903939.50652,226,0.6966805,0,0,212.7492,1,0,1580904562.426208,8326.607244999999,0,5.308411,97.14145
1580904613.599339,87,0,1580904337.000819,41.20701635159924,29.07533761282497,172.748,-1,-1,5.74967098236084,48.00724964208526,-9999,8329.37028125,0.9639129638671875,0.057037353515625,-0.1340179443359375,8329.365246250001,-3.135593973066724,1.432339554569515,-0.0487592963156518,0.0002243993803858757,-0.008802298456430435,0.0009223651140928268,-0.02162128686904907,0.01027801632881165,0.006302177906036377,2,0.6562470631043731,0.02035677270131315,-0.7541462337646324,-0.01374178421405685,0.989253044128418,0.04873997718095779,-0.1378507912158966,43.20957183837891,-8.640171051025391,-35.7662353515625,2,8328.880993250001,2,0,1580904613.122159,1580903939.50652,226,0.6966805,0,0,212.7492,1,0,1580904562.426208,8326.607244999999,0,5.308411,97.14145
1580904613.608577,88,0,1580904337.000819,41.20701635159924,29.07533761282497,172.748,-1,-1,5.74967098236084,48.00724964208526,-9999,8329.38035225,0.965057373046875,0.056732177734375,-0.1333465576171875,8329.37528625,-3.135571229584396,1.432415759124142,-0.04879579335357706,-0.002631615847349167,0.006946355104446411,-0.002528767101466656,-0.02571958303451538,0.008242644369602203,0.00343400239944458,2,0.6562752349374931,0.02037747189244092,-0.7541210428446742,-0.01374596354799497,0.9892616868019104,0.04877643287181854,-0.1377751529216766,43.20957183837891,-8.640171051025391,-35.7662353515625,2,8328.880993250001,2,0,1580904613.122159,1580903939.50652,226,0.6966805,0,0,212.7492,1,0,1580904562.426208,8326.607244999999,0,5.308411,97.14145
1580904613.618015,89,0,1580904337.000819,41.20701635159924,29.07533761282497,172.748,-1,-1,5.74967098236084,48.00724964208526,-9999,8329.39039325,0.971038818359375,0.05780029296875,-0.131988525390625,8329.38532725,-3.13554565809141,1.432657133503531,-0.04886824642767069,-0.002921900246292353,0.02485105395317078,-0.006521378178149462,-0.02460497617721558,0.007865071296691895,0.003866076469421387,2,0.6563653122465525,0.02041151780956042,-0.7540415190587074,-0.0137625604222882,0.9892915487289429,0.04884879663586617,-0.1375358998775482,43.06801605224609,-8.486137390136719,-35.65362548828125,2,8328.880993250001,2,0,1580904613.122159,1580903939.50652,226,0.6966805,0,0,212.7492,1,0,1580904562.426208,8326.607244999999,0,5.308411,97.14145
1580904613.62818,90,0,1580904337.000819,41.20701635159924,29.07533761282497,172.748,-1,-1,5.74967098236084,48.00724964208526,-9999,8329.400433250001,0.973114013671875,0.05816650390625,-0.127227783203125,8329.395367250001,-3.135511070172367,1.43296557630385,-0.04895959997536199,-0.003777982667088509,0.03110332228243351,-0.00868730153888464,-0.01866155862808228,0.008841902017593384,0.004918158054351807,2,0.6564804015910346,0.02045518135021561,-0.753939784443672,-0.01378266017793792,0.9893295168876648,0.04894004389643669,-0.1372301429510117,43.06801605224609,-8.486137390136719,-35.65362548828125,2,8328.880993250001,2,0,1580904613.122159,1580903939.50652,226,0.6966805,0,0,212.7492,1,0,1580904562.426208,8326.607244999999,0,5.308411,97.14145
1580904613.65251,91,0,1580904337.000819,41.20701635159924,29.07533761282497,172.748,-1,-1,5.74967098236084,48.00724964208526,-9999,8329.41047325,0.974761962890625,0.058990478515625,-0.1245269775390625,8329.40540725,-3.1354376606038,1.433214896830277,-0.04905831414639576,-0.007993500679731369,0.02285284735262394,-0.007701931986957788,-0.01661592721939087,0.009109482169151306,0.009431302547454834,2,0.6565727268496598,0.02051476573894773,-0.7538575718945956,-0.01378995390891591,0.9893588423728943,0.04903863742947578,-0.136982798576355,43.19016265869141,-8.818889617919922,-35.6837158203125,2,8328.880993250001,2,0,1580904613.122159,1580903939.50652,226,0.6966805,0,0,212.7492,1,0,1580904562.426208,8326.607244999999,0,5.308411,97.14145
1580904613.653727,92,0,1580904337.000819,41.20701635159924,29.07533761282497,172.748,-1,-1,5.74967098236084,48.00724964208526,-9999,8329.420513250001,0.9725189208984375,0.0599212646484375,-0.1272430419921875,8329.415447250001,-3.135346192628369,1.433437488527231,-0.04916493508655218,-0.01098939124494791,0.02112622559070587,-0.009024230763316154,-0.01499336957931519,0.009826898574829102,0.01191085577011108,2,0.6566547037689605,0.02058344153996332,-0.7537841839531506,-0.01379277812944919,0.9893840551376343,0.04914513230323792,-0.1367618441581726,43.19016265869141,-8.818889617919922,-35.6837158203125,2,8328.880993250001,2,0,1580904613.122159,1580903939.50652,226,0.6966805,0,0,212.7492,1,0,1580904562.426208,8326.607244999999,0,5.308411,97.14145
1580904613.65824,93,0,1580904337.000819,41.20701635159924,29.07533761282497,172.748,-1,-1,5.74967098236084,48.00724964208526,-9999,8329.430554250001,0.96771240234375,0.0605010986328125,-0.128387451171875,8329.425488250001,-3.135253024682431,1.433693718667841,-0.04924822616322515,-0.01083199866116047,0.02369670942425728,-0.006340563297271729,-0.01726746559143066,0.01067446172237396,0.008940696716308594,2,0.6567495348498861,0.02064365239702488,-0.7537000464770942,-0.01378765906922576,0.9894150495529175,0.04922832176089287,-0.1365077793598175,43.24234771728516,-8.392047882080078,-35.6036376953125,2,8328.880993250001,2,0,1580904613.122159,1580903939.50652,226,0.6966805,0,0,212.7492,1,0,1580904562.426208,8326.607244999999,0,5.308411,97.14145
1580904613.668213,94,0,1580904337.000819,41.20701635159924,29.07533761282497,172.748,-1,-1,5.74967098236084,48.00724964208526,-9999,8329.44059425,0.966949462890625,0.0606536865234375,-0.12774658203125,8329.43552825,-3.135149131396754,1.434009240408502,-0.04930452078198721,-0.01083173230290413,0.03115542232990265,-0.003788189962506294,-0.02211427688598633,0.01119805127382278,0.007483482360839844,2,0.6568668359100628,0.02069680782636356,-0.7535966486056052,-0.01377026222880652,0.9894552826881409,0.04928454756736755,-0.1361951977014542,43.17201995849609,-8.478908538818359,-35.7054443359375,2,8328.880993250001,2,0,1580904613.122159,1580903939.50652,226,0.6966805,0,0,212.7492,1,0,1580904562.426208,8326.607244999999,0,5.308411,97.14145
1580904613.678422,95,0,1580904337.000819,41.20701635159924,29.07533761282497,172.748,-1,-1,5.74967098236084,48.00724964208526,-9999,8329.450634250001,0.9696044921875,0.0619049072265625,-0.1251068115234375,8329.445599250001,-3.135037148076437,1.434324799878061,-0.04930997501041726,-0.01127791497856379,0.03102504275739193,0.001934878528118134,-0.02291977405548096,0.01134520024061203,0.007812201976776123,2,0.6569845144910027,0.02073347524145569,-0.7534938002188319,-0.01373312786532359,0.9894980192184448,0.04928999394178391,-0.1358829438686371,43.17201995849609,-8.478908538818359,-35.7054443359375,2,8328.880993250001,2,0,1580904613.122159,1580903939.50652,226,0.6966805,0,0,212.7492,1,0,1580904562.426208,8326.607244999999,0,5.308411,97.14145
1580904613.688408,96,0,1580904337.000819,41.20701635159924,29.07533761282497,172.748,-1,-1,5.74967098236084,48.00724964208526,-9999,8329.46067425,0.972503662109375,0.0608673095703125,-0.1246490478515625,8329.45563925,-3.134943677908584,1.434608145676105,-0.04929548006253916,-0.008590172044932842,0.02869798988103867,0.002527777105569839,-0.02030384540557861,0.01261091232299805,0.01017165184020996,2,0.6570904238252803,0.02075677913345966,-0.7534014709191487,-0.01369609184698528,0.989537239074707,0.04927551746368408,-0.135602667927742,43.14729309082031,-8.192729949951172,-35.82666015625,2,8328.880993250001,2,0,1580904613.122159,1580903939.50652,226,0.6966805,0,0,212.7492,1,0,1580904562.426208,8326.607244999999,0,5.308411,97.14145
1580904613.714328,97,0,1580904337.000819,41.20701635159924,29.07533761282497,172.748,-1,-1,5.74967098236084,48.00724964208526,-9999,8329.470715250001,0.9767913818359375,0.0601043701171875,-0.122161865234375,8329.465679250001,-3.134853687250592,1.434813633512098,-0.0492663303797239,-0.007831171154975891,0.02034285664558411,0.004194116219878197,-0.01743412017822266,0.01160241663455963,0.01042580604553223,2,0.6571671746167574,0.02077396300331989,-0.7533346777061614,-0.01365475209853881,0.9895663261413574,0.0492464043200016,-0.1353994905948639,43.14729309082031,-8.192729949951172,-35.82666015625,2,8328.880993250001,2,0,1580904613.122159,1580903939.50652,226,0.6966805,0,0,212.7492,1,0,1580904562.426208,8326.607244999999,0,5.308411,97.14145
1580904613.715718,98,0,1580904337.000819,41.20701635159924,29.07533761282497,172.748,-1,-1,5.74967098236084,48.00724964208526,-9999,8329.480755250001,0.9764404296875,0.05950927734375,-0.1220550537109375,8329.47572025,-3.134763289854588,1.434905047953543,-0.0492508326041757,-0.008943695574998856,0.007713640108704567,0.002526688855141401,-0.01315945386886597,0.01085498183965683,0.01282298564910889,2,0.6572008018749456,0.0207972072696135,-0.7533055507814745,-0.01361655431535998,0.9895796775817871,0.04923092573881149,-0.1353091597557068,43.39253997802734,-8.48272705078125,-35.52252197265625,2,8328.880993250001,2,0,1580904613.122159,1580903939.50652,226,0.6966805,0,0,212.7492,1,0,1580904562.426208,8326.607244999999,0,5.308411,97.14145
1580904613.71853,99,0,1580904337.000819,41.20701635159924,29.07533761282497,172.748,-1,-1,5.74967098236084,48.00724964208526,-9999,8329.49079525,0.97833251953125,0.059783935546875,-0.122528076171875,8329.48576025,-3.134700713249534,1.43493225497887,-0.04926394479398938,-0.006218749098479748,0.003388667479157448,-0.0001364722847938538,-0.01351332664489746,0.01024679839611053,0.01290279626846313,2,0.6572102817538357,0.02082252287368302,-0.7532968264751865,-0.01359758068757019,0.9895825386047363,0.04924402013421059,-0.1352821290493011,43.39253997802734,-8.48272705078125,-35.52252197265625,2,8328.880993250001,2,0,1580904613.122159,1580903939.50652,226,0.6966805,0,0,212.7492,1,0,1580904562.426208,8326.607244999999,0,5.308411,97.14145
1580904613.728545,100,0,1580904337.000819,41.20701635159924,29.07533761282497,172.748,-1,-1,5.74967098236084,48.00724964208526,-9999,8329.500836250001,0.983367919921875,0.058837890625,-0.12103271484375,8329.495800250001,-3.134647339964472,1.434852399868095,-0.04930831072969605,-0.006761298514902592,-0.008886303752660751,-0.002535573206841946,-0.0116083025932312,0.01047712564468384,0.01250851154327393,2,0.6571792263900996,0.02085731223269854,-0.7533231344718289,-0.01359122455346443,0.9895696640014648,0.04928833246231079,-0.1353608667850494,43.17900085449219,-8.406669616699219,-35.53192138671875,2,8328.880993250001,2,0,1580904613.122159,1580903939.50652,226,0.6966805,0,0,212.7492,1,0,1580904562.426208,8326.607244999999,0,5.308411,97.14145
1580904613.738554,101,0,1580904337.000819,41.20701635159924,29.07533761282497,172.748,-1,-1,5.74967098236084,48.00724964208526,-9999,8329.51087625,0.984649658203125,0.0597076416015625,-0.1188812255859375,8329.50584125,-3.134611103008531,1.434624511897371,-0.04938417701435838,-0.004230230115354061,-0.02324154041707516,-0.005614187568426132,-0.006538271903991699,0.009455263614654541,0.0142289400100708,2,0.6570922960196033,0.02089934065169346,-0.7533975839703559,-0.01360012974314075,0.9895350337028503,0.04936410486698151,-0.1355858594179153,43.17900085449219,-8.406669616699219,-35.53192138671875,2,8328.880993250001,2,0,1580904613.122159,1580903939.50652,226,0.6966805,0,0,212.7492,1,0,1580904562.426208,8326.607244999999,0,5.308411,97.14145
1580904613.749067,102,0,1580904337.000819,41.20701635159924,29.07533761282497,172.748,-1,-1,5.74967098236084,48.00724964208526,-9999,8329.520916250001,0.9813995361328125,0.0591278076171875,-0.1203155517578125,8329.515881250001,-3.134577053038094,1.434240181990027,-0.04948950593724225,-0.00435539847239852,-0.03862502425909042,-0.008837144821882248,-0.0051993727684021,0.0102197676897049,0.01675987243652344,2,0.6569461586368812,0.02095281613071815,-0.7535231810341526,-0.01361789025037036,0.9894776344299316,0.04946930706501007,-0.1359654515981674,43.12987518310547,-8.396377563476562,-35.7459716796875,2,8328.880993250001,2,0,1580904613.122159,1580903939.50652,226,0.6966805,0,0,212.7492,1,0,1580904562.426208,8326.607244999999,0,5.308411,97.14145
1580904613.774463,103,0,1580904337.000819,41.20701635159924,29.07533761282497,172.748,-1,-1,5.74967098236084,48.00724964208526,-9999,8329.53098725,0.9761810302734375,0.059783935546875,-0.123382568359375,8329.52592125,-3.134560929000978,1.433760933582745,-0.04962917826307559,-0.002807569224387407,-0.04839962720870972,-0.01353016681969166,-0.008377313613891602,0.009500384330749512,0.01579904556274414,2,0.6567640830213441,0.02101399976578875,-0.7536796002767375,-0.01365266624103213,0.9894055724143982,0.04960880801081657,-0.1364386975765228,43.12987518310547,-8.396377563476562,-35.7459716796875,2,8328.880993250001,2,0,1580904613.122159,1580903939.50652,226,0.6966805,0,0,212.7492,1,0,1580904562.426208,8326.607244999999,0,5.308411,97.14145
1580904613.775735,104,0,1580904337.000819,41.20701635159924,29.07533761282497,172.748,-1,-1,5.74967098236084,48.00724964208526,-9999,8329.541027250001,0.97308349609375,0.06024169921875,-0.1261749267578125,8329.53596125,-3.134545265252916,1.433257981618518,-0.04977593568305477,-0.003533546812832355,-0.05143669247627258,-0.01336318720132113,-0.01351988315582275,0.01000987738370895,0.01322871446609497,2,0.6565729743188029,0.02107788227530585,-0.7538436141077663,-0.01368966628378251,0.9893295764923096,0.04975538328289986,-0.1369353085756302,43.18122100830078,-8.351139068603516,-35.779052734375,2,8328.880993250001,2,0,1580904613.122159,1580903939.50652,226,0.6966805,0,0,212.7492,1,0,1580904562.426208,8326.607244999999,0,5.308411,97.14145
1580904613.779144,105,0,1580904337.000819,41.20701635159924,29.07533761282497,172.748,-1,-1,5.74967098236084,48.00724964208526,-9999,8329.551068250001,0.9678497314453125,0.0588531494140625,-0.1273040771484375,8329.546002250001,-3.134512477391232,1.432779548231256,-0.04993555804447848,-0.006233992055058479,-0.04878818243741989,-0.01450515072792768,-0.0165441632270813,0.01030814647674561,0.01090854406356812,2,0.6563907614712506,0.02115208566664113,-0.7539995196348016,-0.01372466215312164,0.9892560243606567,0.04991480708122253,-0.137407511472702,43.18122100830078,-8.351139068603516,-35.779052734375,2,8328.880993250001,2,0,1580904613.122159,1580903939.50652,226,0.6966805,0,0,212.7492,1,0,1580904562.426208,8326.607244999999,0,5.308411,97.14145
1580904613.788755,106,0,1580904337.000819,41.20701635159924,29.07533761282497,172.748,-1,-1,5.74967098236084,48.00724964208526,-9999,8329.56110825,0.9642791748046875,0.0594635009765625,-0.1326141357421875,8329.55604225,-3.134474992703244,1.432406060951303,-0.05010514096819747,-0.006515488494187593,-0.03855391591787338,-0.01635791175067425,-0.02171814441680908,0.008750170469284058,0.01014792919158936,2,0.6562479191961649,0.02123088131472461,-0.7541210931273821,-0.01376222856103626,0.9891964197158813,0.05008417740464211,-0.1377758383750916,43.06400299072266,-8.338630676269531,-35.773681640625,2,8328.880993250001,2,0,1580904613.122159,1580903939.50652,226,0.6966805,0,0,212.7492,1,0,1580904562.426208,8326.607244999999,0,5.308411,97.14145
1580904613.798709,107,0,1580904337.000819,41.20701635159924,29.07533761282497,172.748,-1,-1,5.74967098236084,48.00724964208526,-9999,8329.571148250001,0.9636077880859375,0.0614471435546875,-0.134674072265625,8329.566082250001,-3.134437692837243,1.432201827584246,-0.05025757595826834,-0.006337056867778301,-0.02088091522455215,-0.01533552445471287,-0.02525299787521362,0.009208217263221741,0.005038917064666748,2,0.6561690508109848,0.02130199740438488,-0.7541870910749008,-0.01379601699433204,0.9891607165336609,0.05023642256855965,-0.137976810336113,43.06400299072266,-8.338630676269531,-35.773681640625,2,8328.880993250001,2,0,1580904613.122159,1580903939.50652,226,0.6966805,0,0,212.7492,1,0,1580904562.426208,8326.607244999999,0,5.308411,97.14145
1580904613.808775,108,0,1580904337.000819,41.20701635159924,29.07533761282497,172.748,-1,-1,5.74967098236084,48.00724964208526,-9999,8329.58118825,0.965728759765625,0.0614013671875,-0.131622314453125,8329.57612225,-3.134401846160924,1.43211349859763,-0.05038409550913106,-0.00599963404238224,-0.009735586121678352,-0.0116102946922183,-0.0259060263633728,0.01106543838977814,0.003065347671508789,2,0.6561341500737218,0.02136207070074433,-0.7542151681002071,-0.01382307686104343,0.9891420602798462,0.05036278069019318,-0.1380632817745209,42.98129272460938,-8.508148193359375,-35.6142578125,2,8328.880993250001,2,0,1580904613.122159,1580903939.50652,226,0.6966805,0,0,212.7492,1,0,1580904562.426208,8326.607244999999,0,5.308411,97.14145
1580904613.841519,109,0,1580904337.000819,41.20701635159924,29.07533761282497,172.748,-1,-1,5.74967098236084,48.00724964208526,-9999,8329.59122925,0.966522216796875,0.0613555908203125,-0.1292724609375,8329.586193250001,-3.134361715177219,1.432099590411954,-0.05049705768635986,-0.006559963338077068,-0.002581803128123283,-0.01032052561640739,-0.02377766370773315,0.01090680807828903,0.006130099296569824,2,0.6561273795984639,0.02141792490784279,-0.7542191891785875,-0.01384485712605878,0.989134669303894,0.0504756011068821,-0.1380762755870819,42.98129272460938,-8.508148193359375,-35.6142578125,2,8328.880993250001,2,0,1580904613.122159,1580903939.50652,226,0.6966805,0,0,212.7492,1,0,1580904562.426208,8326.607244999999,0,5.308411,97.14145
1580904613.843116,110,0,1580904337.000819,41.20701635159924,29.07533761282497,172.748,-1,-1,5.74967098236084,48.00724964208526,-9999,8329.601269250001,0.9671173095703125,0.060791015625,-0.1278228759765625,8329.596234250001,-3.134324107967755,1.432145683894602,-0.05059849594375343,-0.004928776994347572,0.003810318186879158,-0.009431296028196812,-0.02298539876937866,0.01075968146324158,0.00843358039855957,2,0.6561433816772818,0.02146819008938209,-0.7542034326065881,-0.01386445665459861,0.9891359210014343,0.05057690665125847,-0.1380299627780914,43.25752258300781,-8.253742218017578,-35.76947021484375,2,8328.880993250001,2,0,1580904613.122159,1580903939.50652,226,0.6966805,0,0,212.7492,1,0,1580904562.426208,8326.607244999999,0,5.308411,97.14145
1580904613.844278,111,0,1580904337.000819,41.20701635159924,29.07533761282497,172.748,-1,-1,5.74967098236084,48.00724964208526,-9999,8329.61130925,0.9717254638671875,0.0618133544921875,-0.1283111572265625,8329.60627425,-3.134281607553714,1.43220706902828,-0.05071319998903994,-0.005841850303113461,0.004897642880678177,-0.01061957329511642,-0.02239298820495605,0.01008050888776779,0.009821653366088867,2,0.6561649601951627,0.02152495520174776,-0.7541826563279824,-0.01388672856425593,0.989138662815094,0.05069146677851677,-0.137968435883522,43.25752258300781,-8.253742218017578,-35.76947021484375,2,8329.60111625,4,2,1580904613.842283,1580903939.50652,226,0.6966805,0,0,212.7492,1,0,1580904562.426208,8326.607244999999,0,5.308411,97.14145
1580904613.849102,112,0,1580904337.000819,41.20701635159924,29.07533761282497,172.748,-1,-1,5.74967098236084,48.00724964208526,-9999,8329.621350250001,0.9735870361328125,0.0616607666015625,-0.1283111572265625,8329.616314250001,-3.13425819001503,1.432270962526555,-0.05083208824281737,-0.003478541504591703,0.006317181512713432,-0.01055330783128738,-0.01778769493103027,0.01098407059907913,0.009269356727600098,2,0.6561876490983042,0.02157701786251106,-0.7541608212780797,-0.01391760209382076,0.9891414046287537,0.05081019923090935,-0.1379044055938721,43.13462829589844,-8.26483154296875,-35.885009765625,2,8329.60111625,4,2,1580904613.842283,1580903939.50652,226,0.6966805,0,0,212.7492,1,0,1580904562.426208,8326.607244999999,0,5.308411,97.14145
1580904613.85924,113,0,1580904337.000819,41.20701635159924,29.07533761282497,172.748,-1,-1,5.74967098236084,48.00724964208526,-9999,8329.631390250001,0.971221923828125,0.0615386962890625,-0.1269073486328125,8329.62635425,-3.134250092736321,1.432326972058609,-0.05096260927384128,-0.00193790253251791,0.005038594827055931,-0.01177463307976723,-0.01592737436294556,0.01070106774568558,0.009212851524353027,2,0.6562074072196848,0.02162849260412845,-0.7541414598230003,-0.01395798497190544,0.9891426563262939,0.05094055086374283,-0.1378480941057205,43.13462829589844,-8.26483154296875,-35.885009765625,2,8329.60111625,4,2,1580904613.842283,1580903939.50652,226,0.6966805,0,0,212.7492,1,0,1580904562.426208,8326.607244999999,0,5.308411,97.14145
1580904613.869114,114,0,1580904337.000819,41.20701635159924,29.07533761282497,172.748,-1,-1,5.74967098236084,48.00724964208526,-9999,8329.64143025,0.9730987548828125,0.0609893798828125,-0.12664794921875,8329.63639525,-3.134238857106095,1.4323931252869,-0.05112286764067393,-0.004085698164999485,0.007280105724930763,-0.01500804536044598,-0.01829349994659424,0.01041886955499649,0.01054990291595459,2,0.6562306738871292,0.02169213439893155,-0.7541183490849153,-0.01400706294699253,0.9891434907913208,0.05110060051083565,-0.1377815008163452,43.19057464599609,-8.314273834228516,-35.78106689453125,2,8329.60111625,4,2,1580904613.842283,1580903939.50652,226,0.6966805,0,0,212.7492,1,0,1580904562.426208,8326.607244999999,0,5.308411,97.14145
1580904613.899303,115,0,1580904337.000819,41.20701635159924,29.07533761282497,172.748,-1,-1,5.74967098236084,48.00724964208526,-9999,8329.651470250001,0.9765472412109375,0.0623016357421875,-0.126129150390625,8329.646435250001,-3.134250141520691,1.432414919213655,-0.051309908210149,-0.001889655366539955,0.001456303521990776,-0.01881476677954197,-0.01641017198562622,0.009682700037956238,0.01078641414642334,2,0.6562371837863969,0.02175879218194857,-0.7541095229747971,-0.01407293952139932,0.9891369938850403,0.05128739774227142,-0.1377586275339127,43.19057464599609,-8.314273834228516,-35.78106689453125,2,8329.60111625,4,2,1580904613.842283,1580903939.50652,226,0.6966805,0,0,212.7492,1,0,1580904562.426208,8326.607244999999,0,5.308411,97.14145
1580904613.900635,116,0,1580904337.000819,41.20701635159924,29.07533761282497,172.748,-1,-1,5.74967098236084,48.00724964208526,-9999,8329.66151125,0.9785308837890625,0.06134033203125,-0.1249847412109375,8329.65647525,-3.134262957593108,1.432396267167542,-0.0515107109427834,-0.003167154267430305,-0.001894937828183174,-0.01913785189390182,-0.01294887065887451,0.01079434156417847,0.01132220029830933,2,0.6562283211637726,0.02183041996565079,-0.754113809659304,-0.01414347086194095,0.9891241788864136,0.05148793384432793,-0.137775644659996,43.31694030761719,-8.210712432861328,-35.7989501953125,2,8329.60111625,4,2,1580904613.842283,1580903939.50652,226,0.6966805,0,0,212.7492,1,0,1580904562.426208,8326.607244999999,0,5.308411,97.14145
1580904613.901702,117,0,1580904337.000819,41.20701635159924,29.07533761282497,172.748,-1,-1,5.74967098236084,48.00724964208526,-9999,8329.671551250001,0.9776611328125,0.0609130859375,-0.12493896484375,8329.666516250001,-3.134298346250695,1.432306332352821,-0.05176298437054989,0.0006158659234642982,-0.009670568630099297,-0.02520293369889259,-0.0109400749206543,0.009581007063388824,0.012553870677948,2,0.6561923050186762,0.02191455455738624,-0.7541410137783137,-0.01423861790479065,0.9890989661216736,0.05173987150192261,-0.13786281645298,43.31694030761719,-8.210712432861328,-35.7989501953125,2,8329.60111625,4,2,1580904613.842283,1580903939.50652,226,0.6966805,0,0,212.7492,1,0,1580904562.426208,8326.607244999999,0,5.308411,97.14145
1580904613.909437,118,0,1580904337.000819,41.20701635159924,29.07533761282497,172.748,-1,-1,5.74967098236084,48.00724964208526,-9999,8329.68162225,0.9763031005859375,0.062286376953125,-0.1256103515625,8329.67655625,-3.134330992741571,1.43214982989467,-0.05204347437861128,-6.885174661874771e-05,-0.01603880152106285,-0.02752170711755753,-0.01177400350570679,0.008873529732227325,0.01275229454040527,2,0.6561308750864662,0.02201071261926487,-0.7541897196164151,-0.01434125296010275,0.989063024520874,0.05201998353004456,-0.1380156129598618,43.30029296875,-8.294811248779297,-35.80426025390625,2,8329.60111625,4,2,1580904613.842283,1580903939.50652,226,0.6966805,0,0,212.7492,1,0,1580904562.426208,8326.607244999999,0,5.308411,97.14145
1580904613.919457,119,0,1580904337.000819,41.20701635159924,29.07533761282497,172.748,-1,-1,5.74967098236084,48.00724964208526,-9999,8329.691676875,0.971649169921875,0.0641632080078125,-0.1258544921875,8329.686610875,-3.134377999739469,1.431965783824398,-0.05231988169034082,0.001191088929772377,-0.01912753470242023,-0.0272375475615263,-0.0130922794342041,0.009970687329769135,0.01226091384887695,2,0.6560592492980803,0.0221008352474054,-0.7542472868591793,-0.01444764715952263,0.9890232086181641,0.05229601636528969,-0.1381956338882446,43.30029296875,-8.294811248779297,-35.80426025390625,2,8329.60111625,4,2,1580904613.842283,1580903939.50652,226,0.6966805,0,0,212.7492,1,0,1580904562.426208,8326.607244999999,0,5.308411,97.14145
1580904613.9295,120,0,1580904337.000819,41.20701635159924,29.07533761282497,172.748,-1,-1,5.74967098236084,48.00724964208526,-9999,8329.701716875001,0.965911865234375,0.064117431640625,-0.1279144287109375,8329.696650875001,-3.134420978148529,1.431809745310366,-0.05259472763743809,6.233621388673782e-05,-0.0170462355017662,-0.02765762992203236,-0.01771026849746704,0.01157295703887939,0.01216953992843628,2,0.655998124214946,0.02219150649479222,-0.7542959962929573,-0.01455229315070865,0.9889876246452332,0.05257048457860947,-0.1383479982614517,43.137451171875,-8.229476928710938,-35.79864501953125,2,8329.60111625,4,2,1580904613.842283,1580903939.50652,226,0.6966805,0,0,212.7492,1,0,1580904562.426208,8326.607244999999,0,5.308411,97.14145
1580904613.959938,121,0,1580904337.000819,41.20701635159924,29.07533761282497,172.748,-1,-1,5.74967098236084,48.00724964208526,-9999,8329.711757875,0.9631805419921875,0.0640869140625,-0.129638671875,8329.706691875001,-3.13445430262722,1.431712140712127,-0.05282762332219202,-0.0006492603570222855,-0.009219471365213394,-0.02354091592133045,-0.02342188358306885,0.01129452139139175,0.01020443439483643,2,0.6559593570721887,0.02226911214369764,-0.7543256828928158,-0.01464018202978085,0.988961935043335,0.05280305445194244,-0.1384428143501282,43.137451171875,-8.229476928710938,-35.79864501953125,2,8329.60111625,4,2,1580904613.842283,1580903939.50652,226,0.6966805,0,0,212.7492,1,0,1580904562.426208,8326.607244999999,0,5.308411,97.14145
1580904613.961146,122,0,1580904337.000819,41.20701635159924,29.07533761282497,172.748,-1,-1,5.74967098236084,48.00724964208526,-9999,8329.721797875001,0.9610443115234375,0.064697265625,-0.1323394775390625,8329.716731875,-3.134486948247598,1.431687802982131,-0.05300076351701234,0.0009232331067323685,-0.002781614661216736,-0.01767133735120296,-0.02614092826843262,0.01109102368354797,0.008502662181854248,2,0.6559488162092045,0.02232387513286698,-0.7543317465087214,-0.01470902697268804,0.9889492988586426,0.05297595262527466,-0.1384655833244324,43.11103820800781,-8.540378570556641,-35.4161376953125,2,8329.60111625,4,2,1580904613.842283,1580903939.50652,226,0.6966805,0,0,212.7492,1,0,1580904562.426208,8326.607244999999,0,5.308411,97.14145
1580904613.962169,123,0,1580904337.000819,41.20701635159924,29.07533761282497,172.748,-1,-1,5.74967098236084,48.00724964208526,-9999,8329.731837875001,0.9620513916015625,0.064971923828125,-0.1322479248046875,8329.726771875001,-3.134507345670667,1.431792735925657,-0.05312042505961075,0.0002411967143416405,0.009462269023060799,-0.01203821878880262,-0.02828538417816162,0.01158183813095093,0.005697190761566162,2,0.6559874205329778,0.02236153587351487,-0.754296091398958,-0.01475714884845651,0.9889575242996216,0.05309544503688812,-0.138360932469368,43.11103820800781,-8.540378570556641,-35.4161376953125,2,8329.60111625,4,2,1580904613.842283,1580903939.50652,226,0.6966805,0,0,212.7492,1,0,1580904562.426208,8326.607244999999,0,5.308411,97.14145
1580904613.969646,124,0,1580904337.000819,41.20701635159924,29.07533761282497,172.748,-1,-1,5.74967098236084,48.00724964208526,-9999,8329.741877875,0.965606689453125,0.06524658203125,-0.1281585693359375,8329.736842875,-3.134522798932597,1.431970507914624,-0.0531835806131081,0.001721813343465328,0.01654691435396671,-0.005078115034848452,-0.02729964256286621,0.01179341226816177,0.005612432956695557,2,0.6560539942658508,0.02237896837168891,-0.754237227503465,-0.01478568124242713,0.9889789223670959,0.05315851420164108,-0.1381846815347672,43.23812866210938,-8.396102905273438,-35.57366943359375,2,8329.60111625,4,2,1580904613.842283,1580903939.50652,226,0.6966805,0,0,212.7492,1,0,1580904562.426208,8326.607244999999,0,5.308411,97.14145
1580904613.979566,125,0,1580904337.000819,41.20701635159924,29.07533761282497,172.748,-1,-1,5.74967098236084,48.00724964208526,-9999,8329.751918875001,0.97003173828125,0.0641326904296875,-0.1270599365234375,8329.746882875001,-3.13451694074585,1.432167592318414,-0.05322791542397214,-0.001259063370525837,0.01947213150560856,-0.00483044097200036,-0.02376919984817505,0.01202378422021866,0.009506523609161377,2,0.6561278035143441,0.0223961484166202,-0.7541722249424233,-0.01480022519863294,0.9890037775039673,0.053202785551548,-0.1379894316196442,43.23812866210938,-8.396102905273438,-35.57366943359375,2,8329.60111625,4,2,1580904613.842283,1580903939.50652,226,0.6966805,0,0,212.7492,1,0,1580904562.426208,8326.607244999999,0,5.308411,97.14145
1580904613.989995,126,0,1580904337.000819,41.20701635159924,29.07533761282497,172.748,-1,-1,5.74967098236084,48.00724964208526,-9999,8329.761958875,0.9721832275390625,0.063720703125,-0.1251983642578125,8329.756923875,-3.13449763331432,1.43235108896593,-0.05323150596008495,-0.002976535819470882,0.01772776059806347,0.0005542044527828693,-0.01936924457550049,0.01090630143880844,0.01042366027832031,2,0.6561967437132797,0.02240247875338129,-0.7541121138076439,-0.01479617895650176,0.9890288710594177,0.05320636928081512,-0.1378079205751419,43.26877593994141,-8.310894012451172,-35.66827392578125,2,8329.60111625,4,2,1580904613.842283,1580903939.50652,226,0.6966805,0,0,212.7492,1,0,1580904562.426208,8326.607244999999,0,5.308411,97.14145
1580904614.020358,127,0,1580904337.000819,41.20701635159924,29.07533761282497,172.748,-1,-1,5.74967098236084,48.00724964208526,-9999,8329.771998875001,0.974151611328125,0.0629730224609375,-0.1243133544921875,8329.766963875001,-3.134483075280974,1.432479966398535,-0.05323588860553435,-0.001384517177939415,0.01209829747676849,0.0002823425456881523,-0.01723533868789673,0.01048992574214935,0.01215749979019165,2,0.6562451334594538,0.02240795414335302,-0.7540698294518963,-0.01479357426396509,0.9890463352203369,0.05321074649691582,-0.1376804113388062,43.26877593994141,-8.310894012451172,-35.66827392578125,2,8329.60111625,4,2,1580904613.842283,1580903939.50652,226,0.6966805,0,0,212.7492,1,0,1580904562.426208,8326.607244999999,0,5.308411,97.14145
1580904614.021678,128,0,1580904337.000819,41.20701635159924,29.07533761282497,172.748,-1,-1,5.74967098236084,48.00724964208526,-9999,8329.782039875001,0.974029541015625,0.0642547607421875,-0.1232757568359375,8329.777003875,-3.134463022402848,1.43253680229352,-0.05324494368434072,-0.002077370416373014,0.005570782348513603,-0.0003455653786659241,-0.01527422666549683,0.009733200073242188,0.01298624277114868,2,0.6562662482419773,0.02241752714574586,-0.7540512181897658,-0.01478962353093666,0.9890536069869995,0.05321978777647018,-0.137624129652977,43.22694396972656,-8.370132446289062,-35.74725341796875,2,8329.60111625,4,2,1580904613.842283,1580903939.50652,226,0.6966805,0,0,212.7492,1,0,1580904562.426208,8326.607244999999,0,5.308411,97.14145
1580904614.023065,129,0,1580904337.000819,41.20701635159924,29.07533761282497,172.748,-1,-1,5.74967098236084,48.00724964208526,-9999,8329.792079875,0.97662353515625,0.064483642578125,-0.123504638671875,8329.787043875,-3.134439582155173,1.432503576131376,-0.05324504883583494,-0.002302673645317554,-0.003472780808806419,0.00121025275439024,-0.01539194583892822,0.01101482659578323,0.01405656337738037,2,0.6562534532542037,0.02242550392496093,-0.7540623540514563,-0.01478044583735735,0.9890491366386414,0.05321989208459854,-0.1376570016145706,43.22694396972656,-8.370132446289062,-35.74725341796875,2,8329.60111625,4,2,1580904613.842283,1580903939.50652,226,0.6966805,0,0,212.7492,1,0,1580904562.426208,8326.607244999999,0,5.308411,97.14145
1580904614.029914,130,0,1580904337.000819,41.20701635159924,29.07533761282497,172.748,-1,-1,5.74967098236084,48.00724964208526,-9999,8329.802119875001,0.97650146484375,0.06390380859375,-0.1236572265625,8329.797084875001,-3.134423651302648,1.432393464811653,-0.05325560924827673,-0.001392773352563381,-0.0104426983743906,0.0004887371324002743,-0.01278233528137207,0.01123315840959549,0.01393651962280273,2,0.6562116507517339,0.02243552579537373,-0.7540985212945781,-0.01477666967007167,0.9890334010124207,0.05323043838143349,-0.1377658396959305,43.31714630126953,-8.311317443847656,-35.54742431640625,2,8329.60111625,4,2,1580904613.842283,1580903939.50652,226,0.6966805,0,0,212.7492,1,0,1580904562.426208,8326.607244999999,0,5.308411,97.14145
1580904614.04012,131,0,1580904337.000819,41.20701635159924,29.07533761282497,172.748,-1,-1,5.74967098236084,48.00724964208526,-9999,8329.812159875,0.973052978515625,0.063323974609375,-0.1261749267578125,8329.807124875,-3.13441417834068,1.432220864439372,-0.05330095130465354,-0.001277990639209747,-0.01823936775326729,-0.004054615274071693,-0.0128781795501709,0.01060803234577179,0.01395434141159058,2,0.6561460043038506,0.02245700341025216,-0.7541548347173086,-0.01478603957642859,0.9890072345733643,0.05327571555972099,-0.1379362046718597,43.31714630126953,-8.311317443847656,-35.54742431640625,2,8329.60111625,4,2,1580904613.842283,1580903939.50652,226,0.6966805,0,0,212.7492,1,0,1580904562.426208,8326.607244999999,0,5.308411,97.14145
1580904614.050064,132,0,1580904337.000819,41.20701635159924,29.07533761282497,172.748,-1,-1,5.74967098236084,48.00724964208526,-9999,8329.822230875001,0.968292236328125,0.0640106201171875,-0.129913330078125,8329.817164875001,-3.13440787945138,1.432093342424994,-0.05334658009970301,-0.0009303679689764977,-0.01251116581261158,-0.003775708610191941,-0.01630663871765137,0.00998261570930481,0.01156258583068848,2,0.6560973826808856,0.02247721620186392,-0.7541963552627163,-0.01479720262988186,0.9889873266220093,0.05332127958536148,-0.1380620002746582,43.33415222167969,-8.102340698242188,-35.727783203125,2,8329.60111625,4,2,1580904613.842283,1580903939.50652,226,0.6966805,0,0,212.7492,1,0,1580904562.426208,8326.607244999999,0,5.308411,97.14145
1580904614.078635,133,0,1580904337.000819,41.20701635159924,29.07533761282497,172.748,-1,-1,5.74967098236084,48.00724964208526,-9999,8329.832271875001,0.9683685302734375,0.06439208984375,-0.1292266845703125,8329.827205875001,-3.134384651974409,1.432038752189796,-0.05337853977152632,-0.003657711204141378,-0.006365921348333359,-0.003103793133050203,-0.02105838060379028,0.0106373131275177,0.007877647876739502,2,0.6560762166553558,0.02249728971180905,-0.754214082524418,-0.01479831851258884,0.9889780282974243,0.0533531941473484,-0.1381157338619232,43.33415222167969,-8.102340698242188,-35.727783203125,2,8329.60111625,4,2,1580904613.842283,1580903939.50652,226,0.6966805,0,0,212.7492,1,0,1580904562.426208,8326.607244999999,0,5.308411,97.14145
1580904614.079861,134,0,1580904337.000819,41.20701635159924,29.07533761282497,172.748,-1,-1,5.74967098236084,48.00724964208526,-9999,8329.842311875,0.970458984375,0.065216064453125,-0.126708984375,8329.837245875,-3.13436267084455,1.432000362973077,-0.05336858202543009,-0.001779343001544476,-0.004201877862215042,0.00148078566417098,-0.02097725868225098,0.01102873682975769,0.008602321147918701,2,0.6560615936455164,0.0225010296653687,-0.7542269191064074,-0.01478633038669437,0.9889732003211975,0.05334325134754181,-0.1381537765264511,43.25605773925781,-8.152816772460938,-35.598388671875,2,8329.60111625,4,2,1580904613.842283,1580903939.50652,226,0.6966805,0,0,212.7492,1,0,1580904562.426208,8326.607244999999,0,5.308411,97.14145
1580904614.080976,135,0,1580904337.000819,41.20701635159924,29.07533761282497,172.748,-1,-1,5.74967098236084,48.00724964208526,-9999,8329.852351875001,0.970184326171875,0.0650787353515625,-0.1255645751953125,8329.847285875001,-3.134353882659325,1.43191958128349,-0.05333310382903559,0.0007828837260603905,-0.008916473016142845,0.003832091111689806,-0.01887756586074829,0.01188815385103226,0.0112001895904541,2,0.6560313919979809,0.02249113196120039,-0.7542537560158171,-0.01477046869956479,0.9889639019966125,0.05330782383680344,-0.1382339298725128,43.25605773925781,-8.152816772460938,-35.598388671875,2,8329.60111625,4,2,1580904613.842283,1580903939.50652,226,0.6966805,0,0,212.7492,1,0,1580904562.426208,8326.607244999999,0,5.308411,97.14145
1580904614.090157,136,0,1580904337.000819,41.20701635159924,29.07533761282497,172.748,-1,-1,5.74967098236084,48.00724964208526,-9999,8329.862391875,0.97088623046875,0.0638580322265625,-0.1266021728515625,8329.857325875,-3.134356770094327,1.431821665341426,-0.053285924318998,0.001394697465002537,-0.01156038604676723,0.004761109594255686,-0.01914113759994507,0.01179797202348709,0.01244199275970459,2,0.6559949693078094,0.02247311763998053,-0.7542863415320584,-0.01475497591073364,0.9889529347419739,0.05326071009039879,-0.1383311152458191,43.18367767333984,-8.182987213134766,-35.66668701171875,2,8329.60111625,4,2,1580904613.842283,1580903939.50652,226,0.6966805,0,0,212.7492,1,0,1580904562.426208,8326.607244999999,0,5.308411,97.14145
1580904614.100127,137,0,1580904337.000819,41.20701635159924,29.07533761282497,172.748,-1,-1,5.74967098236084,48.00724964208526,-9999,8329.872432875001,0.97021484375,0.06378173828125,-0.1277313232421875,8329.867366875,-3.134366939626545,1.43172654275861,-0.05321485305999825,0.002598445862531662,-0.0110250897705555,0.007609094027429819,-0.01842999458312988,0.01064822822809219,0.01149868965148926,2,0.6559599309272199,0.02244368321736333,-0.7543180143481616,-0.01473443023482392,0.9889433979988098,0.05318973958492279,-0.1384256929159164,43.18367767333984,-8.182987213134766,-35.66668701171875,2,8329.60111625,4,2,1580904613.842283,1580903939.50652,226,0.6966805,0,0,212.7492,1,0,1580904562.426208,8326.607244999999,0,5.308411,97.14145
1580904614.110192,138,0,1580904337.000819,41.20701635159924,29.07533761282497,172.748,-1,-1,5.74967098236084,48.00724964208526,-9999,8329.882472875001,0.9672393798828125,0.0641021728515625,-0.1283721923828125,8329.877406875001,-3.134374926901373,1.431657536864891,-0.05314468310568664,0.00276569277048111,-0.007952334359288216,0.007022133562713861,-0.01909542083740234,0.01064205169677734,0.01043856143951416,2,0.6559346948468651,0.02241511052675505,-0.7543413125966938,-0.01471364634344516,0.9889376759529114,0.05311967059969902,-0.1384944766759872,43.1683349609375,-8.440025329589844,-35.77978515625,2,8329.60111625,4,2,1580904613.842283,1580903939.50652,226,0.6966805,0,0,212.7492,1,0,1580904562.426208,8326.607244999999,0,5.308411,97.14145
1580904614.138786,139,0,1580904337.000819,41.20701635159924,29.07533761282497,172.748,-1,-1,5.74967098236084,48.00724964208526,-9999,8329.892512875,0.9674530029296875,0.0629119873046875,-0.1280975341796875,8329.887477875,-3.134368127965235,1.431639551541848,-0.05305790371724872,0.0006492780521512032,-0.002094445750117302,0.01066054403781891,-0.02207291126251221,0.01104918122291565,0.009816110134124756,2,0.6559287088026156,0.0223847472037114,-0.7543480337982787,-0.01468241337373895,0.9889397621154785,0.0530330128967762,-0.138512909412384,43.1683349609375,-8.440025329589844,-35.77978515625,2,8329.60111625,4,2,1580904613.842283,1580903939.50652,226,0.6966805,0,0,212.7492,1,0,1580904562.426208,8326.607244999999,0,5.308411,97.14145
1580904614.140545,140,0,1580904337.000819,41.20701635159924,29.07533761282497,172.748,-1,-1,5.74967098236084,48.00724964208526,-9999,8329.902552875001,0.96917724609375,0.062469482421875,-0.12823486328125,8329.897517875001,-3.134353673350426,1.431664568701505,-0.0529775738774261,-0.0001790691167116165,0.002477254718542099,0.008528620004653931,-0.02186697721481323,0.00993926078081131,0.01006662845611572,2,0.6559387931901045,0.02235901121631019,-0.7543406103100411,-0.01465089111322619,0.9889473915100098,0.05295279622077942,-0.1384887546300888,43.131591796875,-8.345417022705078,-35.76690673828125,2,8329.60111625,4,2,1580904613.842283,1580903939.50652,226,0.6966805,0,0,212.7492,1,0,1580904562.426208,8326.607244999999,0,5.308411,97.14145
1580904614.141786,141,0,1580904337.000819,41.20701635159924,29.07533761282497,172.748,-1,-1,5.74967098236084,48.00724964208526,-9999,8329.912593875,0.970947265625,0.0618438720703125,-0.129241943359375,8329.907557875,-3.134316077697498,1.431733847999937,-0.05291358178570604,-0.0032233283855021,0.006447760388255119,0.008254580199718475,-0.02015572786331177,0.009560666978359222,0.009861290454864502,2,0.6559651420682759,0.02234670332408437,-0.754318788399322,-0.01461649103230049,0.9889603853225708,0.0528888925909996,-0.1384207159280777,43.131591796875,-8.345417022705078,-35.76690673828125,2,8329.60111625,4,2,1580904613.842283,1580903939.50652,226,0.6966805,0,0,212.7492,1,0,1580904562.426208,8326.607244999999,0,5.308411,97.14145
1580904614.150791,142,0,1580904337.000819,41.20701635159924,29.07533761282497,172.748,-1,-1,5.74967098236084,48.00724964208526,-9999,8329.922633875001,0.9717254638671875,0.0623016357421875,-0.1267242431640625,8329.917598875001,-3.134283299886387,1.431836580342057,-0.05286721842962334,-0.001280674710869789,0.009623615071177483,0.006412983871996403,-0.01840245723724365,0.008981361985206604,0.008752584457397461,2,0.6560039949468705,0.02233922088553363,-0.7542856253139075,-0.01459007019818728,0.9889768958091736,0.05284259468317032,-0.1383194327354431,43.02860260009766,-8.142005920410156,-35.67236328125,2,8329.60111625,4,2,1580904613.842283,1580903939.50652,226,0.6966805,0,0,212.7492,1,0,1580904562.426208,8326.607244999999,0,5.308411,97.14145
1580904614.160391,143,0,1580904337.000819,41.20701635159924,29.07533761282497,172.748,-1,-1,5.74967098236084,48.00724964208526,-9999,8329.932673875001,0.9705657958984375,0.0645599365234375,-0.1256866455078125,8329.927638875,-3.134242451545423,1.431927222682517,-0.05283933614367031,-0.004390447866171598,0.008359147235751152,0.002179357223212719,-0.01763820648193359,0.009466968476772308,0.01118075847625732,2,0.6560380087126633,0.02234144513482535,-0.7542563541159091,-0.01456653238961061,0.9889907836914062,0.05281475186347961,-0.1382299810647964,43.02860260009766,-8.142005920410156,-35.67236328125,2,8329.60111625,4,2,1580904613.842283,1580903939.50652,226,0.6966805,0,0,212.7492,1,0,1580904562.426208,8326.607244999999,0,5.308411,97.14145
1580904614.170251,144,0,1580904337.000819,41.20701635159924,29.07533761282497,172.748,-1,-1,5.74967098236084,48.00724964208526,-9999,8329.942714875,0.9676513671875,0.06683349609375,-0.124664306640625,8329.937678875,-3.134223082621746,1.431962117902758,-0.05277561524989134,-0.002078743651509285,0.002034422010183334,0.007338244467973709,-0.01880592107772827,0.01178894191980362,0.0121845006942749,2,0.6560515895635676,0.02232351801467164,-0.7542456564864498,-0.01453870926274115,0.9889990091323853,0.05275112017989159,-0.1381959468126297,43.10670471191406,-8.121219635009766,-35.6201171875,2,8329.60111625,4,2,1580904613.842283,1580903939.50652,226,0.6966805,0,0,212.7492,1,0,1580904562.426208,8326.607244999999,0,5.308411,97.14145
1580904614.199892,145,0,1580904337.000819,41.20701635159924,29.07533761282497,172.748,-1,-1,5.74967098236084,48.00724964208526,-9999,8329.952754875001,0.96466064453125,0.0660552978515625,-0.1285247802734375,8329.947719875001,-3.134240214911086,1.432020932734196,-0.05267230597000838,0.002420667558908463,0.005658183246850967,0.01082485448569059,-0.02173388004302979,0.01416569948196411,0.0131494402885437,2,0.6560749966051901,0.02227851771823323,-0.7542271598732335,-0.01451192907090361,0.9890125393867493,0.05264795571565628,-0.1381385326385498,43.10670471191406,-8.121219635009766,-35.6201171875,2,8329.60111625,4,2,1580904613.842283,1580903939.50652,226,0.6966805,0,0,212.7492,1,0,1580904562.426208,8326.607244999999,0,5.308411,97.14145
1580904614.201571,146,0,1580904337.000819,41.20701635159924,29.07533761282497,172.748,-1,-1,5.74967098236084,48.00724964208526,-9999,8329.962794875,0.9619293212890625,0.0658416748046875,-0.12994384765625,8329.957759875,-3.134254505262964,1.432169325606271,-0.05251423181268975,0.001990853808820248,0.01534816063940525,0.0169490110129118,-0.02475333213806152,0.01354541629552841,0.009143352508544922,2,0.6561326936533787,0.02221315472843473,-0.754179817047268,-0.01446709833236601,0.9890413284301758,0.05249009653925896,-0.1379929333925247,42.94936370849609,-8.125110626220703,-35.58380126953125,2,8329.60111625,4,2,1580904613.842283,1580903939.50652,226,0.6966805,0,0,212.7492,1,0,1580904562.426208,8327.546254000001,0,5.250275,97.14213
1580904614.202749,147,0,1580904337.000819,41.20701635159924,29.07533761282497,172.748,-1,-1,5.74967098236084,48.00724964208526,-9999,8329.972865875001,0.96636962890625,0.0642242431640625,-0.12652587890625,8329.967799875001,-3.134264154592232,1.432372261169671,-0.05231587384159138,0.002990071661770344,0.02036848850548267,0.02021005190908909,-0.02752310037612915,0.0135299488902092,0.007524728775024414,2,0.6562113070126063,0.02213374083743755,-0.7541148213095562,-0.01440789616429186,0.9890795350074768,0.05229201167821884,-0.137793630361557,42.94936370849609,-8.125110626220703,-35.58380126953125,2,8329.60111625,4,2,1580904613.842283,1580903939.50652,226,0.6966805,0,0,212.7492,1,0,1580904562.426208,8327.546254000001,0,5.250275,97.14213
1580904614.210847,148,0,1580904337.000819,41.20701635159924,29.07533761282497,172.748,-1,-1,5.74967098236084,48.00724964208526,-9999,8329.982905875,0.9750213623046875,0.0633544921875,-0.124847412109375,8329.977839875,-3.134275968098183,1.432571973043671,-0.05210679455290654,0.003263372927904129,0.02025719918310642,0.02130957320332527,-0.02312123775482178,0.01212139427661896,0.01074671745300293,2,0.6562888109276885,0.02204961058812992,-0.7540511120915814,-0.01434593377201558,0.9891179800033569,0.05208321660757065,-0.1375976204872131,43.02907562255859,-8.3265380859375,-35.61669921875,2,8329.60111625,4,2,1580904613.842283,1580903939.50652,226,0.6966805,0,0,212.7492,1,0,1580904562.426208,8327.546254000001,0,5.250275,97.14213
1580904614.220612,149,0,1580904337.000819,41.20701635159924,29.07533761282497,172.748,-1,-1,5.74967098236084,48.00724964208526,-9999,8329.992946875,0.978851318359375,0.060455322265625,-0.1247406005859375,8329.987880875,-3.134295550556224,1.43274223922963,-0.05193503054747729,0.004308130592107773,0.01685767434537411,0.01690790057182312,-0.01450169086456299,0.01142322272062302,0.01225775480270386,2,0.6563549251613896,0.02197721866392234,-0.7539965270165049,-0.01429881375648674,0.9891501665115356,0.05191168561577797,-0.1374304294586182,43.06473541259766,-8.402912139892578,-35.69122314453125,2,8329.60111625,4,2,1580904613.842283,1580903939.50652,226,0.6966805,0,0,212.7492,1,0,1580904562.426208,8327.546254000001,0,5.250275,97.14213
1580904614.23066,150,0,1580904337.000819,41.20701635159924,29.07533761282497,172.748,-1,-1,5.74967098236084,48.00724964208526,-9999,8330.002986875001,0.978851318359375,0.0595703125,-0.1227569580078125,8329.997920875001,-3.134309598927107,1.432853678887619,-0.05181540227556681,0.003786276094615459,0.01108869165182114,0.01172594539821148,-0.0106932520866394,0.008643582463264465,0.01225519180297852,2,0.6563982716948101,0.02192672122376556,-0.7539609154544182,-0.01426606269886341,0.9891716837882996,0.05179221928119659,-0.1373210549354553,43.06473541259766,-8.402912139892578,-35.69122314453125,2,8329.60111625,4,2,1580904613.842283,1580903939.50652,226,0.6966805,0,0,212.7492,1,0,1580904562.426208,8327.546254000001,0,5.250275,97.14213
1580904614.259197,151,0,1580904337.000819,41.20701635159924,29.07533761282497,172.748,-1,-1,5.74967098236084,48.00724964208526,-9999,8330.013026875,0.9748077392578125,0.0619964599609375,-0.1227569580078125,8330.007960875,-3.134299668776816,1.432884247006764,-0.05170245736003918,0.0005444101989269257,0.002458453178405762,0.01278828084468842,-0.01070338487625122,0.007871396839618683,0.01420921087265015,2,0.6564108086288043,0.02188719166633678,-0.7539518055348007,-0.01422558111231907,0.9891815185546875,0.05167942494153976,-0.1372915953397751,43.09250640869141,-8.209396362304688,-35.587646484375,2,8329.60111625,4,2,1580904613.842283,1580903939.50652,226,0.6966805,0,0,212.7492,1,0,1580904562.426208,8327.546254000001,0,5.250275,97.14213
1580904614.260406,152,0,1580904337.000819,41.20701635159924,29.07533761282497,172.748,-1,-1,5.74967098236084,48.00724964208526,-9999,8330.023066875001,0.9679412841796875,0.062164306640625,-0.12835693359375,8330.018000875001,-3.134281886628088,1.43291143233749,-0.05157038947732143,0.0009544771164655685,0.0006323643028736115,0.01307176984846592,-0.01475745439529419,0.01042947173118591,0.01418328285217285,2,0.6564221626019644,0.02184305692111322,-0.7539441524463827,-0.0141758192241834,0.989192008972168,0.05154753476381302,-0.1372656524181366,43.09250640869141,-8.209396362304688,-35.587646484375,2,8329.60111625,4,2,1580904613.842283,1580903939.50652,226,0.6966805,0,0,212.7492,1,0,1580904562.426208,8327.546254000001,0,5.250275,97.14213
1580904614.261613,153,0,1580904337.000819,41.20701635159924,29.07533761282497,172.748,-1,-1,5.74967098236084,48.00724964208526,-9999,8330.033107875,0.9606170654296875,0.06243896484375,-0.1317596435546875,8330.028071875,-3.134231683034777,1.433078195415787,-0.05138992075238573,-0.002341451589018106,0.01639854535460472,0.01941568590700626,-0.02165597677230835,0.01077762991189957,0.008419573307037354,2,0.6564862523584908,0.02179033818130957,-0.7538913074142338,-0.01409946599239723,0.9892240762710571,0.05136730521917343,-0.1371019631624222,43.15313720703125,-8.090415954589844,-35.62384033203125,2,8329.60111625,4,2,1580904613.842283,1580903939.50652,226,0.6966805,0,0,212.7492,1,0,1580904562.426208,8327.546254000001,0,5.250275,97.14213
1580904614.270812,154,0,1580904337.000819,41.20701635159924,29.07533761282497,172.748,-1,-1,5.74967098236084,48.00724964208526,-9999,8330.043147875,0.9626312255859375,0.0619964599609375,-0.129364013671875,8330.038112875001,-3.134170864123504,1.433381927660694,-0.05117624017951066,-0.00180624146014452,0.02985063008964062,0.02283853851258755,-0.02903270721435547,0.01126575469970703,0.004717648029327393,2,0.656602166125269,0.02172764154913508,-0.753793905249932,-0.01400968349634936,0.989276647567749,0.05115390568971634,-0.1368030160665512,43.15313720703125,-8.090415954589844,-35.62384033203125,2,8329.60111625,4,2,1580904613.842283,1580903939.50652,226,0.6966805,0,0,212.7492,1,0,1580904562.426208,8327.546254000001,0,5.250275,97.14213
1580904614.280956,155,0,1580904337.000819,41.20701635159924,29.07533761282497,172.748,-1,-1,5.74967098236084,48.00724964208526,-9999,8330.053187875001,0.9657745361328125,0.06201171875,-0.129241943359375,8330.048152875001,-3.13410523550788,1.433795045655164,-0.05092220946973867,-0.002755391877144575,0.0418873205780983,0.02655577845871449,-0.02708792686462402,0.01107706129550934,0.006706297397613525,2,0.6567596273498134,0.02165058794548999,-0.7536608951989017,-0.0139060023556952,0.9893459677696228,0.05090020596981049,-0.1363960951566696,43.26831817626953,-8.2137451171875,-35.7567138671875,2,8329.60111625,4,2,1580904613.842283,1580903939.50652,226,0.6966805,0,0,212.7492,1,0,1580904562.426208,8327.546254000001,0,5.250275,97.14213
1580904614.29104,156,0,1580904337.000819,41.20701635159924,29.07533761282497,172.748,-1,-1,5.74967098236084,48.00724964208526,-9999,8330.063228875,0.9702606201171875,0.0633697509765625,-0.1238861083984375,8330.058192875,-3.134044987517106,1.434242081016512,-0.05063736045801407,-0.002823359798640013,0.04438886046409607,0.02905928157269955,-0.02401983737945557,0.01137689501047134,0.006387829780578613,2,0.656930200963238,0.02155996719823854,-0.7535167976191001,-0.01379456150208613,0.9894210696220398,0.05061572417616844,-0.1359557509422302,43.26831817626953,-8.2137451171875,-35.7567138671875,2,8329.60111625,4,2,1580904613.842283,1580903939.50652,226,0.6966805,0,0,212.7492,1,0,1580904562.426208,8327.546254000001,0,5.250275,97.14213
1580904614.317597,157,0,1580904337.000819,41.20701635159924,29.07533761282497,172.748,-1,-1,5.74967098236084,48.00724964208526,-9999,8330.073268875001,0.9709930419921875,0.0608062744140625,-0.1217803955078125,8330.068232875001,-3.134003058455717,1.434667134648737,-0.05034598360251686,0.0001354124397039413,0.0418681800365448,0.03010270558297634,-0.01960623264312744,0.01302605867385864,0.01132476329803467,2,0.657092711596318,0.02146107035337071,-0.7533798472656857,-0.01368759792804598,0.9894933104515076,0.05032471567392349,-0.135537177324295,43.153564453125,-8.194129943847656,-35.5908203125,2,8329.60111625,4,2,1580904613.842283,1580903939.50652,226,0.6966805,0,0,212.7492,1,0,1580904562.426208,8327.546254000001,0,5.250275,97.14213
1580904614.318863,158,0,1580904337.000819,41.20701635159924,29.07533761282497,172.748,-1,-1,5.74967098236084,48.00724964208526,-9999,8330.083308875001,0.9738616943359375,0.058349609375,-0.123077392578125,8330.078273875,-3.133966913657321,1.435082491291806,-0.05009640599025671,-0.0009571844711899757,0.0402086041867733,0.02530160546302795,-0.01894241571426392,0.0107119083404541,0.01302099227905273,2,0.6572511895329439,0.02137612452554633,-0.7532456493602104,-0.01359640669554853,0.989561915397644,0.05007545277476311,-0.1351278722286224,43.153564453125,-8.194129943847656,-35.5908203125,2,8329.60111625,4,2,1580904613.842283,1580903939.50652,226,0.6966805,0,0,212.7492,1,0,1580904562.426208,8327.546254000001,0,5.250275,97.14213
1580904614.321474,159,0,1580904337.000819,41.20701635159924,29.07533761282497,172.748,-1,-1,5.74967098236084,48.00724964208526,-9999,8330.093348875,0.9771881103515625,0.05853271484375,-0.1244354248046875,8330.088313875001,-3.133973442325595,1.435519504872718,-0.0499013570684388,0.004232251085340977,0.04286031797528267,0.01892626285552979,-0.01614230871200562,0.008450143039226532,0.01129275560379028,2,0.6574177183555555,0.02129757329657585,-0.7531035280089983,-0.0135394085842883,0.9896305203437805,0.04988064989447594,-0.1346967071294785,43.31688690185547,-8.202472686767578,-35.4542236328125,2,8329.60111625,4,2,1580904613.842283,1580903939.50652,226,0.6966805,0,0,212.7492,1,0,1580904562.426208,8327.546254000001,0,5.250275,97.14213
1580904614.330949,160,0,1580904337.000819,41.20701635159924,29.07533761282497,172.748,-1,-1,5.74967098236084,48.00724964208526,-9999,8330.103389875001,0.97589111328125,0.05731201171875,-0.124481201171875,8330.098353875001,-3.133988380770809,1.436004617726571,-0.04978121071354979,0.003630316816270351,0.04826311767101288,0.01193134114146233,-0.01288729906082153,0.008753277361392975,0.009455204010009766,2,0.6576016748722462,0.02124415279761013,-0.7529450799283274,-0.01351067997996465,0.9897018671035767,0.04976065084338188,-0.1342174410820007,43.31688690185547,-8.202472686767578,-35.4542236328125,2,8329.60111625,4,2,1580904613.842283,1580903939.50652,226,0.6966805,0,0,212.7492,1,0,1580904562.426208,8327.546254000001,0,5.250275,97.14213
