loggingTime,loggingSample,identifierForVendor,locationTimestamp_since1970,locationLatitude,locationLongitude,locationAltitude,locationSpeed,locationCourse,locationVerticalAccuracy,locationHorizontalAccuracy,locationFloor,accelerometerTimestamp_sinceReboot,accelerometerAccelerationX,accelerometerAccelerationY,accelerometerAccelerationZ,motionTimestamp_sinceReboot,motionYaw,motionRoll,motionPitch,motionRotationRateX,motionRotationRateY,motionRotationRateZ,motionUserAccelerationX,motionUserAccelerationY,motionUserAccelerationZ,motionAttitudeReferenceFrame,motionQuaternionX,motionQuaternionY,motionQuaternionZ,motionQuaternionW,motionGravityX,motionGravityY,motionGravityZ,motionMagneticFieldX,motionMagneticFieldY,motionMagneticFieldZ,motionMagneticFieldCalibrationAccuracy,activityTimestamp_sinceReboot,activity,activityActivityConfidence,activityActivityStartDate,pedometerStartDate,pedometerNumberofSteps,pedometerAverageActivePace,pedometerCurrentPace,pedometerCurrentCadence,pedometerDistance,pedometerFloorAscended,pedometerFloorDescended,pedometerEndDate,altimeterTimestamp_sinceReboot,altimeterReset,altimeterRelativeAltitude,altimeterPressure
1582558694.090711,1,0,1582558692.390621,41.20727192505439,29.07464898640434,167.7532,0.2011898,-1,3,24,-9999,105783.8842840417,0.96875,0.1400604248046875,-0.15838623046875,105783.8782410417,0.2053268522978555,1.396365202145805,-0.1447458613913149,0.004925250541418791,-0.1067439392209053,-0.01123394444584846,0.002193152904510498,-0.00267145037651062,0.02813905477523804,2,-0.1208049385951875,0.6320914735487502,0.03205991703177085,0.7647475175207369,0.9745267629623413,0.1442409604787827,-0.1717330664396286,28.16809844970703,4.848365783691406,-36.07135009765625,2,105783.6366030417,1,2,1582558693.808677,0,0,0,0,0,0,0,0,0,105781.095807,0,-0.4069214,99.36906
1582558694.092249,2,0,1582558692.390621,41.20727192505439,29.07464898640434,167.7532,0.2011898,-1,3,24,-9999,105783.8943240417,0.95416259765625,0.135650634765625,-0.16729736328125,105783.8882810417,0.2052550430618987,1.39527678962993,-0.1448790978755126,0.003514227690175176,-0.1110049933195114,-0.01435923762619495,-0.007610142230987549,-0.005504116415977478,0.01119089126586914,2,-0.1208151350754806,0.6316712436413999,0.03205534284951134,0.7650931803340035,0.9743202328681946,0.1443727910518646,-0.1727902889251709,28.16809844970703,4.848365783691406,-36.07135009765625,2,105783.6366030417,1,2,1582558693.808677,0,0,0,0,0,0,0,0,0,105781.095807,0,-0.4069214,99.36906
1582558694.092815,3,0,1582558692.390621,41.20727192505439,29.07464898640434,167.7532,0.2011898,-1,3,24,-9999,105783.9043640417,0.9408721923828125,0.1363525390625,-0.1749420166015625,105783.8983220417,0.2052262681831988,1.394409796901599,-0.1450400203665646,-9.941551979864016e-05,-0.08615317195653915,-0.01651346869766712,-0.02380979061126709,-0.00906604528427124,0.005012452602386475,2,-0.1208529561402879,0.6313312311487732,0.03204499038474768,0.7653682721365869,0.9741472601890564,0.1445320248603821,-0.173630878329277,28.21186065673828,4.793479919433594,-36.36895751953125,2,105783.6366030417,1,2,1582558693.808677,0,0,0,0,0,0,0,0,0,105781.095807,0,-0.4069214,99.36906
1582558694.09328,4,0,1582558692.390621,41.20727192505439,29.07464898640434,167.7532,0.2011898,-1,3,24,-9999,105783.9144040417,0.945556640625,0.13568115234375,-0.1729583740234375,105783.9083620417,0.2052444048681998,1.393805928463628,-0.1452267762266758,-0.004809066653251648,-0.0601920410990715,-0.01804159581661224,-0.03352010250091553,-0.008350580930709839,-0.001255273818969727,2,-0.1209195897490276,0.6310873744162167,0.03202842965853746,0.7655595671172947,0.9740157127380371,0.1447168290615082,-0.1742143630981445,28.21186065673828,4.793479919433594,-36.36895751953125,2,105783.6366030417,1,2,1582558693.808677,0,0,0,0,0,0,0,0,0,105781.095807,0,-0.4069214,99.36906
1582558694.096591,5,0,1582558692.390621,41.20727192505439,29.07464898640434,167.7532,0.2011898,-1,3,24,-9999,105783.9244450417,0.952056884765625,0.141265869140625,-0.16558837890625,105783.9184020417,0.2053060429485893,1.39327270273454,-0.145385099085807,-0.008822983130812645,-0.05575921013951302,-0.01376003213226795,-0.0264618992805481,-0.008797198534011841,0.003211855888366699,2,-0.1209903653433208,0.6308696531995497,0.03203341293444356,0.7657274713501875,0.9738999009132385,0.1448734700679779,-0.1747296303510666,28.10295867919922,4.992691040039062,-36.41229248046875,2,105783.6366030417,1,2,1582558693.808677,0,0,0,0,0,0,0,0,0,105781.095807,0,-0.4069214,99.36906
1582558694.104054,6,0,1582558692.390621,41.20727192505439,29.07464898640434,167.7532,0.2011898,-1,3,24,-9999,105783.9344850417,0.951751708984375,0.14459228515625,-0.1652984619140625,105783.9284430417,0.2053512448310806,1.392748353553005,-0.1455062545771736,-0.006534983869642019,-0.05377238243818283,-0.01120800897479057,-0.02154642343521118,-0.002416834235191345,0.01015865802764893,2,-0.1210420227287597,0.6306585771651628,0.03204355250449459,0.7658928335242422,0.9737910032272339,0.1449933499097824,-0.1752371788024902,28.10295867919922,4.992691040039062,-36.41229248046875,2,105783.6366030417,1,2,1582558693.808677,0,0,0,0,0,0,0,0,0,105781.095807,0,-0.4069214,99.36906
1582558694.114176,7,0,1582558692.390621,41.20727192505439,29.07464898640434,167.7532,0.2011898,-1,3,24,-9999,105783.9445250417,0.9555511474609375,0.148040771484375,-0.160858154296875,105783.9384830417,0.2053380139300749,1.392143563052932,-0.1455829425268956,0.001350103411823511,-0.06454194337129593,-0.007426852360367775,-0.02147519588470459,2.498924732208252e-05,0.0111880898475647,2,-0.1210571588671362,0.6304229571683309,0.0320504776911194,0.7660841613386461,0.973673939704895,0.1450692266225815,-0.1758241206407547,28.06307220458984,4.845100402832031,-36.10577392578125,2,105783.6366030417,1,2,1582558693.808677,0,0,0,0,0,0,0,0,0,105781.095807,0,-0.4069214,99.36906
1582558694.12406,8,0,1582558692.390621,41.20727192505439,29.07464898640434,167.7532,0.2011898,-1,3,24,-9999,105783.9545660417,0.9597930908203125,0.1415863037109375,-0.1683349609375,105783.9485230417,0.2052794013502264,1.391579470609579,-0.1456545243322751,0.005104975309222937,-0.05458259209990501,-0.00940640177577734,-0.01806962490081787,0.002471864223480225,0.01472616195678711,2,-0.1210567340038177,0.6302059440206623,0.03203919538811862,0.7662631851227318,0.9735643267631531,0.1451400518417358,-0.1763714700937271,28.06307220458984,4.845100402832031,-36.10577392578125,2,105783.6366030417,1,2,1582558693.808677,0,0,0,0,0,0,0,0,0,105781.095807,0,-0.4069214,99.36906
1582558694.138752,9,0,1582558692.390621,41.20727192505439,29.07464898640434,167.7532,0.2011898,-1,3,24,-9999,105783.9646060417,0.9637603759765625,0.1396331787109375,-0.16650390625,105783.9585940417,0.2052168925572085,1.390967900408684,-0.1457782645950868,0.00467647286131978,-0.06702753901481628,-0.01492047682404518,-0.0116117000579834,-0.004822224378585815,0.008512616157531738,2,-0.1210740782550353,0.6299676665245177,0.0320125673455731,0.7664574063330142,0.973438560962677,0.1452624797821045,-0.1769636124372482,28.01084136962891,4.882736206054688,-36.20135498046875,2,105783.6366030417,1,2,1582558693.808677,0,0,0,0,0,0,0,0,0,105781.095807,0,-0.4069214,99.36906
1582558694.146716,10,0,1582558692.390621,41.20727192505439,29.07464898640434,167.7532,0.2011898,-1,3,24,-9999,105783.9746460417,0.956146240234375,0.1403961181640625,-0.1696014404296875,105783.9686340417,0.2051825324786681,1.390357152973351,-0.1459157811427588,0.001259637298062444,-0.06125541031360626,-0.01510316971689463,-0.01065993309020996,-0.005583882331848145,0.01069045066833496,2,-0.1211055238825485,0.6297270697771553,0.03199228648754118,0.7666510640509242,0.9733107686042786,0.1453985422849655,-0.1775545328855515,28.01084136962891,4.882736206054688,-36.20135498046875,2,105783.6366030417,1,2,1582558693.808677,0,0,0,0,0,0,0,0,0,105781.095807,0,-0.4069214,99.36906
1582558694.15421,11,0,1582558692.390621,41.20727192505439,29.07464898640434,167.7532,0.2011898,-1,3,24,-9999,105783.9846860417,0.9520416259765625,0.1440582275390625,-0.16943359375,105783.9786750417,0.2051565099030747,1.389745477112362,-0.1460209108137473,0.001216760487295687,-0.06011504307389259,-0.01180031709372997,-0.01786035299301147,-0.004650339484214783,0.008215785026550293,2,-0.1211273667236017,0.6294875901500124,0.03198564398963504,0.7668443905337109,0.973186731338501,0.1455025523900986,-0.1781470626592636,28.00437164306641,5.032508850097656,-36.32305908203125,2,105783.6366030417,1,2,1582558693.808677,0,0,0,0,0,0,0,0,0,105781.095807,0,-0.4069214,99.36906
1582558694.164407,12,0,1582558692.390621,41.20727192505439,29.07464898640434,167.7532,0.2011898,-1,3,24,-9999,105783.9947270417,0.94842529296875,0.1409454345703125,-0.1729278564453125,105783.9887150417,0.2051271382001884,1.389171078274169,-0.1460844507583306,0.003109181998297572,-0.05612549185752869,-0.006841432303190231,-0.02211284637451172,-0.001463085412979126,0.008940935134887695,2,-0.121132993294626,0.6292651340220369,0.03198881264608978,0.7670259723053375,0.9730752110481262,0.1455654203891754,-0.1787043809890747,28.00437164306641,5.032508850097656,-36.32305908203125,2,105783.6366030417,1,2,1582558693.808677,0,0,0,0,0,0,0,0,0,105781.095807,0,-0.4069214,99.36906
1582558694.174313,13,0,1582558692.390621,41.20727192505439,29.07464898640434,167.7532,0.2011898,-1,3,24,-9999,105784.0047670417,0.947113037109375,0.140228271484375,-0.174530029296875,105783.9987550417,0.2051319121303528,1.38870283654939,-0.1461311624498747,-0.001802485901862383,-0.04735756665468216,-0.004648851696401834,-0.02486050128936768,-0.005308747291564941,0.005458533763885498,2,-0.1211446989031712,0.6290823341893176,0.03200404055745894,0.7671734038429725,0.9729847311973572,0.1456116288900375,-0.1791587620973587,27.93836212158203,4.913154602050781,-36.371826171875,2,105783.6366030417,1,2,1582558693.808677,0,0,0,0,0,0,0,0,0,105781.095807,0,-0.4069214,99.36906
1582558694.184418,14,0,1582558692.390621,41.20727192505439,29.07464898640434,167.7532,0.2011898,-1,3,24,-9999,105784.0148070417,0.9513092041015625,0.1413421630859375,-0.172271728515625,105784.0087950417,0.2051375275202895,1.388367544058281,-0.146188334425979,-0.00247194548137486,-0.03415815159678459,-0.005779789760708809,-0.02567720413208008,-0.005090638995170593,0.005127191543579102,2,-0.1211627552591827,0.6289497981828279,0.032008197594598,0.7672790610517174,0.9729164242744446,0.1456681936979294,-0.1794834733009338,27.93836212158203,4.913154602050781,-36.371826171875,2,105783.6366030417,1,2,1582558693.808677,0,0,0,0,0,0,0,0,0,105781.095807,0,-0.4069214,99.36906
1582558694.197875,15,0,1582558692.390621,41.20727192505439,29.07464898640434,167.7532,0.2011898,-1,3,24,-9999,105784.0248480417,0.956207275390625,0.1415557861328125,-0.1710968017578125,105784.0188360417,0.2051282113774548,1.388077547063155,-0.1462664698469426,-1.810902358556632e-05,-0.02958870120346546,-0.007492735050618649,-0.02015137672424316,-0.004282936453819275,0.008077561855316162,2,-0.1211847862766004,0.6288342175592072,0.03199717656851581,0.7673707962330362,0.9728531837463379,0.1457454860210419,-0.1797635555267334,28.04686737060547,4.949180603027344,-36.37677001953125,2,105783.6366030417,1,2,1582558693.808677,0,0,0,0,0,0,0,0,0,105781.095807,0,-0.4069214,99.36906
1582558694.204465,16,0,1582558692.390621,41.20727192505439,29.07464898640434,167.7532,0.2011898,-1,3,24,-9999,105784.0348880417,0.953765869140625,0.1415557861328125,-0.1722869873046875,105784.0288760417,0.2051251904611404,1.387796885159702,-0.146354771477291,-0.001382566173560917,-0.02973842062056065,-0.008279862813651562,-0.01642602682113647,-0.00464494526386261,0.008638143539428711,2,-0.1212128076289116,0.6287211904995993,0.03198475575135946,0.7674594877568386,0.972790002822876,0.1458328515291214,-0.1800342351198196,28.04686737060547,4.949180603027344,-36.37677001953125,2,105783.6366030417,1,2,1582558693.808677,0,0,0,0,0,0,0,0,0,105781.095807,0,-0.4069214,99.36906
1582558694.214671,17,0,1582558692.390621,41.20727192505439,29.07464898640434,167.7532,0.2011898,-1,3,24,-9999,105784.0449280417,0.9490966796875,0.143463134765625,-0.1736602783203125,105784.0389160417,0.2051205459439122,1.387576182054377,-0.1464127733026141,-0.001216118573211133,-0.02265121601521969,-0.007102745585143566,-0.02025365829467773,-0.003985121846199036,0.007722318172454834,2,-0.1212297848242698,0.6286331437902247,0.03197779252976377,0.767529338365608,0.9727420806884766,0.1458902359008789,-0.18024742603302,28.01526641845703,4.923774719238281,-36.36810302734375,2,105783.6366030417,1,2,1582558693.808677,0,0,0,0,0,0,0,0,0,105781.095807,0,-0.4069214,99.36906
1582558694.224571,18,0,1582558692.390621,41.20727192505439,29.07464898640434,167.7532,0.2011898,-1,3,24,-9999,105784.0549680417,0.9464111328125,0.1432342529296875,-0.174224853515625,105784.0489560417,0.2051207557037441,1.387417752775778,-0.1464445338456691,-0.0005531535716727376,-0.01896488480269909,-0.003631242783740163,-0.02427935600280762,-0.00215497612953186,0.006624400615692139,2,-0.1212393531063677,0.6285703431335465,0.03197731218135089,0.7675792910562924,0.9727090001106262,0.1459216475486755,-0.1804006844758987,28.01526641845703,4.923774719238281,-36.36810302734375,2,105783.6366030417,1,2,1582558693.808677,0,0,0,0,0,0,0,0,0,105781.095807,0,-0.4069214,99.36906
1582558694.235133,19,0,1582558692.390621,41.20727192505439,29.07464898640434,167.7532,0.2011898,-1,3,24,-9999,105784.0650090417,0.9410247802734375,0.139495849609375,-0.1788482666015625,105784.0589970417,0.2051299650066237,1.38740703801903,-0.146473495334858,-0.0009952383115887642,-0.003192046657204628,-0.00296891457401216,-0.02715712785720825,-0.003633216023445129,0.005535423755645752,2,-0.1212530569769889,0.6285638645259466,0.03197222468164349,0.7675826057771392,0.9727028608322144,0.1459503024816513,-0.1804103255271912,28.03269195556641,4.968902587890625,-36.453125,2,105783.6366030417,1,2,1582558693.808677,0,0,0,0,0,0,0,0,0,105781.095807,0,-0.4069214,99.36906
1582558694.246709,20,0,1582558692.390621,41.20727192505439,29.07464898640434,167.7532,0.2011898,-1,3,24,-9999,105784.0750490417,0.943817138671875,0.1421051025390625,-0.1767730712890625,105784.0690370417,0.2051415216208228,1.387596594732255,-0.1465058510946698,-0.0009518596925772727,0.01919862255454063,-0.002648456487804651,-0.03245097398757935,-0.006366029381752014,0.001108229160308838,2,-0.1212719781921693,0.6286338863726332,0.03195481264217306,0.7675230204395408,0.9727324247360229,0.1459823101758957,-0.1802250891923904,28.03269195556641,4.968902587890625,-36.453125,2,105783.6366030417,1,2,1582558693.808677,0,0,0,0,0,0,0,0,0,105781.095807,0,-0.4069214,99.36906
1582558694.26478,21,0,1582558692.390621,41.20727192505439,29.07464898640434,167.7532,0.2011898,-1,3,24,-9999,105784.0850890417,0.9529876708984375,0.142547607421875,-0.172882080078125,105784.0790770417,0.2051615848014037,1.387863706545585,-0.1465203490912481,-0.002980655757710338,0.0266868993639946,-0.0007914341986179352,-0.0269123911857605,-0.003588065505027771,0.003975808620452881,2,-0.1212880593015646,0.6287342728121535,0.03194166523112835,0.7674386783681028,0.9727782607078552,0.1459966599941254,-0.1799648404121399,28.05152130126953,5.10626220703125,-36.3267822265625,2,105783.6366030417,1,2,1582558693.808677,0,0,0,0,0,0,0,0,0,105781.095807,0,-0.4069214,99.36906
1582558694.265609,22,0,1582558692.390621,41.20727192505439,29.07464898640434,167.7532,0.2011898,-1,3,24,-9999,105784.0951300417,0.95526123046875,0.1422882080078125,-0.171356201171875,105784.0891180417,0.2051820179182451,1.388158789468913,-0.146520286280393,-0.002732174703851342,0.02875544130802155,-0.0005199662409722805,-0.0185883641242981,-0.003801628947257996,0.0073203444480896,2,-0.1212991740564044,0.6288462611851103,0.03193162814335624,0.7673455561207863,0.9728313088417053,0.1459966003894806,-0.1796777844429016,28.05152130126953,5.10626220703125,-36.3267822265625,2,105783.6366030417,1,2,1582558693.808677,0,0,0,0,0,0,0,0,0,105781.095807,0,-0.4069214,99.36906
1582558694.274692,23,0,1582558692.390621,41.20727192505439,29.07464898640434,167.7532,0.2011898,-1,3,24,-9999,105784.1051700417,0.956085205078125,0.1429290771484375,-0.1706695556640625,105784.0991580417,0.2051907361674181,1.388475665994843,-0.1465052613217908,-0.0001819317840272561,0.03118690475821495,0.0003942972980439663,-0.01742660999298096,-0.003634124994277954,0.008065521717071533,2,-0.1213012652212132,0.6289682313184332,0.03192057510887557,0.7672458544348433,0.9728905558586121,0.1459817290306091,-0.1793699413537979,27.89537811279297,4.933830261230469,-36.34307861328125,2,105783.6366030417,1,2,1582558693.808677,0,0,0,0,0,0,0,0,0,105781.095807,0,-0.4069214,99.36906
1582558694.284646,24,0,1582558692.390621,41.20727192505439,29.07464898640434,167.7532,0.2011898,-1,3,24,-9999,105784.1152410417,0.955352783203125,0.1441802978515625,-0.1706390380859375,105784.1091980417,0.2052045321787879,1.38879043327058,-0.1464740529572081,-0.0008828837890177965,0.03033942356705666,0.003496521152555943,-0.01716703176498413,-0.002825051546096802,0.008477270603179932,2,-0.1212988104963466,0.6290900931127982,0.03191676915961207,0.7671464465050978,0.9729514122009277,0.1459508538246155,-0.1790645122528076,27.89537811279297,4.933830261230469,-36.34307861328125,2,105783.6366030417,1,2,1582558693.808677,0,0,0,0,0,0,0,0,0,105781.095807,0,-0.4069214,99.36906
1582558694.296547,25,0,1582558692.390621,41.20727192505439,29.07464898640434,167.7532,0.2011898,-1,3,24,-9999,105784.1252810417,0.96014404296875,0.14251708984375,-0.16998291015625,105784.1192380417,0.205221607677444,1.389084353743208,-0.1464376812881096,-0.0009286901913583279,0.03042491152882576,0.003439263440668583,-0.01704186201095581,-0.001797288656234741,0.008069992065429688,2,-0.1212951092005276,0.6292040726588513,0.03191713624646628,0.7670534264422916,0.9730090498924255,0.1459148675203323,-0.1787794679403305,28.06058502197266,4.880447387695312,-36.31256103515625,2,105783.6366030417,1,2,1582558693.808677,0,0,0,0,0,0,0,0,0,105781.095807,0,-0.4069214,99.36906
1582558694.306306,26,0,1582558692.390621,41.20727192505439,29.07464898640434,167.7532,0.2011898,-1,3,24,-9999,105784.1353210417,0.9588470458984375,0.14404296875,-0.168060302734375,105784.1292790417,0.205243659361994,1.389304353366897,-0.1463842098571147,-0.00208229897543788,0.02080347016453743,0.00582796847447753,-0.01234340667724609,-0.003422856330871582,0.008894979953765869,2,-0.121285302980053,0.6292904476350479,0.03192938570981126,0.7669836532378413,0.9730560779571533,0.1458619683980942,-0.1785668134689331,28.06058502197266,4.880447387695312,-36.31256103515625,2,105783.6366030417,1,2,1582558693.808677,0,0,0,0,0,0,0,0,0,105781.095807,0,-0.4069214,99.36906
1582558694.322474,27,0,1582558692.390621,41.20727192505439,29.07464898640434,167.7532,0.2011898,-1,3,24,-9999,105784.1453620417,0.95806884765625,0.142364501953125,-0.16949462890625,105784.1393190417,0.2052526669287297,1.389497901170204,-0.1463269098216329,0.0007350591477006674,0.01887880265712738,0.005425565410405397,-0.01479709148406982,-0.001504600048065186,0.01034080982208252,2,-0.1212695304714521,0.6293677058107382,0.031939462713778,0.766922322738511,0.9730988740921021,0.1458052843809128,-0.1783799827098846,27.94226837158203,4.717437744140625,-36.41143798828125,2,105783.6366030417,1,2,1582558693.808677,0,0,0,0,0,0,0,0,0,105781.095807,0,-0.4069214,99.36906
1582558694.324941,28,0,1582558692.390621,41.20727192505439,29.07464898640434,167.7532,0.2011898,-1,3,24,-9999,105784.1554020417,0.9560089111328125,0.1400146484375,-0.1713409423828125,105784.1493590417,0.2053035700235427,1.389677132091488,-0.1462726920893973,-0.004471759777516127,0.01756495796144009,0.006905692163854837,-0.01518768072128296,-0.004167020320892334,0.008031547069549561,2,-0.1212678884250495,0.6294367375113533,0.03196548515150117,0.7668648002284008,0.9731385111808777,0.1457516551017761,-0.1782069802284241,27.94226837158203,4.717437744140625,-36.41143798828125,2,105783.6366030417,1,2,1582558693.808677,0,0,0,0,0,0,0,0,0,105781.095807,0,-0.4069214,99.36906
1582558694.335044,29,0,1582558692.390621,41.20727192505439,29.07464898640434,167.7532,0.2011898,-1,3,24,-9999,105784.1654215417,0.9530029296875,0.140380859375,-0.1726226806640625,105784.1593795417,0.205358442657547,1.38992212807971,-0.1462505548137814,-0.005173236597329378,0.02479677088558674,0.003595916088670492,-0.01801156997680664,-0.005670994520187378,0.006389915943145752,2,-0.1212806956207775,0.6295287298460434,0.03197876210154123,0.7667866918167661,0.9731853008270264,0.1457297503948212,-0.1779691427946091,27.90079498291016,4.930046081542969,-36.32281494140625,2,105783.6366030417,1,2,1582558693.808677,0,0,0,0,0,0,0,0,0,105781.095807,0,-0.4069214,99.36906
1582558694.346093,30,0,1582558692.390621,41.20727192505439,29.07464898640434,167.7532,0.2011898,-1,3,24,-9999,105784.1754615417,0.95166015625,0.1416778564453125,-0.1711578369140625,105784.1694195417,0.2053960226598346,1.390244261433587,-0.1462399078092746,-0.00345035782083869,0.03070771507918835,0.001814840827137232,-0.0206032395362854,-0.005141615867614746,0.0051613450050354,2,-0.1212936328592704,0.6296506047297032,0.03197705403254406,0.7666847503069215,0.9732442498207092,0.1457192152738571,-0.1776559352874756,27.90079498291016,4.930046081542969,-36.32281494140625,2,105783.6366030417,1,2,1582558693.808677,0,0,0,0,0,0,0,0,0,105781.095807,0,-0.4069214,99.36906
1582558694.355093,31,0,1582558692.390621,41.20727192505439,29.07464898640434,167.7532,0.2011898,-1,3,24,-9999,105784.1855025417,0.956146240234375,0.1421051025390625,-0.1692657470703125,105784.1794595417,0.2054284967022827,1.390610358977102,-0.1462253922568708,-0.003036236157640815,0.03542151302099228,0.002210852224379778,-0.02114343643188477,-0.003647208213806152,0.006560027599334717,2,-0.1213042247515485,0.6297898780397887,0.03197194696942156,0.7665688121926323,0.9733112454414368,0.1457048505544662,-0.1772999912500381,28.10666656494141,4.820648193359375,-36.32403564453125,2,105783.6366030417,1,2,1582558693.808677,0,0,0,0,0,0,0,0,0,105781.095807,0,-0.4069214,99.36906
1582558694.366685,32,0,1582558692.390621,41.20727192505439,29.07464898640434,167.7532,0.2011898,-1,3,24,-9999,105784.1955425417,0.9597930908203125,0.1405029296875,-0.16845703125,105784.1894995417,0.2054635517095709,1.390965959303811,-0.1462159208120531,-0.003337252885103226,0.03523005172610283,0.001439761836081743,-0.01601982116699219,-0.003683611750602722,0.00807565450668335,2,-0.121317364486375,0.6299246302992206,0.03196685007565318,0.7664562144260916,0.9733755588531494,0.1456954777240753,-0.1769541203975677,28.10666656494141,4.820648193359375,-36.32403564453125,2,105783.6366030417,1,2,1582558693.808677,0,0,0,0,0,0,0,0,0,105781.095807,0,-0.4069214,99.36906
1582558694.384562,33,0,1582558692.390621,41.20727192505439,29.07464898640434,167.7532,0.2011898,-1,3,24,-9999,105784.2055825417,0.962127685546875,0.1424713134765625,-0.1668243408203125,105784.1995405417,0.205507348186248,1.391289054593395,-0.1462161189551239,-0.005171105731278658,0.03294399380683899,0.0001380089670419693,-0.01398640871047974,-0.005469083786010742,0.008051097393035889,2,-0.1213364008562086,0.6300457730851061,0.0319639682626671,0.7663537253931356,0.9734326601028442,0.145695686340332,-0.1766396015882492,28.24710845947266,4.925056457519531,-36.39788818359375,2,105783.6366030417,1,2,1582558693.808677,0,0,0,0,0,0,0,0,0,105781.095807,0,-0.4069214,99.36906
1582558694.385503,34,0,1582558692.390621,41.20727192505439,29.07464898640434,167.7532,0.2011898,-1,3,24,-9999,105784.2156235417,0.9688720703125,0.145843505859375,-0.16265869140625,105784.2096115417,0.205539043194931,1.391469675225455,-0.1461840523334606,-0.002300484338775277,0.01597459986805916,0.005023311823606491,-0.009262144565582275,-0.001866817474365234,0.01112622022628784,2,-0.1213371409591935,0.6301150631904894,0.03197544105997913,0.7662961545982648,0.9734691381454468,0.1456639617681503,-0.1764646172523499,28.24710845947266,4.925056457519531,-36.39788818359375,2,105783.6366030417,1,2,1582558693.808677,0,0,0,0,0,0,0,0,0,105781.095807,0,-0.4069214,99.36906
1582558694.396267,35,0,1582558692.390621,41.20727192505439,29.07464898640434,167.7532,0.2011898,-1,3,24,-9999,105784.2256635417,0.9665679931640625,0.14404296875,-0.1650238037109375,105784.2196515417,0.2055600514337873,1.391518282974027,-0.1461520360196451,-0.001958268228918314,0.002905135974287987,0.003703448921442032,-0.004774034023284912,-6.510317325592041e-05,0.01355165243148804,2,-0.1213324162028296,0.6301344103938255,0.03199081717038818,0.7662804189931948,0.9734823703765869,0.1456322818994522,-0.1764181405305862,28.21974945068359,4.8701171875,-36.36322021484375,2,105783.6366030417,1,2,1582558693.808677,0,0,0,0,0,0,0,0,0,105781.095807,0,-0.4069214,99.36906
1582558694.405293,36,0,1582558693.390613,41.20724942298013,29.0745838406987,169.6611,0.1496149,-1,64.20774841308594,24.00362482104263,-9999,105784.2357035417,0.9648284912109375,0.1423492431640625,-0.166168212890625,105784.2296915417,0.2055540048626539,1.391515051590905,-0.1461342602228819,0.001348070800304413,0.0004712510854005814,0.0005127438344061375,-0.0078582763671875,-0.00181753933429718,0.01103758811950684,2,-0.1213237388668955,0.6301346536521216,0.03199439651973952,0.7662814029110038,0.9734842777252197,0.1456146985292435,-0.176421731710434,28.21974945068359,4.8701171875,-36.36322021484375,2,105783.6366030417,1,2,1582558693.808677,0,0,0,0,0,0,0,0,0,105781.095807,0,-0.4069214,99.36906
1582558694.415346,37,0,1582558693.390613,41.20724942298013,29.0745838406987,169.6611,0.1496149,-1,64.20774841308594,24.00362482104263,-9999,105784.2457435417,0.967041015625,0.1416015625,-0.16461181640625,105784.2397315417,0.2055510799967034,1.391434063610107,-0.1461473984800115,0.0001081030204659328,-0.00850493460893631,-0.002243627794086933,-0.00816267728805542,-0.003539547324180603,0.0105971097946167,2,-0.1213264944529151,0.6301029801444991,0.03199397285184848,0.7663070133182661,0.9734681248664856,0.1456276923418045,-0.1765002310276031,27.91027069091797,4.887168884277344,-36.324462890625,2,105783.6366030417,1,2,1582558693.808677,0,0,0,0,0,0,0,0,0,105781.095807,0,-0.4069214,99.36906
1582558694.426338,38,0,1582558693.390613,41.20724942298013,29.0745838406987,169.6611,0.1496149,-1,64.20774841308594,24.00362482104263,-9999,105784.2557845417,0.9643402099609375,0.1425018310546875,-0.165771484375,105784.2497725417,0.2055317110057894,1.391262724820107,-0.1461856804212952,0.00250058900564909,-0.01659705117344856,-0.004599374253302813,-0.006631612777709961,-0.00400465726852417,0.01227355003356934,2,-0.1213321342445929,0.6300361080125649,0.03198466662786771,0.7663615107528755,0.9734323620796204,0.1456655710935593,-0.1766660362482071,27.91027069091797,4.887168884277344,-36.324462890625,2,105783.6366030417,1,2,1582558693.808677,0,0,0,0,0,0,0,0,0,105781.095807,0,-0.4069214,99.36906
1582558694.442592,39,0,1582558693.390613,41.20724942298013,29.0745838406987,169.6611,0.1496149,-1,64.20774841308594,24.00362482104263,-9999,105784.2658245417,0.959075927734375,0.1424407958984375,-0.16796875,105784.2598125417,0.2055179665337396,1.391043066020345,-0.1462526931798941,0.001254229573532939,-0.02109992504119873,-0.006669715512543917,-0.009848594665527344,-0.003155440092086792,0.01054775714874268,2,-0.1213496474769681,0.6299485758154189,0.03197123384381028,0.7664312737442488,0.9733839631080627,0.1457318663597107,-0.1768781095743179,28.26215362548828,4.781776428222656,-36.30279541015625,2,105783.6366030417,1,2,1582558693.808677,0,0,0,0,0,0,0,0,0,105781.095807,0,-0.4069214,99.36906
1582558694.445959,40,0,1582558693.390613,41.20724942298013,29.0745838406987,169.6611,0.1496149,-1,64.20774841308594,24.00362482104263,-9999,105784.2758645417,0.952301025390625,0.1411285400390625,-0.169647216796875,105784.2698525417,0.2055081206358517,1.390839705168701,-0.1463013639481989,6.547420343849808e-05,-0.02120297215878963,-0.004544508643448353,-0.01587867736816406,-0.003737643361091614,0.008669257164001465,2,-0.1213617099662795,0.6298681915423762,0.03196419353641936,0.7664957584750233,0.9733410477638245,0.145780012011528,-0.1770747900009155,28.26215362548828,4.781776428222656,-36.30279541015625,2,105783.6366030417,1,2,1582558693.808677,0,0,0,0,0,0,0,0,0,105781.095807,0,-0.4069214,99.36906
1582558694.455494,41,0,1582558693.390613,41.20724942298013,29.0745838406987,169.6611,0.1496149,-1,64.20774841308594,24.00362482104263,-9999,105784.2859045417,0.94793701171875,0.141876220703125,-0.171478271484375,105784.2798935417,0.2055147164435036,1.390715349386134,-0.1463171977847387,-0.00140592223033309,-0.01137750595808029,-0.001559903845191002,-0.02204948663711548,-0.004531502723693848,0.007172465324401855,2,-0.1213677885619575,0.6298191384145383,0.03196919202177228,0.766534923011649,0.9733167886734009,0.1457956731319427,-0.1771954298019409,28.19474029541016,4.599769592285156,-36.45556640625,2,105783.6366030417,1,2,1582558693.808677,0,0,0,0,0,0,0,0,0,105781.095807,0,-0.4069214,99.36906
1582558694.465542,42,0,1582558693.390613,41.20724942298013,29.0745838406987,169.6611,0.1496149,-1,64.20774841308594,24.00362482104263,-9999,105784.2959455417,0.9465484619140625,0.1449127197265625,-0.17144775390625,105784.2899335417,0.2055427229917748,1.390657151323885,-0.1462892715091073,-0.002201161114498973,-0.005800269544124603,0.003773927688598633,-0.02562898397445679,-0.003603622317314148,0.005352973937988281,2,-0.1213651060762924,0.6297968792543606,0.03199241384045196,0.7665526849066898,0.9733105301856995,0.1457680463790894,-0.1772527992725372,28.19474029541016,4.599769592285156,-36.45556640625,2,105783.6366030417,1,2,1582558693.808677,0,0,0,0,0,0,0,0,0,105781.095807,0,-0.4069214,99.36906
1582558694.475534,43,0,1582558693.390613,41.20724942298013,29.0745838406987,169.6611,0.1496149,-1,64.20774841308594,24.00362482104263,-9999,105784.3059855417,0.95062255859375,0.14508056640625,-0.16888427734375,105784.2999735417,0.2055606550318486,1.390657751689236,-0.1462032430096896,0.0001293710811296478,-0.000319482758641243,0.008424073457717896,-0.02652645111083984,-0.0004209578037261963,0.006285429000854492,2,-0.1213382035492634,0.6298014037719133,0.03202683540912075,0.7665517835545551,0.9733229279518127,0.1456829458475113,-0.1772544682025909,28.13361358642578,4.695411682128906,-36.35546875,2,105783.6366030417,1,2,1582558693.808677,0,0,0,0,0,0,0,0,0,105781.095807,0,-0.4069214,99.36906
1582558694.486407,44,0,1582558693.390613,41.20724942298013,29.0745838406987,169.6611,0.1496149,-1,64.20774841308594,24.00362482104263,-9999,105784.3160255417,0.951995849609375,0.1463165283203125,-0.167449951171875,105784.3100135417,0.2055751261010614,1.390638342643939,-0.1460420277711375,0.0009974234271794558,-0.005357822403311729,0.01497121527791023,-0.022014319896698,-0.0004141032695770264,0.009100675582885742,2,-0.1212814472918153,0.6298031786944835,0.03208524462559822,0.7665567404239382,0.9733424186706543,0.1455234438180923,-0.177277535200119,28.13361358642578,4.695411682128906,-36.35546875,2,105783.6366030417,1,2,1582558693.808677,0,0,0,0,0,0,0,0,0,105781.095807,0,-0.4069214,99.36906
1582558694.502554,45,0,1582558693.390613,41.20724942298013,29.0745838406987,169.6611,0.1496149,-1,64.20774841308594,24.00362482104263,-9999,105784.3260665417,0.9545440673828125,0.145751953125,-0.16839599609375,105784.3200545417,0.2055702065325239,1.390639099163576,-0.1457898898860895,0.004822255112230778,0.0008769053965806961,0.02366830036044121,-0.02148586511611938,0.001162916421890259,0.009305059909820557,2,-0.1211844647037875,0.6298195202606809,0.03216416947082231,0.7665554709745669,0.9733787775039673,0.1452739834785461,-0.1772833913564682,28.02289581298828,4.731544494628906,-36.32098388671875,2,105783.6366030417,1,2,1582558693.808677,0,0,0,0,0,0,0,0,0,105781.095807,0,-0.4069214,99.36906
1582558694.505705,46,0,1582558693.390613,41.20724942298013,29.0745838406987,169.6611,0.1496149,-1,64.20774841308594,24.00362482104263,-9999,105784.3361065417,0.9484710693359375,0.1380462646484375,-0.173431396484375,105784.3300945417,0.2055572961226424,1.390652151552931,-0.1455140741035585,0.008703546598553658,-0.002388929948210716,0.02689285576343536,-0.01855200529098511,0.0002608895301818848,0.009055435657501221,2,-0.1210762174585909,0.6298425367982577,0.03224686876859083,0.7665501661318742,0.9734204411506653,0.145001083612442,-0.1772778630256653,28.02289581298828,4.731544494628906,-36.32098388671875,2,105783.6366030417,1,2,1582558693.808677,0,0,0,0,0,0,0,0,0,105781.095807,0,-0.4069214,99.36906
1582558694.515761,47,0,1582558693.390613,41.20724942298013,29.0745838406987,169.6611,0.1496149,-1,64.20774841308594,24.00362482104263,-9999,105784.3461465417,0.9358367919921875,0.1331939697265625,-0.183197021484375,105784.3401345417,0.2055814652699033,1.390999545473813,-0.1453357196961436,0.001482118736021221,0.03544926643371582,0.01854624226689339,-0.02806901931762695,-0.008717954158782959,0.0005734562873840332,2,-0.1210219466521986,0.6299853555080284,0.03229229228404812,0.7664393351159691,0.973507285118103,0.1448246240615845,-0.1769442856311798,28.06073760986328,4.784622192382812,-36.4072265625,2,105783.6366030417,1,2,1582558693.808677,0,0,0,0,0,0,0,0,0,105781.095807,0,-0.4069214,99.36906
1582558694.525751,48,0,1582558693.390613,41.20724942298013,29.0745838406987,169.6611,0.1496149,-1,64.20774841308594,24.00362482104263,-9999,105784.3562175417,0.94189453125,0.132232666015625,-0.18084716796875,105784.3501755417,0.205629365267408,1.391735429302184,-0.1452698732543991,-0.004308031871914864,0.07283160090446472,0.009222615510225296,-0.03791290521621704,-0.01162822544574738,-0.006870150566101074,2,-0.1210239871772333,0.6302685200310201,0.03228724811443348,0.7662065269873588,0.9736467599868774,0.1447594612836838,-0.1762295812368393,28.06073760986328,4.784622192382812,-36.4072265625,2,105783.6366030417,1,2,1582558693.808677,0,0,0,0,0,0,0,0,0,105781.095807,0,-0.4069214,99.36906
1582558694.535911,49,0,1582558693.390613,41.20724942298013,29.0745838406987,169.6611,0.1496149,-1,64.20774841308594,24.00362482104263,-9999,105784.3662575417,0.9493865966796875,0.136688232421875,-0.1748504638671875,105784.3602155417,0.2056912343222347,1.392785264340273,-0.1453096471503581,-0.007067067082971334,0.1060329675674438,-0.003191976342350245,-0.03075224161148071,-0.01218637824058533,-0.00491797924041748,2,-0.1210754648801253,0.6306643982819633,0.03223464099224803,0.7658748268140925,0.9738256335258484,0.1447988152503967,-0.1752063035964966,28.12589263916016,4.665512084960938,-36.4022216796875,2,105783.6366030417,1,2,1582558693.808677,0,0,0,0,0,0,0,0,0,105781.095807,0,-0.4069214,99.36906
1582558694.546441,50,0,1582558693.390613,41.20724942298013,29.0745838406987,169.6611,0.1496149,-1,64.20774841308594,24.00362482104263,-9999,105784.3762985417,0.969085693359375,0.143798828125,-0.1616058349609375,105784.3702555417,0.2057599068838192,1.393847545577605,-0.1453786966144938,-0.009784023277461529,0.1068497598171234,-0.005445010494440794,-0.02096408605575562,-0.0068531334400177,0.001247406005859375,2,-0.1211403596475955,0.631062639093621,0.03217441873982699,0.7655387916104512,0.9740011096000671,0.1448671370744705,-0.1741699129343033,28.12589263916016,4.665512084960938,-36.4022216796875,2,105783.6366030417,1,2,1582558693.808677,0,0,0,0,0,0,0,0,0,105781.095807,0,-0.4069214,99.36906
1582558694.564717,51,0,1582558693.390613,41.20724942298013,29.0745838406987,169.6611,0.1496149,-1,64.20774841308594,24.00362482104263,-9999,105784.3863385417,0.9704437255859375,0.14837646484375,-0.1550750732421875,105784.3802955417,0.2057790750464359,1.394692894050264,-0.1454442155411518,-0.003432118101045489,0.08376041799783707,-0.00510625634342432,-0.003019988536834717,0.0004062503576278687,0.01441466808319092,2,-0.1211847538830028,0.6313809017308066,0.03210948976537333,0.7652720354772674,0.9741386771202087,0.144931972026825,-0.1733448207378387,28.35051727294922,4.555404663085938,-36.32281494140625,2,105783.6366030417,1,2,1582558693.808677,0,0,0,0,0,0,0,0,0,105781.095807,0,-0.4069214,99.36906
1582558694.565977,52,0,1582558693.390613,41.20724942298013,29.0745838406987,169.6611,0.1496149,-1,64.20774841308594,24.00362482104263,-9999,105784.3963785417,0.97607421875,0.1450958251953125,-0.156097412109375,105784.3903365417,0.2057448005129535,1.395332755766513,-0.1455181679115632,0.003942158073186874,0.06553164124488831,-0.007281444035470486,-0.003654301166534424,0.003415361046791077,0.01726841926574707,2,-0.1212121244553084,0.6316231572258935,0.0320338319151827,0.7650709920167749,0.9742388725280762,0.1450051367282867,-0.1727196127176285,28.35051727294922,4.555404663085938,-36.32281494140625,2,105783.6366030417,1,2,1582558693.808677,0,0,0,0,0,0,0,0,0,105781.095807,0,-0.4069214,99.36906
1582558694.575971,53,0,1582558693.390613,41.20724942298013,29.0745838406987,169.6611,0.1496149,-1,64.20774841308594,24.00362482104263,-9999,105784.4064185417,0.9699859619140625,0.1405029296875,-0.16046142578125,105784.4003765417,0.2057052981259538,1.395770700828291,-0.1456398894307054,0.00258474494330585,0.04192351549863815,-0.0124189481139183,0.00231480598449707,-0.0011301189661026,0.015877366065979,2,-0.1212526270395605,0.6317854610124969,0.03195303359558208,0.7649339363081321,0.974297046661377,0.1451255679130554,-0.1722898632287979,28.09786224365234,4.585899353027344,-36.26409912109375,2,105783.6366030417,1,2,1582558693.808677,0,0,0,0,0,0,0,0,0,105781.095807,0,-0.4069214,99.36906
1582558694.585997,54,0,1582558693.390613,41.20724942298013,29.0745838406987,169.6611,0.1496149,-1,64.20774841308594,24.00362482104263,-9999,105784.4164595417,0.9495086669921875,0.1381378173828125,-0.167877197265625,105784.4104165417,0.2056521342488688,1.396223776862437,-0.1457865073822751,0.00392447505146265,0.0444202795624733,-0.01454032864421606,-0.007294178009033203,-0.005456089973449707,0.009817004203796387,2,-0.1212984254635521,0.6319527933044374,0.03185806761831148,0.7647924017616254,0.9743540287017822,0.1452706456184387,-0.1718447208404541,28.09786224365234,4.585899353027344,-36.26409912109375,2,105783.6366030417,1,2,1582558693.808677,0,0,0,0,0,0,0,0,0,105781.095807,0,-0.4069214,99.36906
1582558694.596788,55,0,1582558693.390613,41.20724942298013,29.0745838406987,169.6611,0.1496149,-1,64.20774841308594,24.00362482104263,-9999,105784.4264995417,0.9330902099609375,0.1411895751953125,-0.17120361328125,105784.4204565417,0.2056189554689616,1.396881657389706,-0.1459078822618518,0.001510852365754545,0.06759244203567505,-0.01637471467256546,-0.02986592054367065,-0.006842657923698425,0.002382755279541016,2,-0.121344220669827,0.6321987531981802,0.03176642419905363,0.7645857026326967,0.9744495749473572,0.1453907191753387,-0.1712006330490112,28.49010467529297,4.668540954589844,-36.14923095703125,2,105783.6366030417,1,2,1582558693.808677,0,0,0,0,0,0,0,0,0,105781.095807,0,-0.4069214,99.36906
1582558694.606343,56,0,1582558693.390613,41.20724942298013,29.0745838406987,169.6611,0.1496149,-1,64.20774841308594,24.00362482104263,-9999,105784.4365395417,0.91937255859375,0.1473236083984375,-0.1704559326171875,105784.4304975417,0.2056144455900697,1.397820946629752,-0.1458300036628619,0.001839326112531126,0.09529060125350952,0.007291107438504696,-0.04357200860977173,-0.002813577651977539,-0.0009872913360595703,2,-0.1213283104767887,0.6325629059662915,0.03173278782150032,0.764288407216844,0.9746211767196655,0.1453136801719666,-0.1702872216701508,28.49010467529297,4.668540954589844,-36.14923095703125,2,105783.6366030417,1,2,1582558693.808677,0,0,0,0,0,0,0,0,0,105782.032279,0,-0.4650574,99.36976
1582558694.624741,57,0,1582558693.390613,41.20724942298013,29.0745838406987,169.6611,0.1496149,-1,64.20774841308594,24.00362482104263,-9999,105784.4465805417,0.926727294921875,0.1478271484375,-0.1687774658203125,105784.4405375417,0.2056168840444472,1.399093281271668,-0.1455402886474328,0.005101165734231472,0.1310153007507324,0.02882596105337143,-0.05681431293487549,0.002920493483543396,-0.001746952533721924,2,-0.1212399754026754,0.6330669372769708,0.03174989151194897,0.7638843539187442,0.9748785495758057,0.1450270265340805,-0.169054239988327,28.28343963623047,4.760528564453125,-36.17926025390625,2,105783.6366030417,1,2,1582558693.808677,0,0,0,0,0,0,0,0,0,105782.032279,0,-0.4650574,99.36976
1582558694.626265,58,0,1582558693.390613,41.20724942298013,29.0745838406987,169.6611,0.1496149,-1,64.20774841308594,24.00362482104263,-9999,105784.4566205417,0.937255859375,0.1442108154296875,-0.165252685546875,105784.4506085417,0.205626934830415,1.400592260194078,-0.1450707173410389,0.008268213830888271,0.1489785760641098,0.04623629525303841,-0.04543018341064453,0.002744242548942566,-3.856420516967773e-05,2,-0.1210899523052904,0.6336679826244879,0.03181429079359668,0.7634068557615228,0.9751977324485779,0.1445624083280563,-0.1676042228937149,28.28343963623047,4.760528564453125,-36.17926025390625,2,105783.6366030417,1,2,1582558693.808677,0,0,0,0,0,0,0,0,0,105782.032279,0,-0.4650574,99.36976
1582558694.63629,59,0,1582558693.390613,41.20724942298013,29.0745838406987,169.6611,0.1496149,-1,64.20774841308594,24.00362482104263,-9999,105784.4666605417,0.95501708984375,0.1448974609375,-0.156463623046875,105784.4606485417,0.2056669056420873,1.402210892800417,-0.1444565983588198,0.005209573078900576,0.1617936939001083,0.06195187196135521,-0.03617435693740845,-0.0006305873394012451,0.001815497875213623,2,-0.1208970348634126,0.6343214687559805,0.03192977331124505,0.7628896394630508,0.9755550026893616,0.1439547091722488,-0.1660403609275818,28.54366302490234,4.613693237304688,-36.04974365234375,2,105783.6366030417,1,2,1582558693.808677,0,0,0,0,0,0,0,0,0,105782.032279,0,-0.4650574,99.36976
1582558694.646335,60,0,1582558693.390613,41.20724942298013,29.0745838406987,169.6611,0.1496149,-1,64.20774841308594,24.00362482104263,-9999,105784.4767005417,0.980377197265625,0.1528167724609375,-0.141754150390625,105784.4706885417,0.2056767277742454,1.403581804925856,-0.1437435844976948,0.01021222770214081,0.1356741338968277,0.07112210243940353,-0.01588732004165649,0.003157362341880798,0.011374831199646,2,-0.1206535715988348,0.6348879994998556,0.03208101119152338,0.7624506304621536,0.975882887840271,0.1432490795850754,-0.164719894528389,28.54366302490234,4.613693237304688,-36.04974365234375,2,105783.6366030417,1,2,1582558693.808677,0,0,0,0,0,0,0,0,0,105782.032279,0,-0.4650574,99.36976
1582558694.656292,61,0,1582558693.390613,41.20724942298013,29.0745838406987,169.6611,0.1496149,-1,64.20774841308594,24.00362482104263,-9999,105784.4867415417,0.9959259033203125,0.141845703125,-0.14239501953125,105784.4807295417,0.205636160940009,1.404503298476875,-0.1429881285543064,0.01986192353069782,0.09169042855501175,0.07421217113733292,0.008330225944519043,0.01052741706371307,0.02366185188293457,2,-0.1203711611467324,0.6352885820676354,0.0322541507787296,0.7621541805801998,0.9761406183242798,0.1425013840198517,-0.1638384014368057,28.54396820068359,4.551788330078125,-35.96551513671875,2,105783.6366030417,1,2,1582558693.808677,0,0,0,0,0,0,0,0,0,105782.032279,0,-0.4650574,99.36976
1582558694.666451,62,0,1582558693.390613,41.20724942298013,29.0745838406987,169.6611,0.1496149,-1,64.20774841308594,24.00362482104263,-9999,105784.4967815417,1.000442504882812,0.1364593505859375,-0.142913818359375,105784.4907695417,0.2056364401927051,1.404908432106236,-0.1423019194649076,0.01006246637552977,0.03632405772805214,0.06851949542760849,0.02229732275009155,-0.003212898969650269,0.02044433355331421,2,-0.1201195678826873,0.6354854619576552,0.03245173605282364,0.7620213616326738,0.9763031601905823,0.1418221443891525,-0.1634590327739716,28.67978668212891,4.658103942871094,-35.9632568359375,2,105783.6366030417,1,2,1582558693.808677,0,0,0,0,0,0,0,0,0,105782.032279,0,-0.4650574,99.36976
1582558694.682628,63,0,1582558693.390613,41.20724942298013,29.0745838406987,169.6611,0.1496149,-1,64.20774841308594,24.00362482104263,-9999,105784.5068215417,0.98907470703125,0.1354522705078125,-0.1494903564453125,105784.5008095417,0.2055808026751409,1.404997578992381,-0.1417472944741232,0.01621356979012489,0.01105678454041481,0.05385452508926392,0.02209842205047607,-0.004037171602249146,0.01959186792373657,2,-0.1198946421932719,0.6355570820836459,0.03260450436148886,0.7619904595155024,0.9763950705528259,0.141273096203804,-0.1633849442005157,28.67978668212891,4.658103942871094,-35.9632568359375,2,105783.6366030417,1,2,1582558693.808677,0,0,0,0,0,0,0,0,0,105782.032279,0,-0.4650574,99.36976
1582558694.686943,64,0,1582558693.390613,41.20724942298013,29.0745838406987,169.6611,0.1496149,-1,64.20774841308594,24.00362482104263,-9999,105784.5168625417,0.97833251953125,0.1300811767578125,-0.154296875,105784.5108505417,0.2055613436917685,1.40491464561185,-0.1413192204876415,0.009913046844303608,-0.005245137959718704,0.04244081676006317,0.0100741982460022,-0.007077112793922424,0.01254177093505859,2,-0.1197260050771043,0.6355530918935407,0.03274046618165586,0.762014547192099,0.9764411449432373,0.140849307179451,-0.163475900888443,28.45107269287109,4.609916687011719,-36.12176513671875,2,105783.6366030417,1,2,1582558693.808677,0,0,0,0,0,0,0,0,0,105782.032279,0,-0.4650574,99.36976
1582558694.696513,65,0,1582558693.390613,41.20724942298013,29.0745838406987,169.6611,0.1496149,-1,64.20774841308594,24.00362482104263,-9999,105784.5269025417,0.966033935546875,0.13555908203125,-0.154693603515625,105784.5208905417,0.2056053295848242,1.404677009534454,-0.1409382155508737,0.001170155126601458,-0.02322972938418388,0.04062400758266449,-0.0002393722534179688,-0.01002630591392517,0.009181559085845947,2,-0.1195927000121536,0.635483434840465,0.03289461016676738,0.7620868532632764,0.97645503282547,0.1404720842838287,-0.1637167781591415,28.45107269287109,4.609916687011719,-36.12176513671875,2,105783.6366030417,1,2,1582558693.808677,0,0,0,0,0,0,0,0,0,105782.032279,0,-0.4650574,99.36976
1582558694.706491,66,0,1582558693.390613,41.20724942298013,29.0745838406987,169.6611,0.1496149,-1,64.20774841308594,24.00362482104263,-9999,105784.5369425417,0.9412384033203125,0.1395263671875,-0.15948486328125,105784.5309305417,0.2056800180753391,1.404464950117306,-0.140498960902422,-0.001366216572932899,-0.02276601456105709,0.04694617912173271,-0.01479178667068481,-0.003030106425285339,0.008925855159759521,2,-0.1194475923917693,0.6354252477663679,0.03307772970254661,0.7621502529190314,0.9764811396598816,0.1400371789932251,-0.163934051990509,28.43740081787109,4.512542724609375,-35.99456787109375,2,105783.6366030417,1,2,1582558693.808677,0,0,0,0,0,0,0,0,0,105782.032279,0,-0.4650574,99.36976
1582558694.716675,67,0,1582558693.390613,41.20724942298013,29.0745838406987,169.6611,0.1496149,-1,64.20774841308594,24.00362482104263,-9999,105784.5469825417,0.94012451171875,0.133209228515625,-0.16314697265625,105784.5409705417,0.2057801372551073,1.404460062128298,-0.1399850843495418,-0.001002961420454085,-0.0006247591227293015,0.0543455071747303,-0.03778058290481567,-0.0003697872161865234,0.00317460298538208,2,-0.1192858815571566,0.6354490664534507,0.03328226603696954,0.7621468370974347,0.9765511751174927,0.1395283490419388,-0.1639507263898849,28.43740081787109,4.512542724609375,-35.99456787109375,2,105783.6366030417,1,2,1582558693.808677,0,0,0,0,0,0,0,0,0,105782.032279,0,-0.4650574,99.36976
1582558694.742918,68,0,1582558693.390613,41.20724942298013,29.0745838406987,169.6611,0.1496149,-1,64.20774841308594,24.00362482104263,-9999,105784.5570235417,0.932586669921875,0.12921142578125,-0.166839599609375,105784.5510115417,0.2059385050138257,1.404717114056011,-0.1394187019658039,-0.005671437829732895,0.02244462817907333,0.06093285232782364,-0.03704619407653809,-0.007255256175994873,0.0001440048217773438,2,-0.1191273088880952,0.6355724402817431,0.03351035706633466,0.7620586791294945,0.9766709804534912,0.1389674842357635,-0.1637127101421356,28.73102569580078,4.319999694824219,-35.86993408203125,2,105783.6366030417,1,2,1582558693.808677,0,0,0,0,0,0,0,0,0,105782.032279,0,-0.4650574,99.36976
1582558694.746457,69,0,1582558693.390613,41.20724942298013,29.0745838406987,169.6611,0.1496149,-1,64.20774841308594,24.00362482104263,-9999,105784.5670635417,0.9201507568359375,0.132232666015625,-0.168121337890625,105784.5610515417,0.2061646005535573,1.405402198930164,-0.1388005681705361,-0.01269312761723995,0.06129002943634987,0.06688395142555237,-0.046764075756073,-0.00885559618473053,-0.004279971122741699,2,-0.1189780628052919,0.6358579887870511,0.03375556070148598,0.7618328941105821,0.9768673777580261,0.1383553147315979,-0.1630576699972153,28.73102569580078,4.319999694824219,-35.86993408203125,2,105783.6366030417,1,2,1582558693.808677,0,0,0,0,0,0,0,0,0,105782.032279,0,-0.4650574,99.36976
1582558694.747503,70,0,1582558693.390613,41.20724942298013,29.0745838406987,169.6611,0.1496149,-1,64.20774841308594,24.00362482104263,-9999,105784.5771035417,0.9174041748046875,0.131011962890625,-0.16790771484375,105784.5710915417,0.2063978892830745,1.406583225504285,-0.1381578116693166,-0.0117349261417985,0.111860416829586,0.0672878697514534,-0.0581212043762207,-0.005136683583259583,-0.006197333335876465,2,-0.1188304393932232,0.6363333566143858,0.03398211061237804,0.7614489035296308,0.9771468639373779,0.1377187073230743,-0.1619183719158173,28.64899444580078,4.548683166503906,-35.947509765625,2,105783.6366030417,1,2,1582558693.808677,0,0,0,0,0,0,0,0,0,105782.032279,0,-0.4650574,99.36976
1582558694.757151,71,0,1582558693.390613,41.20724942298013,29.0745838406987,169.6611,0.1496149,-1,64.20774841308594,24.00362482104263,-9999,105784.5871445417,0.9163360595703125,0.1263885498046875,-0.170623779296875,105784.5811325417,0.2066426717949327,1.408338606160107,-0.1375677443907938,-0.01389102078974247,0.17194664478302,0.06215382367372513,-0.06062018871307373,-0.007405593991279602,-0.008220195770263672,2,-0.1187164115426741,0.6370230988035344,0.03416205860441172,0.76088168589553,0.977509617805481,0.1371342390775681,-0.1602159738540649,28.64899444580078,4.548683166503906,-35.947509765625,2,105783.6366030417,1,2,1582558693.808677,0,0,0,0,0,0,0,0,0,105782.032279,0,-0.4650574,99.36976
1582558694.766869,72,0,1582558693.390613,41.20724942298013,29.0745838406987,169.6611,0.1496149,-1,64.20774841308594,24.00362482104263,-9999,105784.5972145417,0.9228057861328125,0.1292266845703125,-0.16656494140625,105784.5911725417,0.2069138658931068,1.410633969358581,-0.1369755566758414,-0.01692078076303005,0.2261751145124435,0.061916533857584,-0.06121790409088135,-0.0100080668926239,-0.01252663135528564,2,-0.1186196852585907,0.6379161438182076,0.03432093039595419,0.7601410321593558,0.9779547452926636,0.1365476250648499,-0.157984733581543,28.73900604248047,4.533065795898438,-35.82330322265625,2,105783.6366030417,1,2,1582558693.808677,0,0,0,0,0,0,0,0,0,105782.032279,0,-0.4650574,99.36976
1582558694.776829,73,0,1582558693.390613,41.20724942298013,29.0745838406987,169.6611,0.1496149,-1,64.20774841308594,24.00362482104263,-9999,105784.6072555417,0.9335479736328125,0.1318817138671875,-0.1573486328125,105784.6012125417,0.2072246037084723,1.413309525070832,-0.1363225979665903,-0.01918846182525158,0.2641824185848236,0.06768468022346497,-0.0528901219367981,-0.005912676453590393,-0.00962144136428833,2,-0.1185198692235579,0.6389540449719575,0.03449228585857715,0.7592766061603741,0.978461742401123,0.1359007507562637,-0.1553815454244614,28.73900604248047,4.533065795898438,-35.82330322265625,2,105783.6366030417,1,2,1582558693.808677,0,0,0,0,0,0,0,0,0,105782.032279,0,-0.4650574,99.36976
1582558694.800682,74,0,1582558693.390613,41.20724942298013,29.0745838406987,169.6611,0.1496149,-1,64.20774841308594,24.00362482104263,-9999,105784.6172955417,0.941131591796875,0.1376800537109375,-0.1489105224609375,105784.6112525417,0.2075507487294593,1.416259927161419,-0.1355869897001209,-0.02070050686597824,0.2931292057037354,0.07814548909664154,-0.04488235712051392,-0.002635583281517029,-0.0032920241355896,2,-0.1183994306083355,0.640099115968165,0.03468043665279867,0.7583219337510917,0.9790146946907043,0.1351719349622726,-0.1525093913078308,28.90274810791016,4.475944519042969,-35.582275390625,2,105783.6366030417,1,2,1582558693.808677,0,0,0,0,0,0,0,0,0,105782.032279,0,-0.4650574,99.36976
1582558694.803707,75,0,1582558693.390613,41.20724942298013,29.0745838406987,169.6611,0.1496149,-1,64.20774841308594,24.00362482104263,-9999,105784.6273355417,0.961090087890625,0.13348388671875,-0.1395263671875,105784.6212935417,0.2078319947653692,1.419257321703822,-0.1347817232583756,-0.01466152165085077,0.2948581278324127,0.08612512052059174,-0.03471541404724121,0.004036977887153625,0.002959668636322021,2,-0.1182401885080407,0.6412674636839214,0.03487191817440451,0.757350239338325,0.9795746803283691,0.1343740224838257,-0.1495905965566635,28.90274810791016,4.475944519042969,-35.582275390625,2,105783.6366030417,1,2,1582558693.808677,0,0,0,0,0,0,0,0,0,105782.032279,0,-0.4650574,99.36976
1582558694.807059,76,0,1582558693.390613,41.20724942298013,29.0745838406987,169.6611,0.1496149,-1,64.20774841308594,24.00362482104263,-9999,105784.6373755417,0.9820709228515625,0.129364013671875,-0.1327667236328125,105784.6313335417,0.2081130821899915,1.422128491995738,-0.1339945185048304,-0.01666827127337456,0.2846251726150513,0.08299314975738525,-0.01511901617050171,-0.002003610134124756,0.00806581974029541,2,-0.1180862705161351,0.6423854773507576,0.03506543823995995,0.7564171769164597,0.9801043272018433,0.1335939168930054,-0.1467930674552917,29.16440582275391,4.447639465332031,-35.5050048828125,2,105783.6366030417,1,2,1582558693.808677,0,0,0,0,0,0,0,0,0,105782.032279,0,-0.4650574,99.36976
1582558694.817092,77,0,1582558693.390613,41.20724942298013,29.0745838406987,169.6611,0.1496149,-1,64.20774841308594,24.00362482104263,-9999,105784.6474165417,0.9933929443359375,0.13134765625,-0.1250762939453125,105784.6413735417,0.2083351311184173,1.424710944932342,-0.1333171104192051,-0.01183782983571291,0.2579850256443024,0.06968080252408981,0.005442440509796143,-0.00296492874622345,0.01349729299545288,2,-0.1179500264733021,0.6433898224915019,0.03521829700172797,0.7555773267842368,0.9805695414543152,0.1329225450754166,-0.1442746520042419,29.16440582275391,4.447639465332031,-35.5050048828125,2,105783.6366030417,1,2,1582558693.808677,0,0,0,0,0,0,0,0,0,105782.032279,0,-0.4650574,99.36976
1582558694.827044,78,0,1582558693.390613,41.20724942298013,29.0745838406987,169.6611,0.1496149,-1,64.20774841308594,24.00362482104263,-9999,105784.6574565417,0.989715576171875,0.1269378662109375,-0.1255645751953125,105784.6514145417,0.2085081755573734,1.427004660724474,-0.1327541768424277,-0.009909855201840401,0.2292458415031433,0.05935296416282654,0.01225757598876953,-0.001720309257507324,0.01745349168777466,2,-0.1178361709318948,0.6442800038312533,0.03533259387479468,0.7548308398468483,0.9809717535972595,0.1323645859956741,-0.1420358270406723,29.44332122802734,4.368995666503906,-35.4293212890625,2,105783.6366030417,1,2,1582558693.808677,0,0,0,0,0,0,0,0,0,105782.032279,0,-0.4650574,99.36976
1582558694.837119,79,0,1582558693.390613,41.20724942298013,29.0745838406987,169.6611,0.1496149,-1,64.20774841308594,24.00362482104263,-9999,105784.6674965417,0.9809722900390625,0.129058837890625,-0.12640380859375,105784.6614545417,0.2086188359595291,1.429076386095949,-0.1323180007660139,-0.007733520120382309,0.2063727527856827,0.04393406212329865,0.007071375846862793,-0.005545154213905334,0.01422357559204102,2,-0.117745897936826,0.6450815641820415,0.03539519323430135,0.7541570868474822,0.9813209176063538,0.1319322288036346,-0.1400113552808762,29.44332122802734,4.368995666503906,-35.4293212890625,2,105783.6366030417,1,2,1582558693.808677,0,0,0,0,0,0,0,0,0,105782.032279,0,-0.4650574,99.36976
1582558694.847406,80,0,1582558693.390613,41.20724942298013,29.0745838406987,169.6611,0.1496149,-1,64.20774841308594,24.00362482104263,-9999,105784.6775375417,0.9700469970703125,0.1319732666015625,-0.1287689208984375,105784.6714945417,0.2086027804585226,1.431060060304572,-0.1319309415174572,0.006535423919558525,0.1991215348243713,0.03597228974103928,-0.003722488880157471,-0.000873759388923645,0.0119633674621582,2,-0.1176316737653548,0.6458537004100826,0.03539934241149211,0.7535136357731639,0.9816473126411438,0.1315485537052155,-0.1380715668201447,29.54782867431641,4.071121215820312,-35.19873046875,2,105783.6366030417,1,2,1582558693.808677,0,0,0,0,0,0,0,0,0,105782.032279,0,-0.4650574,99.36976
1582558694.870146,81,0,1582558693.390613,41.20724942298013,29.0745838406987,169.6611,0.1496149,-1,64.20774841308594,24.00362482104263,-9999,105784.6875775417,0.9606781005859375,0.130584716796875,-0.12799072265625,105784.6815345417,0.208550478357546,1.433065350012568,-0.1314447832292975,0.011256143450737,0.2027152180671692,0.04851550981402397,-0.01245307922363281,2.016127109527588e-05,0.006463110446929932,2,-0.1174693847253626,0.6466414466849937,0.03542138272982197,0.7528619800581443,0.9819853901863098,0.1310666054487228,-0.1361115723848343,29.54782867431641,4.071121215820312,-35.19873046875,2,105783.6366030417,1,2,1582558693.808677,0,0,0,0,0,0,0,0,0,105782.032279,0,-0.4650574,99.36976
1582558694.871435,82,0,1582558693.390613,41.20724942298013,29.0745838406987,169.6611,0.1496149,-1,64.20774841308594,24.00362482104263,-9999,105784.6976175417,0.948211669921875,0.129638671875,-0.1305999755859375,105784.6915755417,0.2084306201747887,1.435189592143229,-0.1308972224189974,0.02048087492585182,0.2150347828865051,0.05266568437218666,-0.02532327175140381,0.0009139776229858398,0.006797254085540771,2,-0.1172646627918258,0.64748089858278,0.03543159493287144,0.7521716241439818,0.9823432564735413,0.1305237412452698,-0.1340349763631821,29.77333831787109,3.908279418945312,-35.2938232421875,2,105783.6366030417,1,2,1582558693.808677,0,0,0,0,0,0,0,0,0,105782.032279,0,-0.4650574,99.36976
1582558694.879916,83,0,1582558693.390613,41.20724942298013,29.0745838406987,169.6611,0.1496149,-1,64.20774841308594,24.00362482104263,-9999,105784.7076575417,0.960723876953125,0.1208343505859375,-0.134552001953125,105784.7016455417,0.2082789397249135,1.437598341098772,-0.1303214520162625,0.02310781553387642,0.2436139583587646,0.0565701462328434,-0.03494948148727417,-0.00205521285533905,-0.0005034208297729492,2,-0.1170443284618974,0.6484299955280463,0.03542296389416145,0.751388394623379,0.98273766040802,0.1299528777599335,-0.1316783279180527,29.77333831787109,3.908279418945312,-35.2938232421875,2,105783.6366030417,1,2,1582558693.808677,0,0,0,0,0,0,0,0,0,105782.032279,0,-0.4650574,99.36976
1582558694.887256,84,0,1582558693.390613,41.20724942298013,29.0745838406987,169.6611,0.1496149,-1,64.20774841308594,24.00362482104263,-9999,105784.7176985417,0.9854736328125,0.1246337890625,-0.11627197265625,105784.7116865417,0.2081847343961337,1.440019722165168,-0.129719246720389,0.01574763096868992,0.2462049424648285,0.05914214998483658,-0.01655930280685425,-0.009102761745452881,-0.00351405143737793,2,-0.1168332176247206,0.6493810336906558,0.03544445781341034,0.7505984776137887,0.9831309914588928,0.1293557584285736,-0.1293085515499115,30.14939117431641,4.039962768554688,-34.94573974609375,2,105783.6366030417,1,2,1582558693.808677,0,0,0,0,0,0,0,0,0,105782.032279,0,-0.4650574,99.36976
1582558694.897506,85,0,1582558693.390613,41.20724942298013,29.0745838406987,169.6611,0.1496149,-1,64.20774841308594,24.00362482104263,-9999,105784.7277385417,1.006179809570312,0.1290130615234375,-0.096435546875,105784.7217265417,0.2081200787802259,1.441898840745526,-0.1291084848327175,0.01478995755314827,0.1915073543787003,0.05905745923519135,0.005963563919067383,-0.002515673637390137,0.01634621620178223,2,-0.1166191324078716,0.6501264999980413,0.03551203510125056,0.7499829801394111,0.9834504127502441,0.1287501007318497,-0.1274710297584534,30.14939117431641,4.039962768554688,-34.94573974609375,2,105783.6366030417,1,2,1582558693.808677,0,0,0,0,0,0,0,0,0,105782.032279,0,-0.4650574,99.36976
1582558694.922472,86,0,1582558693.390613,41.20724942298013,29.0745838406987,169.6611,0.1496149,-1,64.20774841308594,24.00362482104263,-9999,105784.7377785417,1.001693725585938,0.1298065185546875,-0.0930938720703125,105784.7317665417,0.208101063283912,1.442948018910932,-0.128503177133908,0.007043773308396339,0.1023411601781845,0.06008286774158478,0.0241706371307373,0.0005870610475540161,0.03177320957183838,2,-0.1164073503501666,0.650557300545085,0.03564365267219238,0.7496360059738284,0.9836606979370117,0.1281498074531555,-0.1264490485191345,30.12772369384766,4.129764556884766,-34.81201171875,2,105783.6366030417,1,2,1582558693.808677,0,0,0,0,0,0,0,0,0,105782.032279,0,-0.4650574,99.36976
1582558694.923278,87,0,1582558693.390613,41.20724942298013,29.0745838406987,169.6611,0.1496149,-1,64.20774841308594,24.00362482104263,-9999,105784.7478195417,0.99847412109375,0.129852294921875,-0.0947113037109375,105784.7418075417,0.2079892340401109,1.443307089406126,-0.1279340986471371,0.0183025524020195,0.03454479947686195,0.0561472475528717,0.01541650295257568,0.003196150064468384,0.03286343812942505,2,-0.1161665956749205,0.6507324897899082,0.03576883984762638,0.749515339558198,0.9837782382965088,0.1275853961706161,-0.1261050999164581,30.12772369384766,4.129764556884766,-34.81201171875,2,105783.6366030417,1,2,1582558693.808677,0,0,0,0,0,0,0,0,0,105782.032279,0,-0.4650574,99.36976
1582558694.929481,88,0,1582558693.390613,41.20724942298013,29.0745838406987,169.6611,0.1496149,-1,64.20774841308594,24.00362482104263,-9999,105784.7578595417,1.019744873046875,0.11566162109375,-0.08880615234375,105784.7518475417,0.2077565309833132,1.443070747446524,-0.127562423586606,0.02881735935807228,-0.0157941784709692,0.03552576899528503,0.0171695351600647,0.0006503760814666748,0.03151524066925049,2,-0.1159489903841056,0.6506796585493012,0.03581811390266631,0.7495925047406189,0.9837953448295593,0.1272167563438416,-0.126343622803688,30.30733489990234,4.204563140869141,-34.88934326171875,2,105783.6366030417,1,2,1582558693.808677,0,0,0,0,0,0,0,0,0,105782.032279,0,-0.4650574,99.36976
1582558694.937443,89,0,1582558693.390613,41.20724942298013,29.0745838406987,169.6611,0.1496149,-1,64.20774841308594,24.00362482104263,-9999,105784.7678995417,1.034103393554688,0.1105499267578125,-0.0787811279296875,105784.7618875417,0.2074761503105755,1.441867373813796,-0.1275140946324124,0.02818991988897324,-0.1169966906309128,0.001813344657421112,0.04176080226898193,-0.01391960680484772,0.0417330265045166,2,-0.1158183526356061,0.6502476548548856,0.03579868184694102,0.7499883630507027,0.9836486577987671,0.1271688193082809,-0.127528190612793,30.30733489990234,4.204563140869141,-34.88934326171875,2,105783.6366030417,1,2,1582558693.808677,0,0,0,0,0,0,0,0,0,105782.032279,0,-0.4650574,99.36976
1582558694.947567,90,0,1582558693.390613,41.20724942298013,29.0745838406987,169.6611,0.1496149,-1,64.20774841308594,24.00362482104263,-9999,105784.7779395417,1.007965087890625,0.117889404296875,-0.0934906005859375,105784.7719275417,0.2071553858857139,1.43977468637289,-0.1277699081223259,0.02652857266366482,-0.2079218626022339,-0.02975798957049847,0.04873037338256836,-0.01637056469917297,0.04984486103057861,2,-0.1157715692553101,0.6494658405461793,0.03571511487565064,0.7506767131854513,0.9833473563194275,0.1274225413799286,-0.1295821368694305,30.15766143798828,3.920818328857422,-35.1466064453125,2,105783.6366030417,1,2,1582558693.808677,0,0,0,0,0,0,0,0,0,105782.032279,0,-0.4650574,99.36976
1582558694.957554,91,0,1582558693.390613,41.20724942298013,29.0745838406987,169.6611,0.1496149,-1,64.20774841308594,24.00362482104263,-9999,105784.7879805417,0.9527130126953125,0.1266632080078125,-0.1274261474609375,105784.7819685417,0.2067195434915092,1.437461789698459,-0.1281349745500422,0.03977273777127266,-0.2274691760540009,-0.04320189356803894,0.01561629772186279,-0.007531598210334778,0.03274929523468018,2,-0.1157244138576728,0.6486007014388483,0.03556501972085283,0.7514387748789796,0.9829989075660706,0.1277846246957779,-0.1318499743938446,30.15766143798828,3.920818328857422,-35.1466064453125,2,105783.6366030417,1,2,1582558693.808677,0,0,0,0,0,0,0,0,0,105782.032279,0,-0.4650574,99.36976
1582558694.982603,92,0,1582558693.390613,41.20724942298013,29.0745838406987,169.6611,0.1496149,-1,64.20774841308594,24.00362482104263,-9999,105784.7980205417,0.8881072998046875,0.1276397705078125,-0.165557861328125,105784.7920085417,0.2062711445280348,1.435814233868088,-0.1283394284121279,0.03939820826053619,-0.1675698608160019,-0.02714209817349911,-0.04320597648620605,-0.0009442269802093506,-0.0009894967079162598,2,-0.1156257878887952,0.6479951910746194,0.03542448415765202,0.7519827500045495,0.9827543497085571,0.1279873996973038,-0.1334658116102219,30.11667633056641,3.967266082763672,-35.07568359375,2,105783.6366030417,1,2,1582558693.808677,0,0,0,0,0,0,0,0,0,105782.032279,0,-0.4650574,99.36976
1582558694.983458,93,0,1582558693.390613,41.20724942298013,29.0745838406987,169.6611,0.1496149,-1,64.20774841308594,24.00362482104263,-9999,105784.8080605417,0.858673095703125,0.119598388671875,-0.1910552978515625,105784.8020485417,0.2058748171315534,1.435863633558335,-0.1282662021847681,0.03896597772836685,0.01225928775966167,0.001354257110506296,-0.1058287620544434,-0.001329392194747925,-0.04084712266921997,2,-0.1154710374070531,0.6480410305194917,0.03529670265265286,0.7519729960602353,0.9827702045440674,0.1279147863388062,-0.1334185302257538,30.11667633056641,3.967266082763672,-35.07568359375,2,105783.6366030417,1,2,1582558693.808677,0,0,0,0,0,0,0,0,0,105782.032279,0,-0.4650574,99.36976
1582558694.987765,94,0,1582558693.390613,41.20724942298013,29.0745838406987,169.6611,0.1496149,-1,64.20774841308594,24.00362482104263,-9999,105784.8181015417,0.9134979248046875,0.1300506591796875,-0.1547393798828125,105784.8120895417,0.2055926619124382,1.437175809538016,-0.1278982797019193,0.03184306994080544,0.1333948969841003,0.03358405455946922,-0.1189432144165039,-0.00767834484577179,-0.05505472421646118,2,-0.115266009002957,0.6485724282718766,0.03523603840860639,0.7515490454157984,0.9829910397529602,0.12754987180233,-0.1321351081132889,30.07100677490234,3.944416046142578,-34.938232421875,2,105783.6366030417,1,2,1582558693.808677,0,0,0,0,0,0,0,0,0,105782.032279,0,-0.4650574,99.36976
1582558694.998167,95,0,1582558693.390613,41.20724942298013,29.0745838406987,169.6611,0.1496149,-1,64.20774841308594,24.00362482104263,-9999,105784.8281415417,0.964996337890625,0.127899169921875,-0.1352691650390625,105784.8221295417,0.205365582852552,1.438928610062567,-0.127422181885754,0.02916313149034977,0.1748717576265335,0.04741464927792549,-0.05734372138977051,0.005367159843444824,-0.01744788885116577,2,-0.1150464048339776,0.6492721895596532,0.03520664016317619,0.7509797175402152,0.9832813143730164,0.127077654004097,-0.1304198950529099,30.07100677490234,3.944416046142578,-34.938232421875,2,105783.6366030417,1,2,1582558693.808677,0,0,0,0,0,0,0,0,0,105782.032279,0,-0.4650574,99.36976
1582558695.007751,96,0,1582558693.390613,41.20724942298013,29.0745838406987,169.6611,0.1496149,-1,64.20774841308594,24.00362482104263,-9999,105784.8381815417,0.9873199462890625,0.1177520751953125,-0.123779296875,105784.8321695417,0.2052382992204798,1.44071758355819,-0.1270346091932383,0.01864157244563103,0.1758473366498947,0.03698926419019699,-0.01171046495437622,-0.001969367265701294,-0.004857540130615234,2,-0.1148927384474435,0.6499739682520564,0.03518381056581749,0.7503969907380695,0.9835617542266846,0.1266932040452957,-0.1286669969558716,30.09633636474609,3.996250152587891,-35.08428955078125,2,105783.6366030417,1,2,1582558693.808677,0,0,0,0,0,0,0,0,0,105782.032279,0,-0.4650574,99.36976
1582558695.017851,97,0,1582558693.390613,41.20724942298013,29.0745838406987,169.6611,0.1496149,-1,64.20774841308594,24.00362482104263,-9999,105784.8482525417,0.9917449951171875,0.117279052734375,-0.11370849609375,105784.8422095417,0.2052831301059082,1.442300421048063,-0.1267086427873425,1.888712722575292e-05,0.1554917246103287,0.03042536787688732,0.00536501407623291,-0.0090923011302948,0.005584120750427246,2,-0.1148143140047533,0.6505843708660329,0.03521730121143417,0.7498782488653599,0.9838050603866577,0.1263698637485504,-0.1271152943372726,30.09633636474609,3.996250152587891,-35.08428955078125,2,105783.6366030417,1,2,1582558693.808677,0,0,0,0,0,0,0,0,0,105782.032279,0,-0.4650574,99.36976
1582558695.044196,98,0,1582558693.390613,41.20724942298013,29.0745838406987,169.6611,0.1496149,-1,64.20774841308594,24.00362482104263,-9999,105784.8582925417,0.9903717041015625,0.1202392578125,-0.1094970703125,105784.8522505417,0.2054590369386477,1.443481367999323,-0.1264365116095595,-0.01228504534810781,0.1072826385498047,0.02607962302863598,0.007744908332824707,-0.008501902222633362,0.01382601261138916,2,-0.1147915328375672,0.6510330459215722,0.03530532872093199,0.7494881149384942,0.9839885830879211,0.1260999143123627,-0.1259577572345734,30.27878570556641,3.788982391357422,-35.08160400390625,2,105783.6366030417,1,2,1582558693.808677,0,0,0,0,0,0,0,0,0,105782.032279,0,-0.4650574,99.36976
1582558695.047474,99,0,1582558693.390613,41.20724942298013,29.0745838406987,169.6611,0.1496149,-1,64.20774841308594,24.00362482104263,-9999,105784.8683325417,0.997802734375,0.122222900390625,-0.1041412353515625,105784.8622905417,0.2057190002319222,1.444286619243673,-0.1262092467090293,-0.0215081050992012,0.07559102773666382,0.02517867647111416,0.006089448928833008,-0.004568561911582947,0.01595163345336914,2,-0.1148062328426164,0.6513332801962732,0.03543161238276566,0.7492190366081715,0.9841181039810181,0.1258744597434998,-0.1251689791679382,30.27878570556641,3.788982391357422,-35.08160400390625,2,105783.6366030417,1,2,1582558693.808677,0,0,0,0,0,0,0,0,0,105782.032279,0,-0.4650574,99.36976
1582558695.048911,100,0,1582558693.390613,41.20724942298013,29.0745838406987,169.6611,0.1496149,-1,64.20774841308594,24.00362482104263,-9999,105784.8783735417,1.013290405273438,0.12042236328125,-0.09228515625,105784.8723305417,0.2060282746810018,1.444429320013282,-0.1260832945955802,-0.02763355150818825,0.01152019761502743,0.01774055510759354,0.01728641986846924,-0.00386376678943634,0.02373254299163818,2,-0.1148628454638827,0.6513764327345405,0.03558090515122743,0.7491657891538656,0.9841517210006714,0.1257494986057281,-0.1250305324792862,30.24912261962891,3.975627899169922,-34.9715576171875,2,105783.6366030417,1,2,1582558693.808677,0,0,0,0,0,0,0,0,0,105782.032279,0,-0.4650574,99.36976
1582558695.057966,101,0,1582558693.390613,41.20724942298013,29.0745838406987,169.6611,0.1496149,-1,64.20774841308594,24.00362482104263,-9999,105784.8884135417,1.012771606445312,0.1207733154296875,-0.0940704345703125,105784.8823715417,0.2063743426311323,1.443777839404434,-0.1260852030748089,-0.03388106450438499,-0.06284032016992569,0.007360884454101324,0.03041446208953857,-0.005467861890792847,0.03416949510574341,2,-0.1149646377750198,0.6511123747514517,0.03574734719999982,0.7493716298689709,0.9840696454048157,0.1257513910531998,-0.1256716102361679,30.24912261962891,3.975627899169922,-34.9715576171875,2,105783.6366030417,1,2,1582558693.808677,0,0,0,0,0,0,0,0,0,105782.032279,0,-0.4650574,99.36976
1582558695.068079,102,0,1582558693.390613,41.20724942298013,29.0745838406987,169.6611,0.1496149,-1,64.20774841308594,24.00362482104263,-9999,105784.8984535417,1.007949829101562,0.1180877685546875,-0.100738525390625,105784.8924115417,0.206724115295042,1.442524902687948,-0.1262406264644492,-0.03776273503899574,-0.1176347881555557,-0.009684586897492409,0.02767777442932129,-0.005423665046691895,0.0314176082611084,2,-0.1151135958860508,0.6506134464353284,0.03589917314120723,0.749774828946455,0.9838921427726746,0.1259055882692337,-0.1269020140171051,30.11783599853516,3.664604187011719,-34.864013671875,2,105783.6366030417,1,2,1582558693.808677,0,0,0,0,0,0,0,0,0,105782.032279,0,-0.4650574,99.36976
1582558695.079859,103,0,1582558693.390613,41.20724942298013,29.0745838406987,169.6611,0.1496149,-1,64.20774841308594,24.00362482104263,-9999,105784.9084945417,1.010467529296875,0.1176910400390625,-0.100372314453125,105784.9024515417,0.2070689174730478,1.440809204366009,-0.1265830986385639,-0.04073482006788254,-0.1723930984735489,-0.02671017497777939,0.02455222606658936,-0.008693099021911621,0.0273779034614563,2,-0.1153218149109787,0.6499297909044727,0.03601429686410528,0.7503300753194725,0.9836301803588867,0.1262453198432922,-0.1285842955112457,30.11783599853516,3.664604187011719,-34.864013671875,2,105783.6366030417,1,2,1582558693.808677,0,0,0,0,0,0,0,0,0,105782.032279,0,-0.4650574,99.36976
1582558695.100059,104,0,1582558693.390613,41.20724942298013,29.0745838406987,169.6611,0.1496149,-1,64.20774841308594,24.00362482104263,-9999,105784.9185345417,0.99853515625,0.1203155517578125,-0.1085205078125,105784.9124915417,0.2073268881132062,1.438643132566935,-0.1271237876764783,-0.03269852325320244,-0.2224009186029434,-0.05171166732907295,0.02654886245727539,-0.00872589647769928,0.03003323078155518,2,-0.1155671718870631,0.6490696703072586,0.0360578992295889,0.751034409269525,0.9832815527915955,0.1267816722393036,-0.1307055801153183,29.98383331298828,3.883129119873047,-35.02923583984375,2,105783.6366030417,1,2,1582558693.808677,0,0,0,0,0,0,0,0,0,105782.032279,0,-0.4650574,99.36976
1582558695.103084,105,0,1582558693.390613,41.20724942298013,29.0745838406987,169.6611,0.1496149,-1,64.20774841308594,24.00362482104263,-9999,105784.9285745417,0.9711761474609375,0.1227874755859375,-0.1237335205078125,105784.9225325417,0.2075656169802821,1.436306206422313,-0.1277911686025253,-0.03282848745584488,-0.238029956817627,-0.06636518239974976,0.01116341352462769,-0.00690072774887085,0.02118027210235596,2,-0.1158503068619348,0.6481379939509241,0.03606304373948557,0.751794697345108,0.9828892350196838,0.1274436414241791,-0.1329917013645172,29.98383331298828,3.883129119873047,-35.02923583984375,2,105783.6366030417,1,2,1582558693.808677,0,0,0,0,0,0,0,0,0,105782.032279,0,-0.4650574,99.36976
1582558695.108216,106,0,1582558693.390613,41.20724942298013,29.0745838406987,169.6611,0.1496149,-1,64.20774841308594,24.00362482104263,-9999,105784.9386145417,0.939239501953125,0.1320037841796875,-0.1346893310546875,105784.9325725417,0.2078232878333049,1.434081683686548,-0.1283953945893812,-0.03397763147950172,-0.2293279021978378,-0.05811124294996262,-0.01829284429550171,-0.003700554370880127,0.00887531042098999,2,-0.1161182237439191,0.6472502641928215,0.03609025712671487,0.7525165392647161,0.9825145602226257,0.1280429065227509,-0.1351673007011414,30.05431365966797,3.990779876708984,-35.01824951171875,2,105783.6366030417,1,2,1582558693.808677,0,0,0,0,0,0,0,0,0,105782.032279,0,-0.4650574,99.36976
1582558695.11833,107,0,1582558693.390613,41.20724942298013,29.0745838406987,169.6611,0.1496149,-1,64.20774841308594,24.00362482104263,-9999,105784.9486555417,0.9344635009765625,0.1316375732421875,-0.14080810546875,105784.9426435417,0.2080652981063611,1.432266437651653,-0.1288402226903886,-0.03032191097736359,-0.1862004101276398,-0.04110509529709816,-0.04693526029586792,0.004632085561752319,0.0004730820655822754,2,-0.1163292072637518,0.646526224910744,0.03614072463243798,0.753103718977342,0.9822110533714294,0.1284840703010559,-0.1369427144527435,30.05431365966797,3.990779876708984,-35.01824951171875,2,105783.6366030417,1,2,1582558693.808677,0,0,0,0,0,0,0,0,0,105782.032279,0,-0.4650574,99.36976
1582558695.130387,108,0,1582558693.390613,41.20724942298013,29.0745838406987,169.6611,0.1496149,-1,64.20774841308594,24.00362482104263,-9999,105784.9586955417,0.958282470703125,0.1248626708984375,-0.134765625,105784.9526835417,0.208316320736534,1.430782785132979,-0.1292044028131872,-0.02995330281555653,-0.1520210355520248,-0.0341595783829689,-0.0437396764755249,0.00143277645111084,-0.002699732780456543,2,-0.11651905707158,0.64593085322282,0.03620213252355154,0.7535821647317156,0.9819604158401489,0.12884521484375,-0.1383932828903198,29.75930023193359,4.005123138427734,-35.281494140625,2,105783.6366030417,1,2,1582558693.808677,0,0,0,0,0,0,0,0,0,105782.032279,0,-0.4650574,99.36976
1582558695.138954,109,0,1582558693.390613,41.20724942298013,29.0745838406987,169.6611,0.1496149,-1,64.20774841308594,24.00362482104263,-9999,105784.9687355417,0.9746246337890625,0.1265106201171875,-0.1248016357421875,105784.9627235417,0.2086026634292541,1.429271423648231,-0.1295364567928008,-0.03147316724061966,-0.1593636274337769,-0.03059946559369564,-0.0190575122833252,-0.005015239119529724,0.007414877414703369,2,-0.1167077914576182,0.6453244916607932,0.03628930446684723,0.754068124525835,0.981707751750946,0.1291745007038116,-0.1398711800575256,29.75930023193359,4.005123138427734,-35.281494140625,2,105783.6366030417,1,2,1582558693.808677,0,0,0,0,0,0,0,0,0,105782.032279,0,-0.4650574,99.36976
1582558695.149556,110,0,1582558693.390613,41.20724942298013,29.0745838406987,169.6611,0.1496149,-1,64.20774841308594,24.00362482104263,-9999,105784.9787765417,0.9773101806640625,0.127166748046875,-0.1259918212890625,105784.9727645417,0.2089075660535841,1.427573631813722,-0.1298516877487609,-0.03241747245192528,-0.180373802781105,-0.0275372713804245,-0.005228400230407715,-0.00215400755405426,0.01734578609466553,2,-0.116892775652949,0.6446472953799367,0.03640018461599111,0.7546131082968747,0.9814284443855286,0.129487082362175,-0.1415318846702576,29.63501739501953,4.154327392578125,-35.325439453125,2,105783.6366030417,1,2,1582558693.808677,0,0,0,0,0,0,0,0,0,105782.032279,0,-0.4650574,99.36976
1582558695.172099,111,0,1582558693.390613,41.20724942298013,29.0745838406987,169.6611,0.1496149,-1,64.20774841308594,24.00362482104263,-9999,105784.9888165417,0.9708404541015625,0.1243743896484375,-0.1336212158203125,105784.9828045417,0.209200762470573,1.425783414776943,-0.1302023237694394,-0.03289764001965523,-0.1893420070409775,-0.03311233222484589,-0.004592776298522949,-0.003569796681404114,0.0158306360244751,2,-0.1170853907246251,0.6439332107247906,0.03650081769048909,0.7551878713031221,0.9811285138130188,0.1298347562551498,-0.1432820558547974,29.63501739501953,4.154327392578125,-35.325439453125,2,105783.6366030417,1,2,1582558693.808677,0,0,0,0,0,0,0,0,0,105782.032279,0,-0.4650574,99.36976
1582558695.173236,112,0,1582558693.390613,41.20724942298013,29.0745838406987,169.6611,0.1496149,-1,64.20774841308594,24.00362482104263,-9999,105784.9988565417,0.9643402099609375,0.1288299560546875,-0.1351318359375,105784.9928445417,0.2094683054626063,1.423994008916052,-0.1305617753666094,-0.03183645009994507,-0.1895091235637665,-0.03371429070830345,-0.0110938549041748,-0.005009546875953674,0.01104879379272461,2,-0.1172729562812474,0.6432198143104739,0.03658920530228939,0.7557623107774877,0.9808244109153748,0.1301911622285843,-0.1450306475162506,29.46736907958984,4.196842193603516,-35.33740234375,2,105783.6366030417,1,2,1582558693.808677,0,0,0,0,0,0,0,0,0,105782.032279,0,-0.4650574,99.36976
1582558695.180215,113,0,1582558693.390613,41.20724942298013,29.0745838406987,169.6611,0.1496149,-1,64.20774841308594,24.00362482104263,-9999,105785.0088965417,0.9684906005859375,0.1242523193359375,-0.140625,105785.0028845417,0.2097128423346699,1.422255915624672,-0.13095257020222,-0.02925531566143036,-0.1790069490671158,-0.03539874032139778,-0.01748842000961304,-0.002024829387664795,0.01028907299041748,2,-0.1174657224524513,0.6425246941570635,0.03665600364470954,0.7563201729325862,0.9805204272270203,0.1305786222219467,-0.1467276364564896,29.46736907958984,4.196842193603516,-35.33740234375,2,105783.6366030417,1,2,1582558693.808677,0,0,0,0,0,0,0,0,0,105782.032279,0,-0.4650574,99.36976
1582558695.188482,114,0,1582558693.390613,41.20724942298013,29.0745838406987,169.6611,0.1496149,-1,64.20774841308594,24.00362482104263,-9999,105785.0189375417,0.988677978515625,0.127197265625,-0.1286468505859375,105785.0129255417,0.209947536856142,1.420306399962245,-0.131410681893067,-0.02786056697368622,-0.1989131271839142,-0.04181402549147606,-0.007360517978668213,-0.007514402270317078,0.009185373783111572,2,-0.1176765704922339,0.6417454781326022,0.03670993193014568,0.7569461638365077,0.9801733493804932,0.131032794713974,-0.1486299335956573,29.32357025146484,4.216678619384766,-35.4798583984375,2,105783.6366030417,1,2,1582558693.808677,0,0,0,0,0,0,0,0,0,105782.032279,0,-0.4650574,99.36976
1582558695.198735,115,0,1582558693.390613,41.20724942298013,29.0745838406987,169.6611,0.1496149,-1,64.20774841308594,24.00362482104263,-9999,105785.0289775417,0.9665985107421875,0.1302032470703125,-0.13861083984375,105785.0229655417,0.2101616690772857,1.418061920417334,-0.1319088612065693,-0.02641260623931885,-0.2318228781223297,-0.04748496040701866,0.008939862251281738,-0.002805039286613464,0.02306312322616577,2,-0.1178904176373913,0.6408526101855185,0.03676084101021982,0.7576664190950757,0.9797725081443787,0.1315266638994217,-0.1508195698261261,29.32357025146484,4.216678619384766,-35.4798583984375,2,105783.6366030417,1,2,1582558693.808677,0,0,0,0,0,0,0,0,0,105782.032279,0,-0.4650574,99.36976
1582558695.219863,116,0,1582558693.390613,41.20724942298013,29.0745838406987,169.6611,0.1496149,-1,64.20774841308594,24.00362482104263,-9999,105785.0390175417,0.9291839599609375,0.13262939453125,-0.154205322265625,105785.0330055417,0.210423379545418,1.415973313343282,-0.1322500243769301,-0.03288048878312111,-0.2157770395278931,-0.0283044409006834,-0.02112448215484619,-0.002029329538345337,0.01007246971130371,2,-0.1180635356633387,0.6400247397613784,0.03687219309479595,0.758333559975593,0.9794110059738159,0.1318648457527161,-0.1528586745262146,29.14142608642578,4.216197967529297,-35.6180419921875,2,105783.6366030417,1,2,1582558693.808677,0,0,0,0,0,0,0,0,0,105782.032279,0,-0.4650574,99.36976
1582558695.22071,117,0,1582558693.390613,41.20724942298013,29.0745838406987,169.6611,0.1496149,-1,64.20774841308594,24.00362482104263,-9999,105785.0490585417,0.9259185791015625,0.13140869140625,-0.1591949462890625,105785.0430465417,0.2106570758217501,1.414330300443196,-0.1324221811822316,-0.02360230125486851,-0.1685834378004074,-0.01300644502043724,-0.05440366268157959,0.00182834267616272,-0.001475095748901367,2,-0.1181724592918526,0.6393772091292161,0.0370018955898673,0.7588563405396552,0.9791361093521118,0.1320355087518692,-0.1544641107320786,29.14142608642578,4.216197967529297,-35.6180419921875,2,105783.6366030417,1,2,1582558693.808677,0,0,0,0,0,0,0,0,0,105782.032279,0,-0.4650574,99.36976
1582558695.229682,118,0,1582558693.390613,41.20724942298013,29.0745838406987,169.6611,0.1496149,-1,64.20774841308594,24.00362482104263,-9999,105785.0590985417,0.9621734619140625,0.125579833984375,-0.15240478515625,105785.0530865417,0.2109285567143417,1.413015673560065,-0.1325962136329238,-0.03130349516868591,-0.1357671767473221,-0.01236124988645315,-0.04847025871276855,-0.003318533301353455,-0.003289222717285156,2,-0.1183001141664195,0.6388515499119061,0.03712611456111396,0.7592729824108204,0.9789094924926758,0.1322080045938492,-0.1557475626468658,28.97800445556641,4.335762023925781,-35.49810791015625,2,105783.6366030417,1,2,1582558693.808677,0,0,0,0,0,0,0,0,0,105782.032279,0,-0.4650574,99.36976
1582558695.238733,119,0,1582558693.390613,41.20724942298013,29.0745838406987,169.6611,0.1496149,-1,64.20774841308594,24.00362482104263,-9999,105785.0691385417,1.0040283203125,0.1221160888671875,-0.138641357421875,105785.0631265417,0.2111732874579464,1.41156964282584,-0.1329265832947394,-0.0268312469124794,-0.1462309956550598,-0.03045716322958469,-0.00657498836517334,-0.006819829344749451,0.0079306960105896,2,-0.1184753351342519,0.638267646982161,0.0371974155724577,0.7597331774541243,0.9786401391029358,0.1325354725122452,-0.1571560055017471,28.97800445556641,4.335762023925781,-35.49810791015625,2,105783.6366030417,1,2,1582558693.808677,0,0,0,0,0,0,0,0,0,105782.032279,0,-0.4650574,99.36976
1582558695.248814,120,0,1582558693.390613,41.20724942298013,29.0745838406987,169.6611,0.1496149,-1,64.20774841308594,24.00362482104263,-9999,105785.0791785417,1.030136108398438,0.132354736328125,-0.120635986328125,105785.0731665417,0.2114814780474812,1.409393166603065,-0.1333590256270196,-0.03906701505184174,-0.2188707739114761,-0.03948678076267242,0.03163719177246094,-0.01129207015037537,0.02335649728775024,2,-0.118695474998264,0.6373956345564356,0.03730336025257997,0.7604253017880973,0.9782389998435974,0.132964089512825,-0.1592763811349869,28.83708953857422,4.312812805175781,-35.83087158203125,2,105783.6366030417,1,2,1582558693.808677,0,0,0,0,0,0,0,0,0,105782.032279,0,-0.4650574,99.36976
1582558695.258832,121,0,1582558693.390613,41.20724942298013,29.0745838406987,169.6611,0.1496149,-1,64.20774841308594,24.00362482104263,-9999,105785.0892495417,1.020172119140625,0.141754150390625,-0.1227569580078125,105785.0832075417,0.2117078241005228,1.406135070380544,-0.1337608645986632,-0.02758426405489445,-0.3361465334892273,-0.03638526424765587,0.05595684051513672,0.003034412860870361,0.04487520456314087,2,-0.1188577042778033,0.636117811382216,0.03745287562474806,0.7614619124552727,0.9776620864868164,0.133362352848053,-0.1624539494514465,28.83708953857422,4.312812805175781,-35.83087158203125,2,105783.6366030417,1,2,1582558693.808677,0,0,0,0,0,0,0,0,0,105782.032279,0,-0.4650574,99.36976
1582558695.287877,122,0,1582558693.390613,41.20724942298013,29.0745838406987,169.6611,0.1496149,-1,64.20774841308594,24.00362482104263,-9999,105785.0992895417,0.9501190185546875,0.1338958740234375,-0.160186767578125,105785.0932475417,0.2118316209272581,1.402581245722836,-0.1341587946076408,-0.01930760964751244,-0.3652628362178802,-0.03884673491120338,0.03210234642028809,0.006866723299026489,0.03689563274383545,2,-0.1189801643448257,0.6347318220182127,0.0375827786163706,0.7625921683556693,0.9770262241363525,0.1337567120790482,-0.1659184694290161,28.61847686767578,4.482048034667969,-35.7645263671875,2,105783.6366030417,1,2,1582558693.808677,0,0,0,0,0,0,0,0,0,105782.032279,0,-0.4650574,99.36976
1582558695.289149,123,0,1582558693.390613,41.20724942298013,29.0745838406987,169.6611,0.1496149,-1,64.20774841308594,24.00362482104263,-9999,105785.1093305417,0.8841705322265625,0.1182098388671875,-0.19677734375,105785.1032875417,0.2118773669561832,1.399868076861549,-0.1346438405303062,-0.011122384108603,-0.2816249430179596,-0.04696724563837051,-0.04228538274765015,-0.002540379762649536,0.0006552934646606445,2,-0.1191265076006645,0.6336639978131509,0.0376052939523829,0.7634557121626065,0.9765083789825439,0.1342373788356781,-0.1685576289892197,28.50579071044922,4.593902587890625,-36.09124755859375,2,105783.6366030417,1,2,1582558693.808677,0,0,0,0,0,0,0,0,0,105782.032279,0,-0.4650574,99.36976
1582558695.289921,124,0,1582558693.390613,41.20724942298013,29.0745838406987,169.6611,0.1496149,-1,64.20774841308594,24.00362482104263,-9999,105785.1193705417,0.907684326171875,0.1174774169921875,-0.1954193115234375,105785.1133285417,0.2119212160836108,1.398511844776778,-0.1353430424781676,-0.01779944449663162,-0.1296775490045547,-0.06790902465581894,-0.09663516283035278,-0.01986527442932129,-0.03194135427474976,2,-0.1193787056205194,0.6331002042444218,0.03747765805126692,0.763890215241867,0.9761861562728882,0.1349302232265472,-0.1698657125234604,28.50579071044922,4.593902587890625,-36.09124755859375,2,105783.6366030417,1,2,1582558693.808677,0,0,0,0,0,0,0,0,0,105782.032279,0,-0.4650574,99.36976
1582558695.299054,125,0,1582558693.390613,41.20724942298013,29.0745838406987,169.6611,0.1496149,-1,64.20774841308594,24.00362482104263,-9999,105785.1294105417,0.9770965576171875,0.1317291259765625,-0.1594696044921875,105785.1233685417,0.2118058108369593,1.397659325926324,-0.1362893119136031,-0.003787220921367407,-0.08000160753726959,-0.09314380586147308,-0.05293715000152588,-0.0144551545381546,-0.01700150966644287,2,-0.1196833841367029,0.6327226732074799,0.03717987858760072,0.7641699193955042,0.9759148955345154,0.1358677744865417,-0.1706758141517639,28.42082977294922,4.682052612304688,-36.07684326171875,2,105783.6366030417,1,2,1582558693.808677,0,0,0,0,0,0,0,0,0,105782.032279,0,-0.4650574,99.36976
1582558695.30904,126,0,1582558693.390613,41.20724942298013,29.0745838406987,169.6611,0.1496149,-1,64.20774841308594,24.00362482104263,-9999,105785.1394515417,0.996826171875,0.129638671875,-0.1527557373046875,105785.1334085417,0.2115419763427197,1.39666060199612,-0.1375270044621559,0.002773532178252935,-0.09590962529182434,-0.1248867213726044,0.008572816848754883,-0.005793556571006775,0.01511776447296143,2,-0.1200487394964085,0.6322797884100089,0.03674063914561909,0.7645003960808642,0.9755776524543762,0.1370938867330551,-0.1716211438179016,28.42082977294922,4.682052612304688,-36.07684326171875,2,105783.6366030417,1,2,1582558693.808677,0,0,0,0,0,0,0,0,0,105782.032279,0,-0.4650574,99.36976
1582558695.31912,127,0,1582558693.390613,41.20724942298013,29.0745838406987,169.6611,0.1496149,-1,64.20774841308594,24.00362482104263,-9999,105785.1494915417,1.034317016601562,0.12957763671875,-0.14599609375,105785.1434485417,0.2110982306991233,1.395288261476163,-0.1390806932473868,0.01819270104169846,-0.1281386613845825,-0.1611062437295914,0.02591168880462646,-0.00869046151638031,0.02111870050430298,2,-0.1204703124599331,0.6316848164337455,0.03615385715244059,0.7649537260627527,0.9751302599906921,0.138632744550705,-0.1729223877191544,28.33606719970703,4.758338928222656,-36.15081787109375,2,105783.6366030417,1,2,1582558693.808677,0,0,0,0,0,0,0,0,0,105782.032279,0,-0.4650574,99.36976
1582558695.347777,128,0,1582558693.390613,41.20724942298013,29.0745838406987,169.6611,0.1496149,-1,64.20774841308594,24.00362482104263,-9999,105785.1595315417,1.078750610351562,0.120330810546875,-0.146820068359375,105785.1534895417,0.2105734276266774,1.393116754416063,-0.1410269389419464,0.02125301212072372,-0.2152523100376129,-0.2013381719589233,0.07037997245788574,-0.0119452178478241,0.03022187948226929,2,-0.1210013478644511,0.6307637810088416,0.03545887961503556,0.765662075152355,0.9744849801063538,0.1405599266290665,-0.1749914586544037,28.33606719970703,4.758338928222656,-36.15081787109375,2,105783.6366030417,1,2,1582558693.808677,0,0,0,0,0,0,0,0,0,105782.032279,0,-0.4650574,99.36976
1582558695.351661,129,0,1582558693.390613,41.20724942298013,29.0745838406987,169.6611,0.1496149,-1,64.20774841308594,24.00362482104263,-9999,105785.1695845,1.078140258789062,0.1434478759765625,-0.1292877197265625,105785.1635425,0.2099771967966324,1.389830451356922,-0.1434059683156139,0.02124928310513496,-0.3337360620498657,-0.2475951611995697,0.1087675094604492,-0.02168549597263336,0.0334542989730835,2,-0.1216559228052501,0.6293915308520812,0.03466672672666399,0.7667231777383248,0.9735729694366455,0.1429149359464645,-0.1781322807073593,27.94205474853516,4.973907470703125,-36.3731689453125,2,105783.6366030417,1,2,1582558693.808677,0,0,0,0,0,0,0,0,0,105782.032279,0,-0.4650574,99.36976
1582558695.352485,130,0,1582558693.390613,41.20724942298013,29.0745838406987,169.6611,0.1496149,-1,64.20774841308594,24.00362482104263,-9999,105785.1796255,1.001419067382812,0.16094970703125,-0.1399078369140625,105785.1735825,0.2091047289554708,1.385582423059939,-0.1459001041929094,0.05020880699157715,-0.4173407852649689,-0.2643870115280151,0.1002581715583801,0.005646795034408569,0.05346769094467163,2,-0.1222539917975984,0.6276574378646795,0.03379268604344887,0.7680873572790204,0.9724540710449219,0.1453830301761627,-0.1822002083063126,27.94205474853516,4.973907470703125,-36.3731689453125,2,105783.6366030417,1,2,1582558693.808677,0,0,0,0,0,0,0,0,0,105782.032279,0,-0.4650574,99.36976
1582558695.359185,131,0,1582558693.390613,41.20724942298013,29.0745838406987,169.6611,0.1496149,-1,64.20774841308594,24.00362482104263,-9999,105785.1896655,0.7980499267578125,0.141693115234375,-0.2134552001953125,105785.1836235,0.2082919497534785,1.381449337271375,-0.148173503648613,0.03379015251994133,-0.4233680665493011,-0.2407296150922775,-0.003038763999938965,0.009608224034309387,0.0372810959815979,2,-0.122792975350284,0.6259746724862134,0.03300757918396855,0.7694076719032172,0.9713656306266785,0.147631898522377,-0.1861551851034164,27.53783416748047,4.9366455078125,-36.5447998046875,2,105783.6366030417,1,2,1582558693.808677,0,0,0,0,0,0,0,0,0,105782.032279,0,-0.4650574,99.36976
1582558695.369289,132,0,1582558693.390613,41.20724942298013,29.0745838406987,169.6611,0.1496149,-1,64.20774841308594,24.00362482104263,-9999,105785.1997055,0.6466827392578125,0.129180908203125,-0.2844085693359375,105785.1936935,0.2077552040681871,1.379959857115823,-0.149816946907656,0.02139666862785816,-0.1355304718017578,-0.1737837791442871,-0.2165100574493408,-0.01003766059875488,-0.04531800746917725,2,-0.123225073475995,0.6253301633043068,0.03236873180454258,0.7698896649268091,0.9708477258682251,0.1492571383714676,-0.1875555366277695,27.53783416748047,4.9366455078125,-36.5447998046875,2,105783.6366030417,1,2,1582558693.808677,0,0,0,0,0,0,0,0,0,105782.032279,0,-0.4650574,99.36976
1582558695.381006,133,0,1582558693.390613,41.20724942298013,29.0745838406987,169.6611,0.1496149,-1,64.20774841308594,24.00362482104263,-9999,105785.2097465,0.7299652099609375,0.1236572265625,-0.2636566162109375,105785.2037345,0.2077056968826376,1.381646780875913,-0.1508184517228533,-0.01481326669454575,0.1803345382213593,-0.09544503688812256,-0.3277770280838013,-0.02358585596084595,-0.1012446880340576,2,-0.123617132329101,0.6259186404112833,0.03192628427119306,0.7693668872141546,0.9710153937339783,0.1502473503351212,-0.1858893185853958,27.50394439697266,5.137870788574219,-36.55609130859375,2,105783.6366030417,1,2,1582558693.808677,0,0,0,0,0,0,0,0,0,105782.032279,0,-0.4650574,99.36976
1582558695.396011,134,0,1582558694.407497,41.20723624385456,29.07455817154347,168.0443,0.2180424,-1,3,24.00362482104263,-9999,105785.2197865,0.9339599609375,0.1455841064453125,-0.18548583984375,105785.2137745,0.2079625019062112,1.384708661922084,-0.1515433633804532,-0.04280759021639824,0.3130285143852234,-0.06522988528013229,-0.2001979351043701,-0.02521803975105286,-0.06798398494720459,2,-0.1240212650428134,0.6270336198912617,0.0316040105178644,0.7684066967585406,0.9714727997779846,0.1509639918804169,-0.1828951239585876,27.50394439697266,5.137870788574219,-36.55609130859375,2,105783.6366030417,1,2,1582558693.808677,0,0,0,0,0,0,0,0,0,105782.032279,0,-0.4650574,99.36976
1582558695.39938,135,0,1582558694.407497,41.20723624385456,29.07455817154347,168.0443,0.2180424,-1,3,24.00362482104263,-9999,105785.2298265,1.05426025390625,0.1656494140625,-0.13079833984375,105785.2238145,0.2081610574626663,1.387210045422168,-0.1522202614759805,-0.03574115782976151,0.2572912275791168,-0.06150145828723907,-0.006490468978881836,-0.001289978623390198,0.008820891380310059,2,-0.1243794256093894,0.6279385601750757,0.03130844826095137,0.7676215562976951,0.9718266129493713,0.1516330987215042,-0.1804458498954773,27.76041412353516,5.166175842285156,-36.47381591796875,2,105783.6366030417,1,2,1582558693.808677,0,0,0,0,0,0,0,0,0,105782.032279,0,-0.4650574,99.36976
1582558695.409356,136,0,1582558694.407497,41.20723624385456,29.07455817154347,168.0443,0.2180424,-1,3,24.00362482104263,-9999,105785.2398665,1.0684814453125,0.174041748046875,-0.115509033203125,105785.2338545,0.2080749944501628,1.388184063492216,-0.1529894248734647,-0.007527158129960299,0.09451007843017578,-0.08049823343753815,0.09603399038314819,0.0163213312625885,0.05600953102111816,2,-0.1246588296401884,0.6282684199605046,0.03096853748381122,0.7673199963699133,0.9718868732452393,0.1523933112621307,-0.1794779300689697,27.76041412353516,5.166175842285156,-36.47381591796875,2,105783.6366030417,1,2,1582558693.808677,0,0,0,0,0,0,0,0,0,105782.032279,0,-0.4650574,99.36976
1582558695.419444,137,0,1582558694.407497,41.20723624385456,29.07455817154347,168.0443,0.2180424,-1,3,24.00362482104263,-9999,105785.2499075,0.9707489013671875,0.170806884765625,-0.145294189453125,105785.2438955,0.2077296879998412,1.388017435147988,-0.1536531823789513,0.02276763133704662,-0.02153636701405048,-0.07316868007183075,0.08195751905441284,0.02144843339920044,0.0613715648651123,2,-0.1247990818546158,0.628183454976633,0.03063390017565613,0.7673802723334329,0.9717573523521423,0.1530492901802063,-0.1796214729547501,27.86965179443359,5.050888061523438,-36.55133056640625,2,105783.6366030417,1,2,1582558693.808677,0,0,0,0,0,0,0,0,0,105782.032279,0,-0.4650574,99.36976
1582558695.429503,138,0,1582558694.407497,41.20723624385456,29.07455817154347,168.0443,0.2180424,-1,3,24.00362482104263,-9999,105785.2599475,0.8769073486328125,0.1467132568359375,-0.1983642578125,105785.2539355,0.2073248772800543,1.388035146082049,-0.154103414559683,0.03342396393418312,0.0007669497281312943,-0.0508505143225193,-0.02242434024810791,0.01432012021541595,0.02389657497406006,2,-0.1248426750092606,0.6281866446497139,0.03033329431394301,0.767382392857016,0.9716925024986267,0.153494194149971,-0.1795916855335236,27.86965179443359,5.050888061523438,-36.55133056640625,2,105783.6366030417,1,2,1582558693.808677,0,0,0,0,0,0,0,0,0,105782.032279,0,-0.4650574,99.36976
1582558695.439464,139,0,1582558694.407497,41.20723624385456,29.07455817154347,168.0443,0.2180424,-1,3,24.00362482104263,-9999,105785.2699875,0.8766021728515625,0.1333160400390625,-0.2142486572265625,105785.2639755,0.2070548362787979,1.389197008368136,-0.1544173338081014,0.02095158398151398,0.1226366609334946,-0.03355594724416733,-0.1046007871627808,-0.0120520293712616,-0.02777814865112305,2,-0.1248941730432998,0.6286290542394466,0.03005661828524238,0.7670226503988642,0.9718532562255859,0.1538043916225433,-0.1784539222717285,27.81739044189453,4.943572998046875,-36.31256103515625,2,105783.6366030417,1,2,1582558693.808677,0,0,0,0,0,0,0,0,0,105782.032279,0,-0.4650574,99.36976
1582558695.456173,140,0,1582558694.407497,41.20723624385456,29.07455817154347,168.0443,0.2180424,-1,3,24.00362482104263,-9999,105785.2800285,0.9530792236328125,0.138824462890625,-0.187225341796875,105785.2740165,0.206906935425173,1.391215962539601,-0.1548090057043269,0.007052727974951267,0.2111512273550034,-0.03967126831412315,-0.0829576849937439,-0.02072460949420929,-0.03468018770217896,2,-0.1250260052296071,0.6293871509423302,0.02974818446184361,0.7663911267356226,0.972152054309845,0.1541913896799088,-0.176480621099472,27.81739044189453,4.943572998046875,-36.31256103515625,2,105783.6366030417,1,2,1582558693.808677,0,0,0,0,0,0,0,0,0,105782.032279,0,-0.4650574,99.36976
1582558695.459627,141,0,1582558694.407497,41.20723624385456,29.07455817154347,168.0443,0.2180424,-1,3,24.00362482104263,-9999,105785.2900685,1.005706787109375,0.156982421875,-0.1486968994140625,105785.2840565,0.2067525308895505,1.393104816522055,-0.1553458180739417,0.003937894478440285,0.1939746290445328,-0.05317855626344681,-0.005128443241119385,-0.01286265254020691,-0.004777908325195312,2,-0.1252081899596019,0.6300858733413179,0.02939855732696326,0.7658005187053326,0.972402036190033,0.1547217667102814,-0.1746294051408768,27.94730377197266,5.052810668945312,-36.236328125,2,105783.6366030417,1,2,1582558693.808677,0,0,0,0,0,0,0,0,0,105782.032279,0,-0.4650574,99.36976
1582558695.469658,142,0,1582558694.407497,41.20723624385456,29.07455817154347,168.0443,0.2180424,-1,3,24.00362482104263,-9999,105785.3001085,1.02459716796875,0.1677093505859375,-0.130584716796875,105785.2940965,0.2064216982630898,1.394167213707937,-0.1559560270820819,0.02177590131759644,0.1125720143318176,-0.06520457565784454,0.03964066505432129,0.004814580082893372,0.03077828884124756,2,-0.1253498994538418,0.630474103687189,0.02900931079106518,0.765472623642409,0.9724939465522766,0.1553245931863785,-0.1735796183347702,27.94730377197266,5.052810668945312,-36.236328125,2,105783.6366030417,1,2,1582558693.808677,0,0,0,0,0,0,0,0,0,105782.032279,0,-0.4650574,99.36976
1582558695.479682,143,0,1582558694.407497,41.20723624385456,29.07455817154347,168.0443,0.2180424,-1,3,24.00362482104263,-9999,105785.3101485,0.9762115478515625,0.1636199951171875,-0.145233154296875,105785.3041365,0.205946902918265,1.394340220168248,-0.1565085700375673,0.0376262366771698,0.01774483546614647,-0.06300320476293564,0.04907935857772827,0.01218803226947784,0.0430610179901123,2,-0.1254113527913028,0.6305345930172329,0.02863914576516888,0.7654265248552892,0.972439169883728,0.1558704078197479,-0.1733962446451187,28.05960845947266,5.030220031738281,-36.30450439453125,2,105783.6366030417,1,2,1582558693.808677,0,0,0,0,0,0,0,0,0,105782.032279,0,-0.4650574,99.36976
1582558695.489763,144,0,1582558694.407497,41.20723624385456,29.07455817154347,168.0443,0.2180424,-1,3,24.00362482104263,-9999,105785.3201895,0.903533935546875,0.1443634033203125,-0.18975830078125,105785.3141775,0.2055279380646029,1.394552295199601,-0.1569028928052957,0.03432081267237663,0.02178115770220757,-0.04546913132071495,-0.01249676942825317,0.00444379448890686,0.02020001411437988,2,-0.1254311364603483,0.6306166891273225,0.02833876338254933,0.7653669510601843,0.9724154472351074,0.1562598943710327,-0.1731792390346527,28.05960845947266,5.030220031738281,-36.30450439453125,2,105783.6366030417,1,2,1582558693.808677,0,0,0,0,0,0,0,0,0,105782.032279,0,-0.4650574,99.36976
1582558695.499833,145,0,1582558694.407497,41.20723624385456,29.07455817154347,168.0443,0.2180424,-1,3,24.00362482104263,-9999,105785.3302295,0.8863677978515625,0.130706787109375,-0.2118988037109375,105785.3242175,0.2053570690043959,1.395743634757714,-0.1571677062227083,0.01326666120439768,0.1211330443620682,-0.02764086797833443,-0.07757234573364258,-0.01634083688259125,-0.02558255195617676,2,-0.1254940124221915,0.6310661996994208,0.02811348908964532,0.7649942629907405,0.9725801944732666,0.1565214544534683,-0.1720134019851685,28.30655670166016,4.88214111328125,-36.177490234375,2,105783.6366030417,1,2,1582558693.808677,0,0,0,0,0,0,0,0,0,105782.032279,0,-0.4650574,99.36976
1582558695.519508,146,0,1582558694.407497,41.20723624385456,29.07455817154347,168.0443,0.2180424,-1,3,24.00362482104263,-9999,105785.3403005,0.9081573486328125,0.147979736328125,-0.1838226318359375,105785.3342575,0.2054485711290107,1.397861111499763,-0.1572811305870092,-0.01234898529946804,0.2164654284715652,-0.008579108864068985,-0.08388286828994751,-0.02540972828865051,-0.04063034057617188,2,-0.1255953629383505,0.6318627361350027,0.02797905043279689,0.7643248652944253,0.9729248881340027,0.1566334813833237,-0.1699505746364594,28.30655670166016,4.88214111328125,-36.177490234375,2,105783.6366030417,1,2,1582558693.808677,0,0,0,0,0,0,0,0,0,105782.032279,0,-0.4650574,99.36976
1582558695.520423,147,0,1582558694.407497,41.20723624385456,29.07455817154347,168.0443,0.2180424,-1,3,24.00362482104263,-9999,105785.3503405,0.9373779296875,0.16583251953125,-0.149871826171875,105785.3442985,0.2055613508510388,1.400091179173875,-0.1571499822570754,-0.009721243754029274,0.2212263643741608,0.01742479577660561,-0.05981987714767456,-0.002941340208053589,-0.006862521171569824,2,-0.1256127652726762,0.6327159343170806,0.02792434982007511,0.763617892924296,0.9733217358589172,0.1565039455890656,-0.1677839607000351,28.29309844970703,4.919242858886719,-35.997314453125,2,105783.6366030417,1,2,1582558693.808677,0,0,0,0,0,0,0,0,0,105782.032279,0,-0.4650574,99.36976
1582558695.52991,148,0,1582558694.407497,41.20723624385456,29.07455817154347,168.0443,0.2180424,-1,3,24.00362482104263,-9999,105785.3603805,0.96160888671875,0.16143798828125,-0.148223876953125,105785.3543385,0.2055536694100937,1.402124606013679,-0.156884278626999,0.005871328990906477,0.2026470750570297,0.02593447640538216,-0.02985048294067383,0.009283959865570068,0.01794379949569702,2,-0.1255386773518307,0.6335095402836053,0.02787948678587545,0.7629734472737649,0.9737018346786499,0.1562415063381195,-0.1658114045858383,28.29309844970703,4.919242858886719,-35.997314453125,2,105783.6366030417,1,2,1582558693.808677,0,0,0,0,0,0,0,0,0,105782.032279,0,-0.4650574,99.36976
1582558695.539948,149,0,1582558694.407497,41.20723624385456,29.07455817154347,168.0443,0.2180424,-1,3,24.00362482104263,-9999,105785.3704215,0.937835693359375,0.1537017822265625,-0.161865234375,105785.3643785,0.2054968795073092,1.404061840920187,-0.1564966471502182,0.01277317758649588,0.1888156831264496,0.0355713926255703,-0.01231569051742554,0.004356801509857178,0.01460236310958862,2,-0.1254018671363397,0.6342767142330179,0.02786153294310532,0.7623589583734434,0.9740808606147766,0.1558586359024048,-0.1639348417520523,28.31873321533203,5.164848327636719,-35.84283447265625,2,105783.6366030417,1,2,1582558693.808677,0,0,0,0,0,0,0,0,0,105782.968876,0,-0.5099792,99.37029
1582558695.549984,150,0,1582558694.407497,41.20723624385456,29.07455817154347,168.0443,0.2180424,-1,3,24.00362482104263,-9999,105785.3804615,0.9000091552734375,0.1453399658203125,-0.1839141845703125,105785.3744185,0.2055086125258896,1.406652202689876,-0.1559837317867264,0.00805362593382597,0.2537915706634521,0.05011260882019997,-0.04676651954650879,-0.003589868545532227,-0.005684733390808105,2,-0.1252489276451372,0.6352957166289201,0.02786961321667859,0.7615348816625179,0.9745810031890869,0.1553519666194916,-0.1614241153001785,28.31873321533203,5.164848327636719,-35.84283447265625,2,105783.6366030417,1,2,1582558693.808677,0,0,0,0,0,0,0,0,0,105782.968876,0,-0.5099792,99.37029
1582558695.560015,151,0,1582558694.407497,41.20723624385456,29.07455817154347,168.0443,0.2180424,-1,3,24.00362482104263,-9999,105785.3905015,0.9215850830078125,0.1520233154296875,-0.1692047119140625,105785.3844595,0.2055909038689456,1.41010319360039,-0.1553050688065682,0.003010664135217667,0.3452820777893066,0.0689598023891449,-0.07624548673629761,-0.009923189878463745,-0.02661019563674927,2,-0.1250684887098625,0.6366470817864808,0.02790489699948417,0.7604339352296854,0.9752361178398132,0.1546815037727356,-0.1580767333507538,28.56792449951172,5.127281188964844,-35.88702392578125,2,105783.6366030417,1,2,1582558693.808677,0,0,0,0,0,0,0,0,0,105782.968876,0,-0.5099792,99.37029
1582558695.583782,152,0,1582558694.407497,41.20723624385456,29.07455817154347,168.0443,0.2180424,-1,3,24.00362482104263,-9999,105785.4005425,0.94677734375,0.16851806640625,-0.135162353515625,105785.3944995,0.2055811341219578,1.413663046658377,-0.1544147711571889,0.01433542743325233,0.354762077331543,0.08868548274040222,-0.0461457371711731,0.001958027482032776,-0.006852984428405762,2,-0.1247814245476734,0.6380570703853639,0.02796792653847256,0.7592962144524166,0.9759283661842346,0.1538018584251404,-0.1546255350112915,28.56792449951172,5.127281188964844,-35.88702392578125,2,105783.6366030417,1,2,1582558693.808677,0,0,0,0,0,0,0,0,0,105782.968876,0,-0.5099792,99.37029
1582558695.584733,153,0,1582558694.407497,41.20723624385456,29.07455817154347,168.0443,0.2180424,-1,3,24.00362482104263,-9999,105785.4105825,0.9617767333984375,0.1640472412109375,-0.135345458984375,105785.4045395,0.2053187524814965,1.417037295199215,-0.1533677739504079,0.04144454374909401,0.3437235653400421,0.09984279423952103,-0.02887624502182007,0.01617622375488281,0.01873177289962769,2,-0.1243530084155547,0.639420228718499,0.02799886635329475,0.7582177611153607,0.9766030311584473,0.1527672410011292,-0.1513562053442001,28.93613433837891,4.958473205566406,-35.79632568359375,2,105783.6366030417,1,2,1582558693.808677,0,0,0,0,0,0,0,0,0,105782.968876,0,-0.5099792,99.37029
1582558695.590671,154,0,1582558694.407497,41.20723624385456,29.07455817154347,168.0443,0.2180424,-1,3,24.00362482104263,-9999,105785.4206225,0.9862060546875,0.1474151611328125,-0.141693115234375,105785.4145805,0.2048624912730611,1.420343690394536,-0.1523711720179696,0.05922888591885567,0.3399319350719452,0.09016392379999161,-0.008784770965576172,0.009363964200019836,0.01094698905944824,2,-0.1238807417091236,0.6407643991211281,0.02794569538973476,0.7571615544310035,0.9772481918334961,0.1517822593450546,-0.1481490880250931,28.93613433837891,4.958473205566406,-35.79632568359375,2,105783.6366030417,1,2,1582558693.808677,0,0,0,0,0,0,0,0,0,105782.968876,0,-0.5099792,99.37029
1582558695.600255,155,0,1582558694.407497,41.20723624385456,29.07455817154347,168.0443,0.2180424,-1,3,24.00362482104263,-9999,105785.4306625,0.9763946533203125,0.13885498046875,-0.1451416015625,105785.4246205,0.2043761022411691,1.423759497934646,-0.1515510036862018,0.05986404791474342,0.3516349196434021,0.07410133630037308,0.00827711820602417,-0.006518378853797913,0.002407848834991455,2,-0.12346623000261,0.6421385498653684,0.02781833974981401,0.7560690740683028,0.9778714776039124,0.1509715467691422,-0.1448283493518829,29.14157867431641,4.802505493164062,-35.50347900390625,2,105783.6366030417,1,2,1582558693.808677,0,0,0,0,0,0,0,0,0,105782.968876,0,-0.5099792,99.37029
1582558695.610216,156,0,1582558694.407497,41.20723624385456,29.07455817154347,168.0443,0.2180424,-1,3,24.00362482104263,-9999,105785.4407035,0.96722412109375,0.1387939453125,-0.146881103515625,105785.4346915,0.2039648163398965,1.4273260732576,-0.1508780154546544,0.04957949742674828,0.3578924238681793,0.0620046891272068,-0.004677951335906982,-0.01146833598613739,-0.004133462905883789,2,-0.1231326803772074,0.6435535829462427,0.02766332534990726,0.7549250725664161,0.9784820079803467,0.150306224822998,-0.1413542628288269,29.14157867431641,4.802505493164062,-35.50347900390625,2,105783.6366030417,1,2,1582558693.808677,0,0,0,0,0,0,0,0,0,105782.968876,0,-0.5099792,99.37029
1582558695.620354,157,0,1582558694.407497,41.20723624385456,29.07455817154347,168.0443,0.2180424,-1,3,24.00362482104263,-9999,105785.4507435,0.97021484375,0.1404266357421875,-0.1363067626953125,105785.4447315,0.2036403186027055,1.431048178122099,-0.1502790217548657,0.03844775259494781,0.3802030384540558,0.05500563606619835,-0.01262575387954712,-0.0113491415977478,-0.008832037448883057,2,-0.1228565725345128,0.6450150150355011,0.02750845853446352,0.7537274932223348,0.9790902733802795,0.149714007973671,-0.1377237886190414,29.54012298583984,4.590873718261719,-35.04620361328125,2,105783.6366030417,1,2,1582558693.808677,0,0,0,0,0,0,0,0,0,105782.968876,0,-0.5099792,99.37029
1582558695.641976,158,0,1582558694.407497,41.20723624385456,29.07455817154347,168.0443,0.2180424,-1,3,24.00362482104263,-9999,105785.4607835,0.976165771484375,0.1490325927734375,-0.1152496337890625,105785.4547715,0.2033999897641688,1.434495879586385,-0.1496586237070915,0.02983852848410606,0.3504724204540253,0.05875642970204353,-0.00761723518371582,-0.006615832448005676,0.002895116806030273,2,-0.1225957793448944,0.6463669934879768,0.02741025060464795,0.7526145855170604,0.9796512126922607,0.149100586771965,-0.1343599706888199,29.54012298583984,4.590873718261719,-35.04620361328125,2,105783.6366030417,1,2,1582558693.808677,0,0,0,0,0,0,0,0,0,105782.968876,0,-0.5099792,99.37029
1582558695.642728,159,0,1582558694.407497,41.20723624385456,29.07455817154347,168.0443,0.2180424,-1,3,24.00362482104263,-9999,105785.4708235,0.986541748046875,0.14398193359375,-0.1191558837890625,105785.4648125,0.2032227604203313,1.437498763908566,-0.1490512291159211,0.02506374754011631,0.3030412495136261,0.05940278246998787,-0.003085613250732422,0.001125931739807129,0.01764941215515137,2,-0.1223541865561849,0.6475451057284055,0.02735964503328217,0.7516422682115602,0.9801396727561951,0.1484999507665634,-0.1314295828342438,29.95368194580078,4.531349182128906,-35.0517578125,2,105783.6366030417,1,2,1582558693.808677,0,0,0,0,0,0,0,0,0,105782.968876,0,-0.5099792,99.37029
1582558695.650391,160,0,1582558694.407497,41.20723624385456,29.07455817154347,168.0443,0.2180424,-1,3,24.00362482104263,-9999,105785.4808645,1.00262451171875,0.13031005859375,-0.1228790283203125,105785.4748525,0.2031306324178954,1.440346403508179,-0.1486799891988824,0.01294425502419472,0.2901517152786255,0.03881121799349785,0.009291768074035645,-0.007295951247215271,0.006930768489837646,2,-0.1222256209489109,0.6486434472015604,0.02727333945305941,0.7507188696266874,0.9805647730827332,0.1481328159570694,-0.1286451518535614,29.95368194580078,4.531349182128906,-35.0517578125,2,105783.6366030417,1,2,1582558693.808677,0,0,0,0,0,0,0,0,0,105782.968876,0,-0.5099792,99.37029
1582558695.663223,161,0,1582558694.407497,41.20723624385456,29.07455817154347,168.0443,0.2180424,-1,3,24.00362482104263,-9999,105785.4909045,0.988128662109375,0.1339569091796875,-0.1221466064453125,105785.4848925,0.2031610047566538,1.443141471164469,-0.148600316480957,-0.00336547615006566,0.2787618935108185,0.01282303035259247,0.02058207988739014,-0.0185391902923584,0.003885805606842041,2,-0.1222440142118649,0.6496950816592097,0.02714021415144015,0.7498107307793216,0.9809321165084839,0.1480540186166763,-0.1259054094552994,30.21842193603516,4.463119506835938,-35.0572509765625,2,105783.6366030417,1,2,1582558693.808677,0,0,0,0,0,0,0,0,0,105782.968876,0,-0.5099792,99.37029
1582558695.670539,162,0,1582558694.407497,41.20723624385456,29.07455817154347,168.0443,0.2180424,-1,3,24.00362482104263,-9999,105785.5009445,0.986572265625,0.1413421630859375,-0.1115570068359375,105785.4949325,0.2032343497236622,1.445814586347002,-0.148689277559916,-0.006490356754511595,0.2654134929180145,-0.005942848511040211,0.005598545074462891,-0.01212689280509949,0.002192497253417969,2,-0.1223369061840189,0.6506866311790295,0.02697482760454772,0.7489412849934671,0.9812521934509277,0.1481419950723648,-0.1232811808586121,30.21842193603516,4.463119506835938,-35.0572509765625,2,105783.6366030417,1,2,1582558693.808677,0,0,0,0,0,0,0,0,0,105782.968876,0,-0.5099792,99.37029
1582558695.680667,163,0,1582558694.407497,41.20723624385456,29.07455817154347,168.0443,0.2180424,-1,3,24.00362482104263,-9999,105785.5109855,0.9842529296875,0.142364501953125,-0.108001708984375,105785.5049735,0.2033485788069204,1.448274239642756,-0.1488775899835394,-0.01300737727433443,0.2472749501466751,-0.019000593572855,0.005142867565155029,-0.006621584296226501,0.01066994667053223,2,-0.1224767054876791,0.6515884657997599,0.02680466757829497,0.748140047247746,0.9815247654914856,0.1483282297849655,-0.1208638548851013,30.39675140380859,4.44134521484375,-34.93682861328125,2,105783.6366030417,1,2,1582558693.808677,0,0,0,0,0,0,0,0,0,105782.968876,0,-0.5099792,99.37029
1582558695.705446,164,0,1582558694.407497,41.20723624385456,29.07455817154347,168.0443,0.2180424,-1,3,24.00362482104263,-9999,105785.5210255,0.986297607421875,0.14556884765625,-0.102935791015625,105785.5150135,0.2034751031957228,1.450432071000603,-0.1491415492489392,-0.0162602998316288,0.216887041926384,-0.02720410190522671,0.002909064292907715,-0.005539864301681519,0.01150721311569214,2,-0.1226441383189553,0.6523710256172935,0.02663220695771046,0.7474365635730099,0.9817444682121277,0.1485892683267593,-0.1187409237027168,30.39675140380859,4.44134521484375,-34.93682861328125,2,105783.6366030417,1,2,1582558693.808677,0,0,0,0,0,0,0,0,0,105782.968876,0,-0.5099792,99.37029
1582558695.706464,165,0,1582558694.407497,41.20723624385456,29.07455817154347,168.0443,0.2180424,-1,3,24.00362482104263,-9999,105785.5310655,0.990478515625,0.1441650390625,-0.1051177978515625,105785.5250535,0.2035859074552878,1.452336179903505,-0.1495181521617133,-0.0166294127702713,0.1932589411735535,-0.03699787706136703,0.003869354724884033,-0.003318309783935547,0.01381158828735352,2,-0.1228443655210124,0.6530519919878275,0.02643168902471824,0.7468157432279761,0.9819129705429077,0.148961678147316,-0.1168647184967995,30.44087982177734,4.306098937988281,-34.695556640625,2,105783.6366030417,1,2,1582558693.808677,0,0,0,0,0,0,0,0,0,105782.968876,0,-0.5099792,99.37029
1582558695.713054,166,0,1582558694.407497,41.20723624385456,29.07455817154347,168.0443,0.2180424,-1,3,24.00362482104263,-9999,105785.5411055,0.9920806884765625,0.1406097412109375,-0.104949951171875,105785.5350945,0.2037016417224199,1.454068346951047,-0.1500830123680257,-0.01779562793672085,0.1727166771888733,-0.05501088127493858,0.01032859086990356,-0.005921542644500732,0.009903490543365479,2,-0.1231129381429709,0.6536560687255603,0.02618064595136128,0.7462517391647626,0.9820303320884705,0.149520218372345,-0.115153893828392,30.44087982177734,4.306098937988281,-34.695556640625,2,105783.6366030417,1,2,1582558693.808677,0,0,0,0,0,0,0,0,0,105782.968876,0,-0.5099792,99.37029
1582558695.720801,167,0,1582558694.407497,41.20723624385456,29.07455817154347,168.0443,0.2180424,-1,3,24.00362482104263,-9999,105785.5511465,0.9911346435546875,0.1442718505859375,-0.0989227294921875,105785.5451345,0.2038233562742068,1.455588495771077,-0.1508396220919469,-0.01941403187811375,0.1493514329195023,-0.07391239702701569,0.008924722671508789,-0.009324580430984497,0.00948101282119751,2,-0.1234508866673439,0.6541681196401316,0.02588064670979837,0.7457575506331805,0.9820916056632996,0.1502682715654373,-0.1136479005217552,30.58943939208984,4.453041076660156,-34.682373046875,2,105783.6366030417,1,2,1582558693.808677,0,0,0,0,0,0,0,0,0,105782.968876,0,-0.5099792,99.37029
1582558695.731257,168,0,1582558694.407497,41.20723624385456,29.07455817154347,168.0443,0.2180424,-1,3,24.00362482104263,-9999,105785.5611865,0.9951324462890625,0.141815185546875,-0.1025238037109375,105785.5551745,0.2039613669007155,1.456894680201964,-0.1517500336097884,-0.02303044311702251,0.1305578351020813,-0.09072591364383698,0.009874582290649414,-0.006898239254951477,0.0134771466255188,2,-0.1238475636473578,0.6545892458449463,0.02554822829839174,0.7453335008186445,0.9821027517318726,0.1511682868003845,-0.1123493984341621,30.58943939208984,4.453041076660156,-34.682373046875,2,105783.6366030417,1,2,1582558693.808677,0,0,0,0,0,0,0,0,0,105782.968876,0,-0.5099792,99.37029
1582558695.740948,169,0,1582558694.407497,41.20723624385456,29.07455817154347,168.0443,0.2180424,-1,3,24.00362482104263,-9999,105785.5712265,0.9906768798828125,0.15069580078125,-0.09271240234375,105785.5652145,0.2041020487946346,1.45791633027833,-0.1527811164393267,-0.02687391638755798,0.1000302731990814,-0.1048955246806145,0.01383727788925171,-0.01000787317752838,0.009297490119934082,2,-0.1242854255271049,0.6548961387447717,0.02519376280615847,0.7450030189982134,0.9820616245269775,0.1521874368190765,-0.1113283634185791,30.67877960205078,4.384963989257812,-34.49786376953125,2,105783.6366030417,1,2,1582558693.808677,0,0,0,0,0,0,0,0,0,105782.968876,0,-0.5099792,99.37029
1582558695.7692,170,0,1582558694.407497,41.20723624385456,29.07455817154347,168.0443,0.2180424,-1,3,24.00362482104263,-9999,105785.5812975,0.967620849609375,0.1565399169921875,-0.089385986328125,105785.5752555,0.2041418047786425,1.458568360652227,-0.1538161315690083,-0.01554504502564669,0.06255762279033661,-0.1049951240420341,0.004782021045684814,-0.0001664906740188599,0.02043449878692627,2,-0.1246867213457233,0.6550710479245042,0.02482299668985244,0.7447945002574333,0.9819768071174622,0.153210312128067,-0.1106702908873558,30.67877960205078,4.384963989257812,-34.49786376953125,2,105783.6366030417,1,2,1582558693.808677,0,0,0,0,0,0,0,0,0,105782.968876,0,-0.5099792,99.37029
1582558695.770174,171,0,1582558694.407497,41.20723624385456,29.07455817154347,168.0443,0.2180424,-1,3,24.00362482104263,-9999,105785.5913375,0.9543914794921875,0.1552581787109375,-0.1009368896484375,105785.5852955,0.2041420833568115,1.459073947166936,-0.1547451937239016,-0.01167653687298298,0.04904234036803246,-0.0934830829501152,-0.01892030239105225,0.002272441983222961,0.01844221353530884,2,-0.1250341064702633,0.6552003650601478,0.0244817795722737,0.7446339635887537,0.9818909764289856,0.1541283428668976,-0.1101579070091248,30.73540496826172,4.325736999511719,-34.5738525390625,2,105783.6366030417,1,2,1582558693.808677,0,0,0,0,0,0,0,0,0,105782.968876,0,-0.5099792,99.37029
1582558695.771044,172,0,1582558694.407497,41.20723624385456,29.07455817154347,168.0443,0.2180424,-1,3,24.00362482104263,-9999,105785.6013785,0.9701080322265625,0.15264892578125,-0.1005859375,105785.5953355,0.2041215482726475,1.459494942709039,-0.1556045398426048,-0.007718340028077364,0.03927436098456383,-0.08570079505443573,-0.02625048160552979,-0.0001787841320037842,0.007882058620452881,2,-0.1253479031703708,0.6553037628994034,0.02416117359512526,0.7445006043370463,0.9818052053451538,0.1549773663282394,-0.1097297593951225,30.73540496826172,4.325736999511719,-34.5738525390625,2,105783.6366030417,1,2,1582558693.808677,0,0,0,0,0,0,0,0,0,105782.968876,0,-0.5099792,99.37029
