loggingTime,loggingSample,identifierForVendor,locationTimestamp_since1970,locationLatitude,locationLongitude,locationAltitude,locationSpeed,locationCourse,locationVerticalAccuracy,locationHorizontalAccuracy,locationFloor,accelerometerTimestamp_sinceReboot,accelerometerAccelerationX,accelerometerAccelerationY,accelerometerAccelerationZ,motionTimestamp_sinceReboot,motionYaw,motionRoll,motionPitch,motionRotationRateX,motionRotationRateY,motionRotationRateZ,motionUserAccelerationX,motionUserAccelerationY,motionUserAccelerationZ,motionAttitudeReferenceFrame,motionQuaternionX,motionQuaternionY,motionQuaternionZ,motionQuaternionW,motionGravityX,motionGravityY,motionGravityZ,motionMagneticFieldX,motionMagneticFieldY,motionMagneticFieldZ,motionMagneticFieldCalibrationAccuracy,activityTimestamp_sinceReboot,activity,activityActivityConfidence,activityActivityStartDate,pedometerStartDate,pedometerNumberofSteps,pedometerAverageActivePace,pedometerCurrentPace,pedometerCurrentCadence,pedometerDistance,pedometerFloorAscended,pedometerFloorDescended,pedometerEndDate,altimeterTimestamp_sinceReboot,altimeterReset,altimeterRelativeAltitude,altimeterPressure
1580908568.558819,1,0,1580907286.99823,41.20781296037784,29.0754925099451,275.2123,0.1345286,-1,23.46983528137207,200,-9999,12284.334074875,0.9674224853515625,0.0942535400390625,-0.15875244140625,12284.324033875,1.293199580203051,1.421871402962708,-0.1008864061110224,-0.00464435713365674,0.019222067669034,-0.005751675926148891,-0.02555239200592041,-0.007787913084030151,-0.01148778200149536,2,-0.4231360674225336,0.4971373670588566,0.4296859087329847,0.6238432957973414,0.9839028120040894,0.1007153540849686,-0.1476206183433533,51.19249725341797,38.44355010986328,9.855743408203125,2,12280.68900629167,4,2,1580908564.930173,1580903939.50652,2875,0.4912658,0.8527173,1.363914,3428.459,14,15,1580908565.652,12281.60543,0,17.87531,96.99564
1580908568.560109,2,0,1580907286.99823,41.20781296037784,29.0754925099451,275.2123,0.1345286,-1,23.46983528137207,200,-9999,12284.344114875,0.9675750732421875,0.097076416015625,-0.1534576416015625,12284.334074875,1.293235213609939,1.42211695098889,-0.1009922224951085,-0.005043600220233202,0.02704720757901669,-0.01027022767812014,-0.02037513256072998,-0.007390022277832031,-0.01476848125457764,2,-0.4232286094419705,0.497180886258648,0.4296163109864003,0.6237936868777012,0.9839284420013428,0.1008206307888031,-0.1473774164915085,51.24573516845703,38.27628326416016,9.8994140625,2,12280.68900629167,4,2,1580908564.930173,1580903939.50652,2875,0.4912658,0.8527173,1.363914,3428.459,14,15,1580908565.652,12281.60543,0,17.87531,96.99564
1580908568.561346,3,0,1580907286.99823,41.20781296037784,29.0754925099451,275.2123,0.1345286,-1,23.46983528137207,200,-9999,12284.354154875,0.9654388427734375,0.0989227294921875,-0.1533203125,12284.344114875,1.293263137805523,1.42231459759749,-0.1011036338143949,-0.004053170792758465,0.02003856562077999,-0.01091444678604603,-0.01972174644470215,-0.004510551691055298,-0.009899497032165527,2,-0.4233105481507133,0.497209753657416,0.4295529215991902,0.6237587072145734,0.9839463829994202,0.1009314730763435,-0.1471812874078751,51.24573516845703,38.27628326416016,9.8994140625,2,12280.68900629167,4,2,1580908564.930173,1580903939.50652,2875,0.4912658,0.8527173,1.363914,3428.459,14,15,1580908565.652,12281.60543,0,17.87531,96.99564
1580908568.581982,4,0,1580907286.99823,41.20781296037784,29.0754925099451,275.2123,0.1345286,-1,23.46983528137207,200,-9999,12284.364194875,0.966033935546875,0.0986480712890625,-0.1531829833984375,12284.354154875,1.293284947956584,1.422479948595172,-0.1011876916716095,-0.004295214544981718,0.01771453022956848,-0.008206583559513092,-0.02185869216918945,-0.002610862255096436,-0.009133219718933105,2,-0.4233760268606422,0.4972364385178908,0.4295018856290364,0.6237281358680719,0.9839622974395752,0.101015105843544,-0.1470173299312592,51.25397491455078,38.10251998901367,10.00033569335938,2,12280.68900629167,4,2,1580908564.930173,1580903939.50652,2875,0.4912658,0.8527173,1.363914,3428.459,14,15,1580908565.652,12281.60543,0,17.87531,96.99564
1580908568.583252,5,0,1580907286.99823,41.20781296037784,29.0754925099451,275.2123,0.1345286,-1,23.46983528137207,200,-9999,12284.374235875,0.9681243896484375,0.09844970703125,-0.1513519287109375,12284.364194875,1.293280587194773,1.422556392474787,-0.1012501433440717,-9.123235940933228e-06,0.007583335041999817,-0.005554607603698969,-0.02171117067337036,-0.002841025590896606,-0.009774267673492432,2,-0.4234095806648743,0.497246151738561,0.4294673804214632,0.6237214091127389,0.9839673638343811,0.1010772362351418,-0.1469411849975586,51.25397491455078,38.10251998901367,10.00033569335938,2,12280.68900629167,4,2,1580908564.930173,1580903939.50652,2875,0.4912658,0.8527173,1.363914,3428.459,14,15,1580908565.652,12281.60543,0,17.87531,96.99564
1580908568.586673,6,0,1580907286.99823,41.20781296037784,29.0754925099451,275.2123,0.1345286,-1,23.46983528137207,200,-9999,12284.384275875,0.97100830078125,0.0966796875,-0.153106689453125,12284.374235875,1.293270106683659,1.422556273643018,-0.1013150883844532,0.0002629151567816734,0.00131949782371521,-0.005829037632793188,-0.01973617076873779,-0.002966910600662231,-0.007486224174499512,2,-0.4234259051392157,0.4972326784291742,0.4294464929821069,0.6237354656919671,0.9839608669281006,0.1011418476700783,-0.1469403356313705,51.11363983154297,38.32551574707031,9.913360595703125,2,12280.68900629167,4,2,1580908564.930173,1580903939.50652,2875,0.4912658,0.8527173,1.363914,3428.459,14,15,1580908565.652,12281.60543,0,17.87531,96.99564
1580908568.597203,7,0,1580907286.99823,41.20781296037784,29.0754925099451,275.2123,0.1345286,-1,23.46983528137207,200,-9999,12284.394315875,0.968231201171875,0.0976104736328125,-0.155548095703125,12284.384275875,1.293255908362089,1.422483853724934,-0.1013833427430443,0.0002868836745619774,-0.00671659130603075,-0.006961413659155369,-0.01662099361419678,-0.004972934722900391,-0.008941471576690674,2,-0.4234267366350021,0.4971966511482127,0.4294388593707357,0.6237689218431884,0.9839434027671814,0.1012097522616386,-0.1470105797052383,51.11363983154297,38.32551574707031,9.913360595703125,2,12280.68900629167,4,2,1580908564.930173,1580903939.50652,2875,0.4912658,0.8527173,1.363914,3428.459,14,15,1580908565.652,12281.60543,0,17.87531,96.99564
1580908568.60674,8,0,1580907286.99823,41.20781296037784,29.0754925099451,275.2123,0.1345286,-1,23.46983528137207,200,-9999,12284.404386875,0.964080810546875,0.0982513427734375,-0.155731201171875,12284.394315875,1.293247058393411,1.422389111187075,-0.1014519634091154,5.170702934265137e-05,-0.009129732847213745,-0.008007747121155262,-0.01882803440093994,-0.004171699285507202,-0.01127523183822632,2,-0.4234242677140688,0.4971524044830324,0.4294374894693632,0.6238066895958678,0.9839224815368652,0.1012780219316483,-0.1471027582883835,51.00041961669922,38.15625381469727,10.21743774414062,2,12280.68900629167,4,2,1580908564.930173,1580903939.50652,2875,0.4912658,0.8527173,1.363914,3428.459,14,15,1580908565.652,12281.60543,0,17.87531,96.99564
1580908568.616843,9,0,1580907286.99823,41.20781296037784,29.0754925099451,275.2123,0.1345286,-1,23.46983528137207,200,-9999,12284.41442125,0.9655303955078125,0.10009765625,-0.15423583984375,12284.404386875,1.293240785402217,1.422286409498853,-0.1015138381406635,-0.0004894472658634186,-0.008262075483798981,-0.007155269384384155,-0.02326208353042603,-0.00340956449508667,-0.01157140731811523,2,-0.4234186789895911,0.4971068043787009,0.4294404873854054,0.6238448843391677,0.98390132188797,0.10133957862854,-0.1472028940916061,51.00041961669922,38.15625381469727,10.21743774414062,2,12280.68900629167,4,2,1580908564.930173,1580903939.50652,2875,0.4912658,0.8527173,1.363914,3428.459,14,15,1580908565.652,12281.60543,0,17.87531,96.99564
1580908568.6423,10,0,1580907286.99823,41.20781296037784,29.0754925099451,275.2123,0.1345286,-1,23.46983528137207,200,-9999,12284.42446225,0.9639129638671875,0.1004791259765625,-0.1543121337890625,12284.41442125,1.293216111761421,1.422134944273922,-0.1015368440863319,0.002196772955358028,-0.01459254138171673,-0.002491972409188747,-0.02203196287155151,-0.001830309629440308,-0.01003348827362061,2,-0.4233867153471433,0.497059248144731,0.429458619464014,0.6238920616361017,0.9838767647743225,0.1013624668121338,-0.1473515927791595,51.01479339599609,38.15889358520508,10.072265625,2,12280.68900629167,4,2,1580908564.930173,1580903939.50652,2875,0.4912658,0.8527173,1.363914,3428.459,14,15,1580908565.652,12281.60543,0,17.87531,96.99564
1580908568.643364,11,0,1580907286.99823,41.20781296037784,29.0754925099451,275.2123,0.1345286,-1,23.46983528137207,200,-9999,12284.43450225,0.966400146484375,0.0988006591796875,-0.15191650390625,12284.42446225,1.293169516883939,1.42195495635857,-0.1015131430172567,0.005757685750722885,-0.01552544720470905,0.001457495614886284,-0.02351832389831543,-0.001074254512786865,-0.01005399227142334,2,-0.4233296285383095,0.4970186390398782,0.4294885870780665,0.6239423322166094,0.9838524460792542,0.1013388857245445,-0.1475289911031723,51.01479339599609,38.15889358520508,10.072265625,2,12280.68900629167,4,2,1580908564.930173,1580903939.50652,2875,0.4912658,0.8527173,1.363914,3428.459,14,15,1580908565.652,12281.60543,0,17.87531,96.99564
1580908568.646849,12,0,1580907286.99823,41.20781296037784,29.0754925099451,275.2123,0.1345286,-1,23.46983528137207,200,-9999,12284.44454225,0.962158203125,0.098541259765625,-0.157135009765625,12284.43450225,1.293148699481166,1.421702589558847,-0.1014506348613513,0.00188154075294733,-0.02589810080826283,0.006421013735234737,-0.02103066444396973,-0.002613991498947144,-0.007316648960113525,2,-0.4232519714836896,0.4969594044284176,0.4295525018223045,0.6239982863271923,0.9838215112686157,0.101276695728302,-0.1477782428264618,51.06768035888672,38.42050170898438,10.02178955078125,2,12280.68900629167,4,2,1580908564.930173,1580903939.50652,2875,0.4912658,0.8527173,1.363914,3428.459,14,15,1580908565.652,12281.60543,0,17.87531,96.99564
1580908568.657007,13,0,1580907286.99823,41.20781296037784,29.0754925099451,275.2123,0.1345286,-1,23.46983528137207,200,-9999,12284.45458325,0.961639404296875,0.0982666015625,-0.156768798828125,12284.44454225,1.293131717672687,1.421499708992226,-0.1013610395811381,0.002767574042081833,-0.01923087798058987,0.008418917655944824,-0.02447330951690674,-0.00308912992477417,-0.01154017448425293,2,-0.4231780409914458,0.4969212843649453,0.4296144494481446,0.624036032894758,0.9838003516197205,0.101187564432621,-0.1479791700839996,51.17357635498047,38.36963272094727,9.942657470703125,2,12280.68900629167,4,2,1580908564.930173,1580903939.50652,2875,0.4912658,0.8527173,1.363914,3428.459,14,15,1580908565.652,12281.60543,0,17.87531,96.99564
1580908568.666994,14,0,1580907286.99823,41.20781296037784,29.0754925099451,275.2123,0.1345286,-1,23.46983528137207,200,-9999,12284.46462325,0.962646484375,0.0967254638671875,-0.1561126708984375,12284.45458325,1.293108298837951,1.421346195522134,-0.1012483173064646,0.004686095751821995,-0.01426705904304981,0.01122670993208885,-0.02589625120162964,-0.003037631511688232,-0.01219558715820312,2,-0.423106262272153,0.4969055588970591,0.4296702632750796,0.6240589553687343,0.9837890863418579,0.1010754182934761,-0.1481319069862366,51.17357635498047,38.36963272094727,9.942657470703125,2,12280.68900629167,4,2,1580908564.930173,1580903939.50652,2875,0.4912658,0.8527173,1.363914,3428.459,14,15,1580908565.652,12281.60543,0,17.87531,96.99564
1580908568.677036,15,0,1580907286.99823,41.20781296037784,29.0754925099451,275.2123,0.1345286,-1,23.46983528137207,200,-9999,12284.47466325,0.9634246826171875,0.09613037109375,-0.1570587158203125,12284.46462325,1.293084714116786,1.421234105289832,-0.1011262464067702,0.004021903499960899,-0.01028350368142128,0.01168850250542164,-0.02459478378295898,-0.004487365484237671,-0.01080131530761719,2,-0.42304067784014,0.4969049997705052,0.4297197509555677,0.6240697244005226,0.9837846159934998,0.1009539738297462,-0.1482440084218979,51.09429168701172,38.12247848510742,9.992645263671875,2,12280.68900629167,4,2,1580908564.930173,1580903939.50652,2875,0.4912658,0.8527173,1.363914,3428.459,14,15,1580908565.652,12281.60543,0,17.87531,96.99564
1580908568.707195,16,0,1580907286.99823,41.20781296037784,29.0754925099451,275.2123,0.1345286,-1,23.46983528137207,200,-9999,12284.48470325,0.9640350341796875,0.0979156494140625,-0.1560821533203125,12284.47466325,1.293070699624441,1.42116773317466,-0.10099908756675,0.002491869032382965,-0.005331877619028091,0.01197296660393476,-0.0239720344543457,-0.005001246929168701,-0.01164931058883667,2,-0.4229857568175109,0.496917934773965,0.4297639553252266,0.6240662819941734,0.9837875366210938,0.1008274629712105,-0.1483112275600433,51.09429168701172,38.12247848510742,9.992645263671875,2,12280.68900629167,4,2,1580908564.930173,1580903939.50652,2875,0.4912658,0.8527173,1.363914,3428.459,14,15,1580908565.652,12281.60543,0,17.87531,96.99564
1580908568.708489,17,0,1580907286.99823,41.20781296037784,29.0754925099451,275.2123,0.1345286,-1,23.46983528137207,200,-9999,12284.49477425,0.9652252197265625,0.09326171875,-0.1571807861328125,12284.48470325,1.293049462719911,1.421118328643289,-0.100891935545133,0.00462612695991993,-0.003775525838136673,0.01028771791607141,-0.02338045835494995,-0.003429442644119263,-0.01085138320922852,2,-0.4229385698000274,0.4969328402237209,0.4297968593028297,0.6240636845621679,0.9837908148765564,0.1007208600640297,-0.1483614295721054,51.07625579833984,38.34101867675781,9.87554931640625,2,12280.68900629167,4,2,1580908564.930173,1580903939.50652,2875,0.4912658,0.8527173,1.363914,3428.459,14,15,1580908565.652,12281.60543,0,17.87531,96.99564
1580908568.709501,18,0,1580907286.99823,41.20781296037784,29.0754925099451,275.2123,0.1345286,-1,23.46983528137207,200,-9999,12284.50481425,0.9626922607421875,0.0945281982421875,-0.1609344482421875,12284.49477425,1.293076578385375,1.42114608386898,-0.1008482050070323,-0.003422347363084555,0.002996005117893219,0.004036087542772293,-0.02244293689727783,-0.006941109895706177,-0.01151919364929199,2,-0.4229385282905254,0.4969462903545449,0.429811303587842,0.624042950192319,0.983799159526825,0.1006773486733437,-0.1483347713947296,51.07625579833984,38.34101867675781,9.87554931640625,2,12280.68900629167,4,2,1580908564.930173,1580903939.50652,2875,0.4912658,0.8527173,1.363914,3428.459,14,15,1580908565.652,12281.60543,0,17.87531,96.99564
1580908568.717341,19,0,1580907286.99823,41.20781296037784,29.0754925099451,275.2123,0.1345286,-1,23.46983528137207,200,-9999,12284.51485525,0.9638671875,0.099517822265625,-0.1561279296875,12284.50481425,1.293085842328286,1.421314142527774,-0.1008348305184161,-7.422082126140594e-05,0.02053292095661163,0.0004695821553468704,-0.02425467967987061,-0.007309228181838989,-0.01589620113372803,2,-0.4229729758366736,0.4970000303693598,0.4297823188693882,0.6239969487658807,0.9838256239891052,0.1006640419363976,-0.1481696665287018,51.27611541748047,38.05181884765625,10.10302734375,2,12280.68900629167,4,2,1580908564.930173,1580903939.50652,2875,0.4912658,0.8527173,1.363914,3428.459,14,15,1580908565.652,12281.60543,0,17.87531,96.99564
1580908568.727214,20,0,1580907286.99823,41.20781296037784,29.0754925099451,275.2123,0.1345286,-1,23.46983528137207,200,-9999,12284.52489525,0.9655609130859375,0.098114013671875,-0.154388427734375,12284.51485525,1.29312078829603,1.421435964247394,-0.1008060109353,-0.00440105888992548,0.0112701803445816,0.003464040346443653,-0.02424526214599609,-0.001619398593902588,-0.01185059547424316,2,-0.4229994535589393,0.4970375735689964,0.4297752622601253,0.6239538502893831,0.9838464260101318,0.10063536465168,-0.1480502188205719,51.27611541748047,38.05181884765625,10.10302734375,2,12280.68900629167,4,2,1580908564.930173,1580903939.50652,2875,0.4912658,0.8527173,1.363914,3428.459,14,15,1580908565.652,12281.60543,0,17.87531,96.99564
1580908568.737798,21,0,1580907286.99823,41.20781296037784,29.0754925099451,275.2123,0.1345286,-1,23.46983528137207,200,-9999,12284.53493525,0.96490478515625,0.0973052978515625,-0.156341552734375,12284.52489525,1.293148387241752,1.421551454448476,-0.100772012641695,-0.001711532473564148,0.01332081481814384,0.004302670247852802,-0.02148866653442383,-0.002668827772140503,-0.009309172630310059,2,-0.4230212061337305,0.4970759570741627,0.4297686716750498,0.6239130362107512,0.9838668704032898,0.10060153901577,-0.1479371041059494,51.18527984619141,38.03314590454102,10.00106811523438,2,12280.68900629167,4,2,1580908564.930173,1580903939.50652,2875,0.4912658,0.8527173,1.363914,3428.459,14,15,1580908565.652,12281.60543,0,17.87531,96.99564
1580908568.770677,22,0,1580907286.99823,41.20781296037784,29.0754925099451,275.2123,0.1345286,-1,23.46983528137207,200,-9999,12284.54497625,0.96630859375,0.099029541015625,-0.1545257568359375,12284.53493525,1.29316960927982,1.421653211566585,-0.1007394348991321,-0.0009533502161502838,0.01092205755412579,0.003910941071808338,-0.02266663312911987,-0.00368914008140564,-0.01162171363830566,2,-0.4230388577990415,0.4971110481001895,0.4297625987405634,0.6238772067255655,0.9838850498199463,0.1005691289901733,-0.1478374600410461,51.18527984619141,38.03314590454102,10.00106811523438,2,12280.68900629167,4,2,1580908564.930173,1580903939.50652,2875,0.4912658,0.8527173,1.363914,3428.459,14,15,1580908565.652,12281.60543,0,17.87531,96.99564
1580908568.772004,23,0,1580907286.99823,41.20781296037784,29.0754925099451,275.2123,0.1345286,-1,23.46983528137207,200,-9999,12284.55501625,0.9656829833984375,0.1004638671875,-0.15313720703125,12284.54497625,1.293201257396509,1.421705104108636,-0.100676942715636,-0.001838052179664373,0.006778178736567497,0.007355473935604095,-0.02104794979095459,-0.001963615417480469,-0.01013094186782837,2,-0.4230396031858609,0.4971356168477779,0.4297784721872946,0.6238462336920378,0.9838989973068237,0.100506953895092,-0.1477873474359512,51.23873138427734,37.94710159301758,10.061767578125,2,12280.68900629167,4,2,1580908564.930173,1580903939.50652,2875,0.4912658,0.8527173,1.363914,3428.459,14,15,1580908565.652,12281.60543,0,17.87531,96.99564
1580908568.772974,24,0,1580907286.99823,41.20781296037784,29.0754925099451,275.2123,0.1345286,-1,23.46983528137207,200,-9999,12284.56505625,0.968353271484375,0.0986785888671875,-0.15399169921875,12284.55501625,1.293213459257281,1.421700752042563,-0.1005831299719652,0.0001776507124304771,0.0004125982522964478,0.009087903425097466,-0.0219264030456543,-0.0001304149627685547,-0.008522927761077881,2,-0.4230142580553684,0.497154317641695,0.429808691975991,0.6238278028370261,0.9839077591896057,0.1004136130213737,-0.1477930396795273,51.23873138427734,37.94710159301758,10.061767578125,2,12280.68900629167,4,2,1580908564.930173,1580903939.50652,2875,0.4912658,0.8527173,1.363914,3428.459,14,15,1580908565.652,12281.60543,0,17.87531,96.99564
1580908568.777485,25,0,1580907286.99823,41.20781296037784,29.0754925099451,275.2123,0.1345286,-1,23.46983528137207,200,-9999,12284.57509625,0.96978759765625,0.09796142578125,-0.153350830078125,12284.56505625,1.293211235670039,1.421668441938195,-0.100474583011676,0.001385659910738468,-0.002579463645815849,0.01020323485136032,-0.01958262920379639,-0.001807302236557007,-0.009359180927276611,2,-0.4229750548479311,0.4971708743034086,0.4298443010422663,0.6238166356838308,0.983913779258728,0.1003056168556213,-0.1478264480829239,50.97800445556641,38.03217315673828,10.08786010742188,2,12280.68900629167,4,2,1580908564.930173,1580903939.50652,2875,0.4912658,0.8527173,1.363914,3428.459,14,15,1580908565.652,12281.60543,0,17.87531,96.99564
1580908568.78762,26,0,1580907286.99823,41.20781296037784,29.0754925099451,275.2123,0.1345286,-1,23.46983528137207,200,-9999,12284.58516725,0.967803955078125,0.0969390869140625,-0.1558380126953125,12284.57509625,1.293209944278507,1.421605725587684,-0.1003790638770592,0.001084391959011555,-0.006366877816617489,0.009295961819589138,-0.01766014099121094,-0.002795308828353882,-0.008395552635192871,2,-0.4229333565370736,0.4971746056204702,0.4298830889279102,0.6238151730613205,0.9839138984680176,0.100210577249527,-0.147889569401741,50.97800445556641,38.03217315673828,10.08786010742188,2,12280.68900629167,4,2,1580908564.930173,1580903939.50652,2875,0.4912658,0.8527173,1.363914,3428.459,14,15,1580908565.652,12281.60543,0,17.87531,96.99564
1580908568.797631,27,0,1580907286.99823,41.20781296037784,29.0754925099451,275.2123,0.1345286,-1,23.46983528137207,200,-9999,12284.59520825,0.9664459228515625,0.0961456298828125,-0.155303955078125,12284.58516725,1.293206061937252,1.421528260268998,-0.1003012114311133,0.001042580232024193,-0.007816968485713005,0.007879958488047123,-0.01945698261260986,-0.003312647342681885,-0.01091194152832031,2,-0.4228929836729082,0.4971700370034353,0.4299193988267375,0.6238211863979337,0.9839102029800415,0.1001331210136414,-0.1479669511318207,51.16519927978516,38.07101440429688,10.05447387695312,2,12280.68900629167,4,2,1580908564.930173,1580903939.50652,2875,0.4912658,0.8527173,1.363914,3428.459,14,15,1580908565.652,12281.60543,0,17.87531,96.99564
1580908568.830833,28,0,1580907286.99823,41.20781296037784,29.0754925099451,275.2123,0.1345286,-1,23.46983528137207,200,-9999,12284.60524825,0.9673919677734375,0.0947418212890625,-0.1544036865234375,12284.59520825,1.293215792396373,1.421479194938456,-0.1002457877361044,-0.0004201214760541916,-0.002873500809073448,0.006162576377391815,-0.02098101377487183,-0.004142314195632935,-0.01052689552307129,2,-0.4228686700922977,0.4971660297190764,0.4299478481438698,0.6238212240111769,0.9839084148406982,0.1000779718160629,-0.1480160504579544,51.16519927978516,38.07101440429688,10.05447387695312,2,12280.68900629167,4,2,1580908564.930173,1580903939.50652,2875,0.4912658,0.8527173,1.363914,3428.459,14,15,1580908565.652,12281.60543,0,17.87531,96.99564
1580908568.832257,29,0,1580907286.99823,41.20781296037784,29.0754925099451,275.2123,0.1345286,-1,23.46983528137207,200,-9999,12284.61528825,0.9671783447265625,0.095245361328125,-0.15509033203125,12284.60524825,1.293222131840816,1.421417200698991,-0.1002298645930518,0.0003889473155140877,-0.005388058722019196,0.000915084034204483,-0.02025628089904785,-0.005545437335968018,-0.009244680404663086,2,-0.4228522666855236,0.4971491902420946,0.4299672546500027,0.6238323839788669,0.983900785446167,0.1000621318817139,-0.1480772793292999,51.24764251708984,38.30813598632812,9.96197509765625,2,12280.68900629167,4,2,1580908564.930173,1580903939.50652,2875,0.4912658,0.8527173,1.363914,3428.459,14,15,1580908565.652,12281.60543,0,17.87531,96.99564
1580908568.833471,30,0,1580907286.99823,41.20781296037784,29.0754925099451,275.2123,0.1345286,-1,23.46983528137207,200,-9999,12284.62532825,0.9652557373046875,0.096527099609375,-0.1567840576171875,12284.61528825,1.293237274664684,1.42134982740584,-0.1002334952040664,-0.001832201611250639,-0.006058583967387676,-0.0003581112250685692,-0.02013891935348511,-0.005335479974746704,-0.009971559047698975,2,-0.4228425915269275,0.4971241080505204,0.42998524551833,0.6238465761279,0.9838904738426208,0.1000657454133034,-0.1481435298919678,51.24764251708984,38.30813598632812,9.96197509765625,2,12280.68900629167,4,2,1580908564.930173,1580903939.50652,2875,0.4912658,0.8527173,1.363914,3428.459,14,15,1580908565.652,12281.60543,0,17.87531,96.99564
1580908568.838305,31,0,1580907286.99823,41.20781296037784,29.0754925099451,275.2123,0.1345286,-1,23.46983528137207,200,-9999,12284.63536925,0.966552734375,0.097503662109375,-0.15643310546875,12284.62532825,1.293258065405349,1.421331116527922,-0.1002409608111069,-0.003222637809813023,-0.001003105193376541,-0.0014028693549335,-0.02189016342163086,-0.004045933485031128,-0.01147907972335815,2,-0.4228459198433102,0.4971120752677735,0.4299936591981351,0.623848104652869,0.9838869571685791,0.1000731736421585,-0.1481618285179138,51.20130157470703,38.11241912841797,10.01300048828125,2,12280.68900629167,4,2,1580908564.930173,1580903939.50652,2875,0.4912658,0.8527173,1.363914,3428.459,14,15,1580908565.652,12281.60543,0,17.87531,96.99564
1580908568.847944,32,0,1580907286.99823,41.20781296037784,29.0754925099451,275.2123,0.1345286,-1,23.46983528137207,200,-9999,12284.64540925,0.9644927978515625,0.100860595703125,-0.15362548828125,12284.63536925,1.293290066608695,1.421304828471289,-0.1001996470954146,-0.001665543299168348,-0.002647422254085541,0.003419387154281139,-0.02127987146377563,-0.003150135278701782,-0.01168131828308105,2,-0.4228361587071324,0.4971070634678557,0.4300204069907962,0.623840247557568,0.9838871359825134,0.1000320613384247,-0.1481883078813553,51.20130157470703,38.11241912841797,10.01300048828125,2,12280.68900629167,4,2,1580908564.930173,1580903939.50652,2875,0.4912658,0.8527173,1.363914,3428.459,14,15,1580908565.652,12281.60543,0,17.87531,96.99564
1580908568.857831,33,0,1580907286.99823,41.20781296037784,29.0754925099451,275.2123,0.1345286,-1,23.46983528137207,200,-9999,12284.65544925,0.9688873291015625,0.1038360595703125,-0.1516876220703125,12284.64540925,1.293375196603488,1.421200983465735,-0.1000216187785825,-0.005680791102349758,-0.009161513298749924,0.01826810836791992,-0.02271640300750732,3.361701965332031e-05,-0.008493900299072266,2,-0.4227829898842287,0.4970995765012094,0.4301172136930563,0.6238154201616193,0.9838892221450806,0.09985492378473282,-0.1482931077480316,51.20490264892578,37.99907684326172,9.914215087890625,2,12280.68900629167,4,2,1580908564.930173,1580903939.50652,2875,0.4912658,0.8527173,1.363914,3428.459,14,15,1580908565.652,12281.60543,0,17.87531,96.99564
1580908568.889517,34,0,1580907286.99823,41.20781296037784,29.0754925099451,275.2123,0.1345286,-1,23.46983528137207,200,-9999,12284.66549025,0.9732818603515625,0.100433349609375,-0.150634765625,12284.65544925,1.293487676362945,1.420946891539429,-0.09969467956795675,-0.006604003719985485,-0.02615836076438427,0.03368903324007988,-0.01920139789581299,0.003854364156723022,-0.006437540054321289,2,-0.4226607174245132,0.4970753774401981,0.430294719938862,0.6237951811065834,0.983883798122406,0.09952961653470993,-0.1485479772090912,51.20490264892578,37.99907684326172,9.914215087890625,2,12280.68900629167,4,2,1580908564.930173,1580903939.50652,2875,0.4912658,0.8527173,1.363914,3428.459,14,15,1580908565.652,12281.60543,0,17.87531,96.99564
1580908568.890721,35,0,1580907286.99823,41.20781296037784,29.0754925099451,275.2123,0.1345286,-1,23.46983528137207,200,-9999,12284.67556025,0.971527099609375,0.100677490234375,-0.1483612060546875,12284.66549025,1.293579586044399,1.420502093910861,-0.09929099798264546,-0.002776508219540119,-0.04352829605340958,0.04045426100492477,-0.01429194211959839,0.001358330249786377,-0.004970014095306396,2,-0.422469816979648,0.4970145450140268,0.4305268584029489,0.6238127929615653,0.983857274055481,0.09912793338298798,-0.148991584777832,51.20810699462891,38.16835784912109,9.86834716796875,2,12280.68900629167,4,2,1580908564.930173,1580903939.50652,2875,0.4912658,0.8527173,1.363914,3428.459,14,15,1580908565.652,12281.60543,0,17.87531,96.99564
1580908568.891752,36,0,1580907286.99823,41.20781296037784,29.0754925099451,275.2123,0.1345286,-1,23.46983528137207,200,-9999,12284.68560125,0.965545654296875,0.0983734130859375,-0.152374267578125,12284.67556025,1.293626161838816,1.419850144488674,-0.09881826278652581,0.002094884403049946,-0.06524813175201416,0.04785019159317017,-0.01532405614852905,0.001677870750427246,-0.001770973205566406,2,-0.4222027239579071,0.4969153331576656,0.4308072283919545,0.6238791446792928,0.9838061928749084,0.0986575111746788,-0.1496400237083435,51.20810699462891,38.16835784912109,9.86834716796875,2,12280.68900629167,4,2,1580908564.930173,1580903939.50652,2875,0.4912658,0.8527173,1.363914,3428.459,14,15,1580908565.652,12281.60543,0,17.87531,96.99564
1580908568.898069,37,0,1580907286.99823,41.20781296037784,29.0754925099451,275.2123,0.1345286,-1,23.46983528137207,200,-9999,12284.69564125,0.9523162841796875,0.08782958984375,-0.1639251708984375,12284.68560125,1.293628474410691,1.419109089386772,-0.09833448457002858,0.006725587882101536,-0.07674552500247955,0.04903796315193176,-0.02102756500244141,0.0004520118236541748,-0.004465460777282715,2,-0.4219020518600196,0.4968003036015384,0.4310954153598915,0.6239751007368497,0.9837421178817749,0.09817608445882797,-0.1503762304782867,51.09397125244141,37.89472198486328,9.803466796875,2,12280.68900629167,4,2,1580908564.930173,1580903939.50652,2875,0.4912658,0.8527173,1.363914,3428.459,14,15,1580908565.652,12281.60543,0,17.87531,96.99564
1580908568.908036,38,0,1580907286.99823,41.20781296037784,29.0754925099451,275.2123,0.1345286,-1,23.46983528137207,200,-9999,12284.70568125,0.94287109375,0.0825653076171875,-0.1789093017578125,12284.69564125,1.293668122456552,1.41872470513061,-0.0979900642148117,-0.0001016519963741302,-0.0410044752061367,0.03193856030702591,-0.03304207324981689,-0.009076356887817383,-0.01434993743896484,2,-0.4217282330965126,0.4967550385356102,0.4312821162920136,0.6239995441992342,0.9837175011634827,0.09783332049846649,-0.1507594585418701,51.09397125244141,37.89472198486328,9.803466796875,2,12280.68900629167,4,2,1580908564.930173,1580903939.50652,2875,0.4912658,0.8527173,1.363914,3428.459,14,15,1580908565.652,12281.60543,0,17.87531,96.99564
1580908568.918131,39,0,1580907286.99823,41.20781296037784,29.0754925099451,275.2123,0.1345286,-1,23.46983528137207,200,-9999,12284.71572125,0.9553985595703125,0.0845794677734375,-0.171783447265625,12284.70568125,1.293687259476492,1.418934535644191,-0.09785397190436969,0.003499208018183708,0.02115689963102341,0.01042474433779716,-0.04523307085037231,-0.0155932605266571,-0.03111082315444946,2,-0.4217383715201057,0.4968492874080256,0.4312807025485427,0.6239186857423433,0.9837623238563538,0.09769788384437561,-0.1505550593137741,51.31249237060547,37.95726776123047,9.8409423828125,2,12280.68900629167,4,2,1580908564.930173,1580903939.50652,2875,0.4912658,0.8527173,1.363914,3428.459,14,15,1580908565.652,12281.60543,0,17.87531,96.99564
1580908568.953438,40,0,1580907286.99823,41.20781296037784,29.0754925099451,275.2123,0.1345286,-1,23.46983528137207,200,-9999,12284.72576225,0.968536376953125,0.0897369384765625,-0.15966796875,12284.71572125,1.29374644116846,1.419517289338407,-0.09791434794552968,-0.00679841497913003,0.06040554493665695,-0.007016849238425493,-0.03329122066497803,-0.0134257972240448,-0.02614831924438477,2,-0.4218963999966942,0.4970040239963147,0.4311599011675628,0.6237720685355338,0.9838441014289856,0.0977579653263092,-0.1499808579683304,51.31249237060547,37.95726776123047,9.8409423828125,2,12280.68900629167,4,2,1580908564.930173,1580903939.50652,2875,0.4912658,0.8527173,1.363914,3428.459,14,15,1580908565.652,12281.60543,0,17.87531,96.99564
1580908568.955204,41,0,1580907286.99823,41.20781296037784,29.0754925099451,275.2123,0.1345286,-1,23.46983528137207,200,-9999,12284.73580225,0.9786529541015625,0.0986785888671875,-0.1481781005859375,12284.72576225,1.29381466116365,1.420118091490446,-0.09807372894971575,-0.009588874876499176,0.0605674684047699,-0.01584229804575443,-0.02053338289260864,-0.009434640407562256,-0.01493358612060547,2,-0.4220894596314665,0.497138597029994,0.4310112456388426,0.6236370333418058,0.9839186668395996,0.09791658818721771,-0.1493874043226242,51.07633209228516,37.88868713378906,9.918304443359375,2,12280.68900629167,4,2,1580908564.930173,1580903939.50652,2875,0.4912658,0.8527173,1.363914,3428.459,14,15,1580908565.652,12281.60543,0,17.87531,96.99564
1580908568.956283,42,0,1580907286.99823,41.20781296037784,29.0754925099451,275.2123,0.1345286,-1,23.46983528137207,200,-9999,12284.74584225,0.9762725830078125,0.0980377197265625,-0.1476898193359375,12284.73580225,1.293831243338559,1.420486100710121,-0.09825454843190787,-0.004015069454908371,0.03764557838439941,-0.01816412433981895,-0.009111404418945312,-0.0001700222492218018,-0.002939939498901367,2,-0.4222258010460854,0.4972062486290232,0.4308897176727084,0.6235746995576587,0.983955979347229,0.09809653460979462,-0.14902263879776,51.07633209228516,37.88868713378906,9.918304443359375,2,12280.68900629167,4,2,1580908564.930173,1580903939.50652,2875,0.4912658,0.8527173,1.363914,3428.459,14,15,1580908565.652,12281.60543,0,17.87531,96.99564
1580908568.958311,43,0,1580907286.99823,41.20781296037784,29.0754925099451,275.2123,0.1345286,-1,23.46983528137207,200,-9999,12284.75588325,0.963836669921875,0.0978546142578125,-0.1548004150390625,12284.74584225,1.293849171092157,1.420604668572488,-0.09839301357811972,-0.004726932384073734,0.01017613708972931,-0.01337522827088833,-0.01030600070953369,-0.000262528657913208,-0.001334786415100098,2,-0.4222962563257721,0.4972060870267233,0.4308327648431027,0.6235665941842538,0.9839603304862976,0.09823433309793472,-0.148903951048851,50.96430206298828,38.07181167602539,9.64422607421875,2,12280.68900629167,4,2,1580908564.930173,1580903939.50652,2875,0.4912658,0.8527173,1.363914,3428.459,14,15,1580908565.652,12281.60543,0,17.87531,96.99564
1580908568.968828,44,0,1580907286.99823,41.20781296037784,29.0754925099451,275.2123,0.1345286,-1,23.46983528137207,200,-9999,12284.76592325,0.96136474609375,0.0995025634765625,-0.1567230224609375,12284.75588325,1.293883198798799,1.420709342218755,-0.09845635067084997,-0.005210276693105698,0.01067393273115158,-0.007215620949864388,-0.02226316928863525,-0.0009208619594573975,-0.008138000965118408,2,-0.4223458563518428,0.4972162289416111,0.4308040622869429,0.6235445374983338,0.9839695692062378,0.0982973575592041,-0.1488000005483627,50.96430206298828,38.07181167602539,9.64422607421875,2,12280.68900629167,4,2,1580908564.930173,1580903939.50652,2875,0.4912658,0.8527173,1.363914,3428.459,14,15,1580908565.652,12281.60543,0,17.87531,96.99564
1580908568.978359,45,0,1580907286.99823,41.20781296037784,29.0754925099451,275.2123,0.1345286,-1,23.46983528137207,200,-9999,12284.77599425,0.973114013671875,0.0970611572265625,-0.1523590087890625,12284.76592325,1.293905488771299,1.420796704009379,-0.09843889625351836,-0.001215268857777119,0.008968977257609367,0.001244176179170609,-0.02700811624526978,0.0007292032241821289,-0.01144367456436157,2,-0.422365109392249,0.4972429660761144,0.4307972957642119,0.6235148564981374,0.9839842319488525,0.09827999025583267,-0.1487142890691757,51.16977691650391,37.94422912597656,9.811737060546875,2,12280.68900629167,4,2,1580908564.930173,1580903939.50652,2875,0.4912658,0.8527173,1.363914,3428.459,14,15,1580908565.652,12281.60543,0,17.87531,96.99564
1580908569.010842,46,0,1580907286.99823,41.20781296037784,29.0754925099451,275.2123,0.1345286,-1,23.46983528137207,200,-9999,12284.78603425,0.9840240478515625,0.091461181640625,-0.1513824462890625,12284.77599425,1.293942646444827,1.420725279350461,-0.09843292673142537,-0.002253239043056965,-0.005328284576535225,-0.0003399960696697235,-0.01592028141021729,-0.000928044319152832,-0.006612181663513184,2,-0.4223571848882143,0.4972143097979005,0.4308255993084836,0.6235236135741169,0.983974277973175,0.09827405214309692,-0.1487846821546555,51.16977691650391,37.94422912597656,9.811737060546875,2,12280.68900629167,4,2,1580908564.930173,1580903939.50652,2875,0.4912658,0.8527173,1.363914,3428.459,14,15,1580908565.652,12281.60543,0,17.87531,96.99564
1580908569.01209,47,0,1580907286.99823,41.20781296037784,29.0754925099451,275.2123,0.1345286,-1,23.46983528137207,200,-9999,12284.79607425,0.980224609375,0.0976409912109375,-0.149688720703125,12284.78603425,1.294063175989322,1.420409811108586,-0.0984440234105152,-0.01309017464518547,-0.03010340593755245,-0.0009373435750603676,-0.003802299499511719,-0.007088422775268555,-0.005507469177246094,2,-0.4223224306602666,0.4970878252845976,0.4309267848369391,0.6235780669664566,0.9839262366294861,0.09828509390354156,-0.1490949243307114,51.31298065185547,37.86227798461914,9.77435302734375,2,12280.68900629167,4,2,1580908564.930173,1580903939.50652,2875,0.4912658,0.8527173,1.363914,3428.459,14,15,1580908565.652,12281.60543,0,17.87531,96.99564
1580908569.013644,48,0,1580907286.99823,41.20781296037784,29.0754925099451,275.2123,0.1345286,-1,23.46983528137207,200,-9999,12284.80611525,0.970489501953125,0.100128173828125,-0.150665283203125,12284.79607425,1.294228979898428,1.419828212159721,-0.09840675339867538,-0.01649043895304203,-0.05822118371725082,0.005820098333060741,-0.006740093231201172,-0.001634299755096436,-0.003421902656555176,2,-0.4222273614160674,0.4968804703753664,0.4311113978859639,0.62368017810094,0.9838430285453796,0.09824800491333008,-0.1496677100658417,51.31298065185547,37.86227798461914,9.77435302734375,2,12280.68900629167,4,2,1580908564.930173,1580903939.50652,2875,0.4912658,0.8527173,1.363914,3428.459,14,15,1580908565.652,12281.60543,0,17.87531,96.99564
1580908569.01866,49,0,1580907286.99823,41.20781296037784,29.0754925099451,275.2123,0.1345286,-1,23.46983528137207,200,-9999,12284.81615525,0.953125,0.096649169921875,-0.1608428955078125,12284.80611525,1.294351158628318,1.419104753820827,-0.09831990130700426,-0.011592086404562,-0.07448936998844147,0.01015865430235863,-0.01544398069381714,0.001717805862426758,-0.002920150756835938,2,-0.4220763752508332,0.4966499620796156,0.4313256987244042,0.6238176145871391,0.9837427735328674,0.09816157072782516,-0.1503807008266449,51.13875579833984,37.84788513183594,9.9940185546875,2,12280.68900629167,4,2,1580908564.930173,1580903939.50652,2875,0.4912658,0.8527173,1.363914,3428.459,14,15,1580908565.652,12281.60543,0,17.87531,96.99564
1580908569.02856,50,0,1580907286.99823,41.20781296037784,29.0754925099451,275.2123,0.1345286,-1,23.46983528137207,200,-9999,12284.82619525,0.947540283203125,0.1013031005859375,-0.1651611328125,12284.81615525,1.294346527736023,1.418597903293371,-0.09822531055438491,0.0006517060101032257,-0.04969681799411774,0.0076111676171422,-0.03257322311401367,-0.001361548900604248,-0.0119396448135376,2,-0.4219381477027059,0.4965156945641253,0.4314568520256813,0.6239275080390054,0.9836758375167847,0.09806744009256363,-0.1508807241916656,51.13875579833984,37.84788513183594,9.9940185546875,2,12280.68900629167,4,2,1580908564.930173,1580903939.50652,2875,0.4912658,0.8527173,1.363914,3428.459,14,15,1580908565.652,12281.60543,0,17.87531,96.99564
1580908569.038743,51,0,1580907286.99823,41.20781296037784,29.0754925099451,275.2123,0.1345286,-1,23.46983528137207,200,-9999,12284.83623525,0.968353271484375,0.1046142578125,-0.151092529296875,12284.82619525,1.294179152301658,1.418307681569561,-0.0980405008408429,0.02048905938863754,-0.02323804795742035,0.01568746939301491,-0.04035967588424683,0.002332568168640137,-0.01789140701293945,2,-0.4217799470212374,0.496504997590953,0.4315158425200816,0.6240020001266269,0.9836496710777283,0.09788351505994797,-0.1511689275503159,51.12735748291016,37.98174285888672,9.895263671875,2,12280.68900629167,4,2,1580908564.930173,1580903939.50652,2875,0.4912658,0.8527173,1.363914,3428.459,14,15,1580908565.652,12281.60543,0,17.87531,96.99564
1580908569.068096,52,0,1580907286.99823,41.20781296037784,29.0754925099451,275.2123,0.1345286,-1,23.46983528137207,200,-9999,12284.84627625,0.9821014404296875,0.104156494140625,-0.14300537109375,12284.83623525,1.293948438476421,1.41780980144782,-0.09770828258531561,0.02788440510630608,-0.04477694258093834,0.02869727090001106,-0.02134966850280762,0.006677478551864624,-0.003829836845397949,2,-0.4215179191828093,0.4964784366214552,0.4316387444833238,0.6241152774968419,0.9836064577102661,0.09755288809537888,-0.1516636162996292,51.12735748291016,37.98174285888672,9.895263671875,2,12280.68900629167,4,2,1580908564.930173,1580903939.50652,2875,0.4912658,0.8527173,1.363914,3428.459,14,15,1580908565.652,12281.60543,0,17.87531,96.99564
1580908569.069584,53,0,1580907286.99823,41.20781296037784,29.0754925099451,275.2123,0.1345286,-1,23.46983528137207,200,-9999,12284.85631625,0.979583740234375,0.09552001953125,-0.1520233154296875,12284.84627625,1.293683800172837,1.416887461378597,-0.0972755221119567,0.03205757588148117,-0.09002244472503662,0.0405813604593277,-0.005503535270690918,0.006972342729568481,0.006532251834869385,2,-0.4211263189806879,0.49635069233079,0.4318675167956322,0.6243229653983032,0.9835078120231628,0.0971221849322319,-0.1525772213935852,51.15113067626953,37.90472030639648,9.838836669921875,2,12280.68900629167,4,2,1580908564.930173,1580903939.50652,2875,0.4912658,0.8527173,1.363914,3428.459,14,15,1580908565.652,12281.60543,0,17.87531,96.99564
1580908569.070607,54,0,1580907286.99823,41.20781296037784,29.0754925099451,275.2123,0.1345286,-1,23.46983528137207,200,-9999,12284.86638725,0.968505859375,0.087005615234375,-0.1634521484375,12284.85631625,1.293368049986952,1.415744969726312,-0.09692717124146118,0.03714869916439056,-0.111775241792202,0.03072850592434406,-0.006734490394592285,-0.0002327859401702881,-2.521276473999023e-05,2,-0.4206991018066558,0.4961444131861565,0.4321035248713331,0.6246114741230593,0.9833661317825317,0.09677547216415405,-0.153705969452858,51.15914154052734,37.90949249267578,9.62994384765625,2,12280.68900629167,4,2,1580908564.930173,1580903939.50652,2875,0.4912658,0.8527173,1.363914,3428.459,14,15,1580908565.652,12281.60543,0,17.87531,96.99564
1580908569.078671,55,0,1580907286.99823,41.20781296037784,29.0754925099451,275.2123,0.1345286,-1,23.46983528137207,200,-9999,12284.87642725,0.9607391357421875,0.0909576416015625,-0.1670989990234375,12284.86638725,1.293069097082119,1.414685796602445,-0.09669154622291491,0.03131877258419991,-0.1016403138637543,0.01874481327831745,-0.01707565784454346,-0.009534150362014771,-0.01075595617294312,2,-0.4203269155182676,0.4959332504880076,0.4322965038929286,0.6248961847174193,0.9832252860069275,0.09654095023870468,-0.1547509878873825,51.15914154052734,37.90949249267578,9.62994384765625,2,12284.86794325,2,0,1580908569.10911,1580903939.50652,2875,0.4912658,0.8527173,1.363914,3428.459,14,15,1580908565.652,12281.60543,0,17.87531,96.99564
1580908569.088918,56,0,1580907286.99823,41.20781296037784,29.0754925099451,275.2123,0.1345286,-1,23.46983528137207,200,-9999,12284.88646725,0.9567108154296875,0.097930908203125,-0.161712646484375,12284.87642725,1.292715666470697,1.413762425152187,-0.0965441607566033,0.03801819682121277,-0.08828635513782501,0.007882325910031796,-0.02561295032501221,-0.006457149982452393,-0.01458799839019775,2,-0.419996383634291,0.4957544936892906,0.432419843209829,0.6251749232015162,0.9830961227416992,0.09639425575733185,-0.1556610465049744,51.06151580810547,37.95348358154297,9.590789794921875,2,12284.86794325,2,0,1580908569.10911,1580903939.50652,2875,0.4912658,0.8527173,1.363914,3428.459,14,15,1580908565.652,12281.60543,0,17.87531,96.99564
1580908569.098869,57,0,1580907286.99823,41.20781296037784,29.0754925099451,275.2123,0.1345286,-1,23.46983528137207,200,-9999,12284.89650825,0.9493255615234375,0.099639892578125,-0.1674041748046875,12284.88646725,1.292327065520105,1.412907234453739,-0.0963663772105729,0.04091651737689972,-0.08321516215801239,0.01220170687884092,-0.02915823459625244,0.0007242262363433838,-0.008538544178009033,2,-0.4196629251730555,0.4956115687137593,0.43252584520957,0.6254387623384012,0.9829794764518738,0.09621729701757431,-0.1565044075250626,51.06151580810547,37.95348358154297,9.590789794921875,2,12284.86794325,2,0,1580908569.10911,1580903939.50652,2875,0.4912658,0.8527173,1.363914,3428.459,14,15,1580908565.652,12281.60543,0,17.87531,96.99564
1580908569.129538,58,0,1580907286.99823,41.20781296037784,29.0754925099451,275.2123,0.1345286,-1,23.46983528137207,200,-9999,12284.90654825,0.9443359375,0.093597412109375,-0.1743927001953125,12284.89650825,1.291881083600923,1.4122725962115,-0.09609544105373766,0.04726433008909225,-0.0593164935708046,0.02459403499960899,-0.03611862659454346,0.003436237573623657,-0.01244032382965088,2,-0.4193354908604047,0.4955719760929447,0.4325925829249442,0.6256436038183282,0.9829057455062866,0.09594761580228806,-0.1571323275566101,51.09157562255859,37.88492965698242,9.4434814453125,2,12284.86794325,2,0,1580908569.10911,1580903939.50652,2875,0.4912658,0.8527173,1.363914,3428.459,14,15,1580908565.652,12281.60543,0,17.87531,96.99564
1580908569.131088,59,0,1580907286.99823,41.20781296037784,29.0754925099451,275.2123,0.1345286,-1,23.46983528137207,200,-9999,12284.91658825,0.940582275390625,0.076934814453125,-0.1816558837890625,12284.90654825,1.29140330806076,1.411978281948237,-0.09593691176628472,0.04951523244380951,-0.02653751149773598,0.004202475771307945,-0.04202300310134888,-0.001379787921905518,-0.01965510845184326,2,-0.4191068579456861,0.4956182493239187,0.4325475431591242,0.6257911511478148,0.98287433385849,0.09578981250524521,-0.1574239879846573,51.09157562255859,37.88492965698242,9.4434814453125,2,12284.86794325,2,0,1580908569.10911,1580903939.50652,2875,0.4912658,0.8527173,1.363914,3428.459,14,15,1580908565.652,12281.60543,0,17.87531,96.99564
1580908569.132097,60,0,1580907286.99823,41.20781296037784,29.0754925099451,275.2123,0.1345286,-1,23.46983528137207,200,-9999,12284.92662825,0.9512481689453125,0.0703582763671875,-0.1806182861328125,12284.91658825,1.291005810651505,1.412122619988769,-0.09592076775292849,0.04084012657403946,0.017581382766366,-0.007727309130132198,-0.04607552289962769,-0.017507404088974,-0.02654135227203369,2,-0.4190347576689291,0.4957506227057813,0.4323972994984531,0.625838543907314,0.9828987121582031,0.09577374160289764,-0.1572823822498322,51.21312713623047,37.48545455932617,9.153228759765625,2,12284.86794325,2,0,1580908569.10911,1580903939.50652,2875,0.4912658,0.8527173,1.363914,3428.459,14,15,1580908565.652,12281.60543,0,17.87531,96.99564
1580908569.139079,61,0,1580907286.99823,41.20781296037784,29.0754925099451,275.2123,0.1345286,-1,23.46983528137207,200,-9999,12284.93666925,0.961578369140625,0.076568603515625,-0.168914794921875,12284.92662825,1.290788397382682,1.412557181232916,-0.09606139750115258,0.01958570443093777,0.04594537615776062,-0.01762840896844864,-0.03691428899765015,-0.02587237954139709,-0.02775037288665771,2,-0.4191161777113987,0.4958982520636038,0.4322002496505151,0.6258031199147583,0.9829536080360413,0.09591372311115265,-0.1568531095981598,51.21312713623047,37.48545455932617,9.153228759765625,2,12284.86794325,2,0,1580908569.10911,1580903939.50652,2875,0.4912658,0.8527173,1.363914,3428.459,14,15,1580908565.652,12281.60543,0,17.87531,96.99564
1580908569.149122,62,0,1580907286.99823,41.20781296037784,29.0754925099451,275.2123,0.1345286,-1,23.46983528137207,200,-9999,12284.94670925,0.9629364013671875,0.0942840576171875,-0.161773681640625,12284.93666925,1.29074371096468,1.413042122676597,-0.09619877481600599,-5.357991904020309e-05,0.04905599728226662,-0.01113528199493885,-0.02507573366165161,-0.02146250009536743,-0.01645129919052124,2,-0.4192503035706788,0.4960262272626977,0.432047528152444,0.6257172337259622,0.9830164313316345,0.09605047106742859,-0.1563743352890015,51.14504241943359,37.72976303100586,9.201751708984375,2,12284.86794325,2,0,1580908569.10911,1580903939.50652,2875,0.4912658,0.8527173,1.363914,3428.459,14,15,1580908565.652,12281.60543,0,17.87531,96.99564
1580908569.159151,63,0,1580907286.99823,41.20781296037784,29.0754925099451,275.2123,0.1345286,-1,23.46983528137207,200,-9999,12284.95678025,0.960906982421875,0.10150146484375,-0.1588592529296875,12284.94670925,1.290737249516002,1.413447284258853,-0.09624987030487528,0.0001975558698177338,0.03954771161079407,-0.007824973203241825,-0.02402043342590332,-0.003355562686920166,-0.009359776973724365,2,-0.4193512480383065,0.4961420151370876,0.4319467621321901,0.6256273293229075,0.9830748438835144,0.09610132873058319,-0.155975267291069,51.14504241943359,37.72976303100586,9.201751708984375,2,12284.86794325,2,0,1580908569.10911,1580903939.50652,2875,0.4912658,0.8527173,1.363914,3428.459,14,15,1580908565.652,12282.549151,0,17.85944,96.99583
1580908569.189487,64,0,1580907286.99823,41.20781296037784,29.0754925099451,275.2123,0.1345286,-1,23.46983528137207,200,-9999,12284.96682025,0.945465087890625,0.1055450439453125,-0.1612701416015625,12284.95678025,1.290836497642846,1.413774297926307,-0.09595566396575148,-0.0059011559933424,0.02829644270241261,0.03005324676632881,-0.02463352680206299,0.004674524068832397,-0.006320834159851074,2,-0.4193599460553435,0.4962943952648189,0.4319887265636466,0.6254718082935167,0.9831538200378418,0.0958084836602211,-0.1556582152843475,51.20998382568359,37.53276443481445,9.28302001953125,2,12284.86794325,2,0,1580908569.10911,1580903939.50652,2875,0.4912658,0.8527173,1.363914,3428.459,14,15,1580908565.652,12282.549151,0,17.85944,96.99583
1580908569.190799,65,0,1580907286.99823,41.20781296037784,29.0754925099451,275.2123,0.1345286,-1,23.46983528137207,200,-9999,12284.97686025,0.93994140625,0.099334716796875,-0.1644439697265625,12284.96682025,1.290916167939522,1.414095271303419,-0.09534688831775558,0.005872678942978382,0.02951057814061642,0.05838794633746147,-0.04061055183410645,0.01001295447349548,-0.008444428443908691,2,-0.4192701102253159,0.4965246463557671,0.4321107376540615,0.6252648790063625,0.9832611083984375,0.0952024906873703,-0.1553516983985901,51.20998382568359,37.53276443481445,9.28302001953125,2,12284.86794325,2,0,1580908569.10911,1580903939.50652,2875,0.4912658,0.8527173,1.363914,3428.459,14,15,1580908565.652,12282.549151,0,17.85944,96.99583
1580908569.191794,66,0,1580907286.99823,41.20781296037784,29.0754925099451,275.2123,0.1345286,-1,23.46983528137207,200,-9999,12284.98690125,0.9267120361328125,0.103759765625,-0.1698455810546875,12284.97686025,1.291026473939529,1.414607092390129,-0.09443119553184973,0.002487123943865299,0.04856942594051361,0.09026560187339783,-0.04584217071533203,0.005251497030258179,-0.01209449768066406,2,-0.4191388781317199,0.4968819169125815,0.4322852109231211,0.6249483757034807,0.9834261536598206,0.09429091215133667,-0.1548619270324707,51.31058502197266,37.7402458190918,9.513885498046875,2,12284.86794325,2,0,1580908569.10911,1580903939.50652,2875,0.4912658,0.8527173,1.363914,3428.459,14,15,1580908565.652,12282.549151,0,17.85944,96.99583
1580908569.199955,67,0,1580907286.99823,41.20781296037784,29.0754925099451,275.2123,0.1345286,-1,23.46983528137207,200,-9999,12284.99694125,0.93328857421875,0.103546142578125,-0.1674041748046875,12284.98690125,1.291075429543176,1.415488534665018,-0.09317847853908376,0.01621492020785809,0.08913176506757736,0.1238278225064278,-0.06060612201690674,0.009707629680633545,-0.01857674121856689,2,-0.4189732501948383,0.4974483098273627,0.4324540839836051,0.6244919100618518,0.9836782813072205,0.09304370731115341,-0.1540131866931915,51.31058502197266,37.7402458190918,9.513885498046875,2,12284.86794325,2,0,1580908569.10911,1580903939.50652,2875,0.4912658,0.8527173,1.363914,3428.459,14,15,1580908565.652,12282.549151,0,17.85944,96.99583
1580908569.20934,68,0,1580907286.99823,41.20781296037784,29.0754925099451,275.2123,0.1345286,-1,23.46983528137207,200,-9999,12285.00698125,0.936248779296875,0.109100341796875,-0.16363525390625,12284.99694125,1.291106264314132,1.416575309083461,-0.09160798109174405,0.02018513157963753,0.111838199198246,0.1535098403692245,-0.0547221302986145,0.01146018505096436,-0.01802510023117065,2,-0.4187541670222879,0.4981583914331704,0.432660159349136,0.623929890929404,0.9839882850646973,0.09147990494966507,-0.1529663354158401,51.11771392822266,37.67205429077148,9.53643798828125,2,12284.86794325,2,0,1580908569.10911,1580903939.50652,2875,0.4912658,0.8527173,1.363914,3428.459,14,15,1580908565.652,12282.549151,0,17.85944,96.99583
1580908569.219391,69,0,1580907286.99823,41.20781296037784,29.0754925099451,275.2123,0.1345286,-1,23.46983528137207,200,-9999,12285.01702225,0.9480438232421875,0.100616455078125,-0.1612091064453125,12285.00698125,1.291112151040131,1.417807545446906,-0.08961214347688182,0.02842042408883572,0.1235843375325203,0.1988528221845627,-0.05200719833374023,0.0190703272819519,-0.01514023542404175,2,-0.4184353908205736,0.4990202506818956,0.4329429313243062,0.6232585093974788,0.9843544960021973,0.08949225395917892,-0.1517812311649323,51.11771392822266,37.67205429077148,9.53643798828125,2,12284.86794325,2,0,1580908569.10911,1580903939.50652,2875,0.4912658,0.8527173,1.363914,3428.459,14,15,1580908565.652,12282.549151,0,17.85944,96.99583
1580908569.251755,70,0,1580907286.99823,41.20781296037784,29.0754925099451,275.2123,0.1345286,-1,23.46983528137207,200,-9999,12285.02706225,0.9834136962890625,0.0849456787109375,-0.14404296875,12285.01702225,1.290997938692269,1.41911659765317,-0.08744582845777053,0.04751728847622871,0.1395839899778366,0.2117892652750015,-0.04314893484115601,0.01488825678825378,-0.01449728012084961,2,-0.418053189851806,0.499970799848782,0.433218397751053,0.6225613569790526,0.9847416877746582,0.08733442425727844,-0.150521457195282,51.29763031005859,37.50252532958984,9.57464599609375,2,12284.86794325,2,0,1580908569.10911,1580903939.50652,2875,0.4912658,0.8527173,1.363914,3428.459,14,15,1580908565.652,12282.549151,0,17.85944,96.99583
1580908569.25317,71,0,1580907286.99823,41.20781296037784,29.0754925099451,275.2123,0.1345286,-1,23.46983528137207,200,-9999,12285.03710225,1.006118774414062,0.0770721435546875,-0.133758544921875,12285.02706225,1.290844299232503,1.419972849187496,-0.08533926282586975,0.04359924420714378,0.08722703903913498,0.2082400619983673,-0.008271455764770508,0.0003167688846588135,0.0009497404098510742,2,-0.4175805383840518,0.5007731357741023,0.4335602487940182,0.621995422210199,0.985049843788147,0.08523571491241455,-0.1497055143117905,51.29763031005859,37.50252532958984,9.57464599609375,2,12284.86794325,2,0,1580908569.10911,1580903939.50652,2875,0.4912658,0.8527173,1.363914,3428.459,14,15,1580908565.652,12282.549151,0,17.85944,96.99583
1580908569.25429,72,0,1580907286.99823,41.20781296037784,29.0754925099451,275.2123,0.1345286,-1,23.46983528137207,200,-9999,12285.04714225,1.024978637695312,0.046875,-0.1212310791015625,12285.03710225,1.290518704011702,1.419994171295898,-0.08358737058767737,0.06057234108448029,0.008268024772405624,0.1722197830677032,0.01504677534103394,-0.005225032567977905,0.01157099008560181,2,-0.4169878959636793,0.5012661364882097,0.4339271526730502,0.6217399220663368,0.9851990938186646,0.08349006623029709,-0.149706706404686,51.47785186767578,37.43779754638672,9.464141845703125,2,12284.86794325,2,0,1580908569.10911,1580903939.50652,2875,0.4912658,0.8527173,1.363914,3428.459,14,15,1580908565.652,12282.549151,0,17.85944,96.99583
1580908569.259603,73,0,1580907286.99823,41.20781296037784,29.0754925099451,275.2123,0.1345286,-1,23.46983528137207,200,-9999,12285.05721325,1.006088256835938,0.056793212890625,-0.13568115234375,12285.04714225,1.290235974225499,1.418867726708446,-0.08252354413374291,0.04447752982378006,-0.1122946068644524,0.0964437797665596,0.0356065034866333,-0.03251180052757263,0.0264466404914856,2,-0.4163590158728134,0.5012287746413145,0.4343607265092726,0.6218888982793261,0.9851172566413879,0.0824299082159996,-0.1508297771215439,51.47785186767578,37.43779754638672,9.464141845703125,2,12284.86794325,2,0,1580908569.10911,1580903939.50652,2875,0.4912658,0.8527173,1.363914,3428.459,14,15,1580908565.652,12282.549151,0,17.85944,96.99583
1580908569.269653,74,0,1580907286.99823,41.20781296037784,29.0754925099451,275.2123,0.1345286,-1,23.46983528137207,200,-9999,12285.06725325,0.9328765869140625,0.09173583984375,-0.1840972900390625,12285.05721325,1.28997956086368,1.417195711078108,-0.08177870000678655,0.03212417662143707,-0.1738661676645279,0.07469749450683594,0.02197575569152832,-0.03017991781234741,0.01622200012207031,2,-0.4157118001927325,0.5009398060420033,0.434829331393757,0.6222270085185756,0.9849238991737366,0.08168757706880569,-0.1524860262870789,51.55780792236328,37.35356521606445,9.35052490234375,2,12284.86794325,2,0,1580908569.10911,1580903939.50652,2875,0.4912658,0.8527173,1.363914,3428.459,14,15,1580908565.652,12282.549151,0,17.85944,96.99583
1580908569.28002,75,0,1580907286.99823,41.20781296037784,29.0754925099451,275.2123,0.1345286,-1,23.46983528137207,200,-9999,12285.07729425,0.88189697265625,0.068603515625,-0.20794677734375,12285.06725325,1.289321493534067,1.416537776455267,-0.08134581531507003,0.07502450793981552,-0.05841173976659775,0.03299345821142197,-0.04683637619018555,0.0103379487991333,-0.02775424718856812,2,-0.4152761341845046,0.5009750752231171,0.4348777186004623,0.6224556207495756,0.9848581552505493,0.08125612884759903,-0.1531394124031067,51.55780792236328,37.35356521606445,9.35052490234375,2,12284.86794325,2,0,1580908569.10911,1580903939.50652,2875,0.4912658,0.8527173,1.363914,3428.459,14,15,1580908565.652,12282.549151,0,17.85944,96.99583
1580908569.307921,76,0,1580907286.99823,41.20781296037784,29.0754925099451,275.2123,0.1345286,-1,23.46983528137207,200,-9999,12285.08733425,0.930328369140625,0.0752716064453125,-0.17041015625,12285.07729425,1.288517098550604,1.417211622008728,-0.08104796114699055,0.08307124674320221,0.08212167024612427,0.01811810582876205,-0.1065340042114258,-0.01092475652694702,-0.06033778190612793,2,-0.4151329890161088,0.5014228467349223,0.4345676758611393,0.622407271027386,0.9849852323532104,0.0809592604637146,-0.1524794548749924,51.59206390380859,37.45142364501953,9.274871826171875,2,12284.86794325,2,0,1580908569.10911,1580903939.50652,2875,0.4912658,0.8527173,1.363914,3428.459,14,15,1580908565.652,12282.549151,0,17.85944,96.99583
1580908569.309455,77,0,1580907286.99823,41.20781296037784,29.0754925099451,275.2123,0.1345286,-1,23.46983528137207,200,-9999,12285.09737425,0.9692230224609375,0.065643310546875,-0.1562042236328125,12285.08733425,1.28772057488841,1.417990835554417,-0.08074690168563955,0.08708436042070389,0.08755158632993698,0.01907684467732906,-0.06512719392776489,-0.006686866283416748,-0.025612473487854,2,-0.4150135772098508,0.50190232473373,0.4342391266960614,0.6223295660770026,0.9851275682449341,0.0806591808795929,-0.1517155766487122,51.59206390380859,37.45142364501953,9.274871826171875,2,12284.86794325,2,0,1580908569.10911,1580903939.50652,2875,0.4912658,0.8527173,1.363914,3428.459,14,15,1580908565.652,12282.549151,0,17.85944,96.99583
1580908569.310741,78,0,1580907286.99823,41.20781296037784,29.0754925099451,275.2123,0.1345286,-1,23.46983528137207,200,-9999,12285.10741525,0.995086669921875,0.062469482421875,-0.1613311767578125,12285.09737425,1.287240292747227,1.418523623159374,-0.08042829099057171,0.04877497255802155,0.05498654395341873,0.02558702602982521,-0.02081537246704102,-0.01286831498146057,-0.007427990436553955,2,-0.4149144947709842,0.5022436260986592,0.4340650032128444,0.6222419036651282,0.9852337837219238,0.08034160733222961,-0.1511946022510529,51.52613067626953,37.33388900756836,9.26800537109375,2,12284.86794325,2,0,1580908569.10911,1580903939.50652,2875,0.4912658,0.8527173,1.363914,3428.459,14,15,1580908565.652,12282.549151,0,17.85944,96.99583
1580908569.31991,79,0,1580907286.99823,41.20781296037784,29.0754925099451,275.2123,0.1345286,-1,23.46983528137207,200,-9999,12285.11745525,1.030105590820312,0.0775909423828125,-0.1453857421875,12285.10741525,1.287035680935823,1.418884020640077,-0.08004610987767691,0.02624249830842018,0.04148884117603302,0.03538719192147255,0.001194238662719727,-0.0190778374671936,-0.01452416181564331,2,-0.4148283970058788,0.5024891247015961,0.4340295754589332,0.6221258512535759,0.9853185415267944,0.0799606591463089,-0.1508441567420959,51.52613067626953,37.33388900756836,9.26800537109375,2,12284.86794325,2,0,1580908569.10911,1580903939.50652,2875,0.4912658,0.8527173,1.363914,3428.459,14,15,1580908565.652,12282.549151,0,17.85944,96.99583
1580908569.329944,80,0,1580907286.99823,41.20781296037784,29.0754925099451,275.2123,0.1345286,-1,23.46983528137207,200,-9999,12285.12749525,0.985198974609375,0.0801239013671875,-0.160675048828125,12285.11745525,1.287048528404251,1.418769616498874,-0.07965188136768878,0.003052636049687862,-0.01683352887630463,0.03941693902015686,0.04164659976959229,-0.002997338771820068,0.001874685287475586,2,-0.4146903738926664,0.5025446083995524,0.4341634842983459,0.6220794510375331,0.985332190990448,0.07956768572330475,-0.150961622595787,51.79582977294922,37.52590560913086,9.241241455078125,2,12284.86794325,2,0,1580908569.10911,1580903939.50652,2875,0.4912658,0.8527173,1.363914,3428.459,14,15,1580908565.652,12282.549151,0,17.85944,96.99583
1580908569.33996,81,0,1580907286.99823,41.20781296037784,29.0754925099451,275.2123,0.1345286,-1,23.46983528137207,200,-9999,12285.13753525,0.96282958984375,0.0801544189453125,-0.1704864501953125,12285.12749525,1.287111250587578,1.418759539515527,-0.07921254231895065,-0.001897913869470358,-0.005427743308246136,0.04451929032802582,0.001955926418304443,0.0006465315818786621,-0.01045435667037964,2,-0.4145741090266494,0.5026329573451116,0.4343034343808885,0.621987912534967,0.9853651523590088,0.07912973314523697,-0.150976836681366,51.79582977294922,37.52590560913086,9.241241455078125,2,12284.86794325,2,0,1580908569.10911,1580903939.50652,2875,0.4912658,0.8527173,1.363914,3428.459,14,15,1580908565.652,12282.549151,0,17.85944,96.99583
1580908569.372582,82,0,1580907286.99823,41.20781296037784,29.0754925099451,275.2123,0.1345286,-1,23.46983528137207,200,-9999,12285.14760625,0.9977569580078125,0.0704498291015625,-0.15435791015625,12285.13753525,1.287081897444337,1.419066994126677,-0.0787959875242918,0.009927950799465179,0.03433021903038025,0.0402488149702549,-0.02777111530303955,0.001414239406585693,-0.02334189414978027,2,-0.4145103746551322,0.5028336923980459,0.4343427895873883,0.6218407107219402,0.9854441285133362,0.07871447503566742,-0.1506788581609726,51.78571319580078,37.51850891113281,9.222991943359375,2,12284.86794325,2,0,1580908569.10911,1580903939.50652,2875,0.4912658,0.8527173,1.363914,3428.459,14,15,1580908565.652,12282.549151,0,17.85944,96.99583
1580908569.373922,83,0,1580907286.99823,41.20781296037784,29.0754925099451,275.2123,0.1345286,-1,23.46983528137207,200,-9999,12285.15764725,1.014495849609375,0.060302734375,-0.14190673828125,12285.14760625,1.287032067327598,1.419237187136363,-0.07857656525595465,0.01018654368817806,0.02292656153440475,0.02134889736771584,0.005297660827636719,-0.007079035043716431,-0.00881350040435791,2,-0.4144699879450729,0.5029490681346431,0.434351113036049,0.6217684288206882,0.9854866862297058,0.07849573343992233,-0.1505137234926224,51.78571319580078,37.51850891113281,9.222991943359375,2,12284.86794325,2,0,1580908569.10911,1580903939.50652,2875,0.4912658,0.8527173,1.363914,3428.459,14,15,1580908565.652,12282.549151,0,17.85944,96.99583
1580908569.374944,84,0,1580907286.99823,41.20781296037784,29.0754925099451,275.2123,0.1345286,-1,23.46983528137207,200,-9999,12285.16768725,0.9882659912109375,0.0655517578125,-0.1485137939453125,12285.15764725,1.287130222714897,1.418972307484069,-0.07854319893265042,-0.00958354864269495,-0.02312104031443596,0.005244610831141472,0.02558338642120361,-0.01786407828330994,0.005288660526275635,2,-0.4144272313450533,0.5028543350655097,0.4344455287072776,0.6218077189820893,0.9854495525360107,0.07846246659755707,-0.1507751792669296,51.78374481201172,37.3511962890625,9.1583251953125,2,12284.86794325,2,0,1580908569.10911,1580903939.50652,2875,0.4912658,0.8527173,1.363914,3428.459,14,15,1580908565.652,12282.549151,0,17.85944,96.99583
1580908569.380234,85,0,1580907286.99823,41.20781296037784,29.0754925099451,275.2123,0.1345286,-1,23.46983528137207,200,-9999,12285.17772725,0.9557037353515625,0.08099365234375,-0.1657867431640625,12285.16768725,1.287334197681228,1.418586163545488,-0.07860365902970039,-0.02248949371278286,-0.04232988879084587,-0.004122792277485132,0.003429770469665527,-0.01491868495941162,0.001198768615722656,2,-0.4144125332510867,0.5026776090196031,0.43457265641128,0.6218714298393424,0.9853863716125488,0.07852274179458618,-0.151154950261116,51.78374481201172,37.3511962890625,9.1583251953125,2,12284.86794325,2,0,1580908569.10911,1580903939.50652,2875,0.4912658,0.8527173,1.363914,3428.459,14,15,1580908565.652,12282.549151,0,17.85944,96.99583
1580908569.390159,86,0,1580907286.99823,41.20781296037784,29.0754925099451,275.2123,0.1345286,-1,23.46983528137207,200,-9999,12285.18776725,0.960968017578125,0.0752716064453125,-0.164093017578125,12285.17772725,1.287494779994742,1.418524009102584,-0.07864185238688362,-0.01495565474033356,-0.005681805312633514,-0.002836511470377445,-0.03148525953292847,0.001675218343734741,-0.01671516895294189,2,-0.4144506932065544,0.5026159153192331,0.4346251734592375,0.6218591065601001,0.9853739738464355,0.07856081426143646,-0.1512157320976257,51.79787445068359,37.30283737182617,9.231719970703125,2,12284.86794325,2,0,1580908569.10911,1580903939.50652,2875,0.4912658,0.8527173,1.363914,3428.459,14,15,1580908565.652,12282.549151,0,17.85944,96.99583
1580908569.40026,87,0,1580907286.99823,41.20781296037784,29.0754925099451,275.2123,0.1345286,-1,23.46983528137207,200,-9999,12285.19780825,0.9615631103515625,0.0714263916015625,-0.162750244140625,12285.18776725,1.287612433696439,1.418722352131315,-0.0787797279733994,-0.0146408686414361,0.01912553980946541,-0.01153519377112389,-0.02924621105194092,-0.002597838640213013,-0.01685190200805664,2,-0.4145641019695628,0.5026204164077667,0.434583529850846,0.6218089947483894,0.985393226146698,0.07869826257228851,-0.1510186493396759,51.79787445068359,37.30283737182617,9.231719970703125,2,12284.86794325,2,0,1580908569.10911,1580903939.50652,2875,0.4912658,0.8527173,1.363914,3428.459,14,15,1580908565.652,12282.549151,0,17.85944,96.99583
1580908569.42699,88,0,1580907286.99823,41.20781296037784,29.0754925099451,275.2123,0.1345286,-1,23.46983528137207,200,-9999,12285.20784825,0.964447021484375,0.0741119384765625,-0.1583709716796875,12285.19780825,1.287607409649433,1.419166392479835,-0.07915974198817612,-0.005451429635286331,0.0446360781788826,-0.03805781155824661,-0.02665919065475464,-0.008181303739547729,-0.0150066614151001,2,-0.414771568842292,0.502669144515007,0.4343875729058348,0.6217682132809759,0.9854305982589722,0.0790770947933197,-0.1505765467882156,51.70447540283203,37.43422698974609,9.39312744140625,2,12284.86794325,2,0,1580908569.10911,1580903939.50652,2875,0.4912658,0.8527173,1.363914,3428.459,14,15,1580908565.652,12282.549151,0,17.85944,96.99583
1580908569.428348,89,0,1580907286.99823,41.20781296037784,29.0754925099451,275.2123,0.1345286,-1,23.46983528137207,200,-9999,12285.21788825,0.9798736572265625,0.0687103271484375,-0.1488800048828125,12285.20784825,1.287477301164582,1.419623106159793,-0.07977106537238486,0.004504797980189323,0.04977251589298248,-0.06095460802316666,-0.02606964111328125,-0.005908966064453125,-0.01256650686264038,2,-0.4150185860628461,0.502692737377421,0.4340876727741055,0.6217937554591645,0.985451340675354,0.0796864926815033,-0.1501191705465317,51.70447540283203,37.43422698974609,9.39312744140625,2,12284.86794325,2,0,1580908569.10911,1580903939.50652,2875,0.4912658,0.8527173,1.363914,3428.459,14,15,1580908565.652,12282.549151,0,17.85944,96.99583
1580908569.431043,90,0,1580907286.99823,41.20781296037784,29.0754925099451,275.2123,0.1345286,-1,23.46983528137207,200,-9999,12285.22792825,0.9729461669921875,0.0668792724609375,-0.1588287353515625,12285.21788825,1.287257012031533,1.419855298329852,-0.08069538018651469,0.01019976660609245,0.02424733340740204,-0.09461622685194016,-0.009994029998779297,-0.01168596744537354,-0.002248406410217285,2,-0.4152865209780391,0.5025907917341047,0.4337217954272405,0.6219525144277244,0.9854128360748291,0.0806078314781189,-0.149879202246666,51.84032440185547,37.39640808105469,9.476470947265625,2,12284.86794325,2,0,1580908569.10911,1580903939.50652,2875,0.4912658,0.8527173,1.363914,3428.459,14,15,1580908565.652,12282.549151,0,17.85944,96.99583
1580908569.440466,91,0,1580907286.99823,41.20781296037784,29.0754925099451,275.2123,0.1345286,-1,23.46983528137207,200,-9999,12285.23799925,0.9508056640625,0.07208251953125,-0.170806884765625,12285.22792825,1.287061283711056,1.42021875643527,-0.0818622039134325,0.0008701803162693977,0.03565258532762527,-0.1193394213914871,-0.01407444477081299,-0.01543185114860535,-0.01078528165817261,2,-0.4156604381305197,0.5024668917974123,0.4332706854330743,0.6221173633093227,0.9853737354278564,0.08177080005407333,-0.1495068520307541,51.84032440185547,37.39640808105469,9.476470947265625,2,12284.86794325,2,0,1580908569.10911,1580903939.50652,2875,0.4912658,0.8527173,1.363914,3428.459,14,15,1580908565.652,12282.549151,0,17.85944,96.99583
1580908569.450461,92,0,1580907286.99823,41.20781296037784,29.0754925099451,275.2123,0.1345286,-1,23.46983528137207,200,-9999,12285.24804025,0.96282958984375,0.073638916015625,-0.162353515625,12285.23799925,1.28683341923232,1.421022082352697,-0.08320551366849041,0.001376253552734852,0.08506587147712708,-0.1354649364948273,-0.0369269847869873,-0.0117095410823822,-0.02470338344573975,2,-0.4161732529234953,0.5024444889682201,0.4326700813555727,0.6222107398978378,0.9853841662406921,0.0831095427274704,-0.1486987173557281,51.74727630615234,37.54673385620117,9.33477783203125,2,12284.86794325,2,0,1580908569.10911,1580903939.50652,2875,0.4912658,0.8527173,1.363914,3428.459,14,15,1580908565.652,12282.549151,0,17.85944,96.99583
1580908569.46093,93,0,1580907286.99823,41.20781296037784,29.0754925099451,275.2123,0.1345286,-1,23.46983528137207,200,-9999,12285.25808025,0.9834442138671875,0.0734710693359375,-0.150970458984375,12285.24804025,1.286559348002872,1.421962783978292,-0.08477366499747858,0.001548293046653271,0.09671187400817871,-0.1589566767215729,-0.02845251560211182,-0.01112633943557739,-0.01935172080993652,2,-0.4167699456032408,0.5024208705739879,0.4319650105827634,0.6223201092013381,0.9853932857513428,0.08467216044664383,-0.1477521657943726,51.74727630615234,37.54673385620117,9.33477783203125,2,12284.86794325,2,0,1580908569.10911,1580903939.50652,2875,0.4912658,0.8527173,1.363914,3428.459,14,15,1580908565.652,12282.549151,0,17.85944,96.99583
1580908569.488101,94,0,1580907286.99823,41.20781296037784,29.0754925099451,275.2123,0.1345286,-1,23.46983528137207,200,-9999,12285.26812025,1.0013427734375,0.0698394775390625,-0.1408233642578125,12285.25808025,1.28630269778616,1.422740760188473,-0.08657718521101068,-0.002977021969854832,0.08613359928131104,-0.1793588101863861,-0.007265806198120117,-0.01305186748504639,-0.008043885231018066,2,-0.4174043675618976,0.5022869862131512,0.4312348178525801,0.6225094680634027,0.9853553771972656,0.08646906912326813,-0.1469627618789673,51.67885589599609,37.9053840637207,9.443695068359375,2,12284.86794325,2,0,1580908569.10911,1580903939.50652,2875,0.4912658,0.8527173,1.363914,3428.459,14,15,1580908565.652,12282.549151,0,17.85944,96.99583
1580908569.489508,95,0,1580907286.99823,41.20781296037784,29.0754925099451,275.2123,0.1345286,-1,23.46983528137207,200,-9999,12285.27816025,1.01800537109375,0.0786590576171875,-0.1362152099609375,12285.26812025,1.286070554893533,1.423036339059498,-0.08867578764919071,-0.008466595783829689,0.03343044221401215,-0.2136842906475067,0.01071023941040039,-0.01907145977020264,0.00205838680267334,2,-0.4180271519556638,0.5019273525984577,0.4305322040698683,0.6228679096907257,0.9852172136306763,0.08855962008237839,-0.1466444730758667,51.46877288818359,37.92324829101562,9.35150146484375,2,12284.86794325,2,0,1580908569.10911,1580903939.50652,2875,0.4912658,0.8527173,1.363914,3428.459,14,15,1580908565.652,12282.549151,0,17.85944,96.99583
1580908569.490839,96,0,1580907286.99823,41.20781296037784,29.0754925099451,275.2123,0.1345286,-1,23.46983528137207,200,-9999,12285.28820125,1.049789428710938,0.088623046875,-0.12261962890625,12285.27816025,1.285840942687685,1.422769243048939,-0.09090114046581003,-0.01149735692888498,-0.02068971656262875,-0.2264804393053055,0.02768659591674805,-0.01360547542572021,0.007099270820617676,2,-0.4185664036191797,0.5013612368692771,0.4299129742587557,0.6233890279079939,0.9849804639816284,0.09077600389719009,-0.1468781530857086,51.46877288818359,37.92324829101562,9.35150146484375,2,12284.86794325,2,0,1580908569.10911,1580903939.50652,2875,0.4912658,0.8527173,1.363914,3428.459,14,15,1580908565.652,12282.549151,0,17.85944,96.99583
1580908569.500651,97,0,1580907286.99823,41.20781296037784,29.0754925099451,275.2123,0.1345286,-1,23.46983528137207,200,-9999,12285.29824125,1.1097412109375,0.072662353515625,-0.1056671142578125,12285.28820125,1.285620032296942,1.421541338570786,-0.09330439054946177,-0.01293999142944813,-0.1090182512998581,-0.2331053167581558,0.05640816688537598,-0.004517316818237305,0.02071619033813477,2,-0.4189534966063159,0.5004504369427754,0.4294490446515862,0.6241802462968615,0.984580934047699,0.09316907078027725,-0.1480546593666077,51.32674407958984,38.08507919311523,9.319610595703125,2,12284.86794325,2,0,1580908569.10911,1580903939.50652,2875,0.4912658,0.8527173,1.363914,3428.459,14,15,1580908565.652,12282.549151,0,17.85944,96.99583
1580908569.510643,98,0,1580907286.99823,41.20781296037784,29.0754925099451,275.2123,0.1345286,-1,23.46983528137207,200,-9999,12285.30828125,1.08038330078125,0.0915679931640625,-0.114501953125,12285.29824125,1.285496332861827,1.41850932120405,-0.09633644034166243,-0.03485004603862762,-0.3050371706485748,-0.3018849492073059,0.1180765628814697,-0.02309539914131165,0.04112386703491211,2,-0.4191629092880937,0.4988031916897432,0.4292228963931022,0.6255121665481669,0.9838435649871826,0.09618749469518661,-0.1509956568479538,51.32674407958984,38.08507919311523,9.319610595703125,2,12284.86794325,2,0,1580908569.10911,1580903939.50652,2875,0.4912658,0.8527173,1.363914,3428.459,14,15,1580908565.652,12282.549151,0,17.85944,96.99583
1580908569.520781,99,0,1580907286.99823,41.20781296037784,29.0754925099451,275.2123,0.1345286,-1,23.46983528137207,200,-9999,12285.31832225,1.002120971679688,0.11083984375,-0.14544677734375,12285.30828125,1.285350099952381,1.414004491387146,-0.09978821527928187,-0.03818672150373459,-0.450013279914856,-0.3433346450328827,0.101892352104187,-0.01158934831619263,0.04023820161819458,2,-0.4191748487819594,0.4965941327948952,0.4291852816820481,0.627285337835537,0.9828197956085205,0.0996226891875267,-0.1553734242916107,51.37284088134766,38.2943115234375,9.18218994140625,2,12284.86794325,2,0,1580908569.10911,1580903939.50652,2875,0.4912658,0.8527173,1.363914,3428.459,14,15,1580908565.652,12282.549151,0,17.85944,96.99583
1580908569.553326,100,0,1580907286.99823,41.20781296037784,29.0754925099451,275.2123,0.1345286,-1,23.46983528137207,200,-9999,12285.32836225,0.94775390625,0.10943603515625,-0.1734161376953125,12285.31832225,1.285135212572574,1.408928214157174,-0.1034407360820775,-0.03762001544237137,-0.5085054039955139,-0.3703758418560028,0.02339744567871094,0.00675162672996521,0.01526069641113281,2,-0.4191076029841409,0.4941643962023341,0.4291922856149287,0.6292411009418635,0.9816526174545288,0.1032563671469688,-0.1603007316589355,51.37284088134766,38.2943115234375,9.18218994140625,2,12284.86794325,2,0,1580908569.10911,1580903939.50652,2875,0.4912658,0.8527173,1.363914,3428.459,14,15,1580908565.652,12282.549151,0,17.85944,96.99583
1580908569.554557,101,0,1580907286.99823,41.20781296037784,29.0754925099451,275.2123,0.1345286,-1,23.46983528137207,200,-9999,12285.33843325,0.9285736083984375,0.10711669921875,-0.1822509765625,12285.32836225,1.284855060328017,1.404119490796979,-0.106958836239571,-0.02944331429898739,-0.4754558205604553,-0.3509968221187592,-0.03187894821166992,0.002279072999954224,-0.009453535079956055,2,-0.4190434930777768,0.4918572133472957,0.4291598512469815,0.6311108039470539,0.9805060625076294,0.1067550182342529,-0.1649580597877502,51.07154083251953,38.50925064086914,9.043243408203125,2,12284.86794325,2,0,1580908569.10911,1580903939.50652,2875,0.4912658,0.8527173,1.363914,3428.459,14,15,1580908565.652,12282.549151,0,17.85944,96.99583
1580908569.555633,102,0,1580907286.99823,41.20781296037784,29.0754925099451,275.2123,0.1345286,-1,23.46983528137207,200,-9999,12285.34847325,0.91180419921875,0.1065826416015625,-0.2033538818359375,12285.33843325,1.284572144279047,1.399895625619825,-0.1103321470590115,-0.03052236326038837,-0.4205868542194366,-0.3373463153839111,-0.05392611026763916,-0.00291752815246582,-0.01518744230270386,2,-0.4190629106189701,0.4897635307829616,0.4290438087505135,0.6328029064364525,0.9794402718544006,0.1101084351539612,-0.1690359264612198,51.07154083251953,38.50925064086914,9.043243408203125,2,12284.86794325,2,0,1580908569.10911,1580903939.50652,2875,0.4912658,0.8527173,1.363914,3428.459,14,15,1580908565.652,12282.549151,0,17.85944,96.99583
1580908569.560894,103,0,1580907286.99823,41.20781296037784,29.0754925099451,275.2123,0.1345286,-1,23.46983528137207,200,-9999,12285.35851325,0.8982696533203125,0.112762451171875,-0.2173004150390625,12285.34847325,1.284347459430424,1.396734162339284,-0.1134276529873189,-0.03386862576007843,-0.3177243769168854,-0.3115597367286682,-0.06746268272399902,-0.007668048143386841,-0.03161084651947021,2,-0.4192437577144383,0.4880561807316501,0.4287991415071089,0.6341665423736595,0.9785605072975159,0.1131845861673355,-0.1720716655254364,50.59107208251953,38.87706756591797,8.47906494140625,2,12284.86794325,2,0,1580908569.10911,1580903939.50652,2875,0.4912658,0.8527173,1.363914,3428.459,14,15,1580908565.652,12282.549151,0,17.85944,96.99583
1580908569.57091,104,0,1580907286.99823,41.20781296037784,29.0754925099451,275.2123,0.1345286,-1,23.46983528137207,200,-9999,12285.36855325,0.9300689697265625,0.115875244140625,-0.19696044921875,12285.35851325,1.284142182388177,1.394700133965011,-0.1162830626261258,-0.02980022132396698,-0.1984011679887772,-0.2869826257228851,-0.08433377742767334,-0.003602683544158936,-0.0465320348739624,2,-0.4196009043460197,0.4867575106660273,0.4283894838778007,0.6352045161585155,0.9778863787651062,0.1160211786627769,-0.1740044206380844,50.59107208251953,38.87706756591797,8.47906494140625,2,12284.86794325,2,0,1580908569.10911,1580903939.50652,2875,0.4912658,0.8527173,1.363914,3428.459,14,15,1580908565.652,12282.549151,0,17.85944,96.99583
1580908569.581068,105,0,1580907286.99823,41.20781296037784,29.0754925099451,275.2123,0.1345286,-1,23.46983528137207,200,-9999,12285.37859425,0.95733642578125,0.1206512451171875,-0.184326171875,12285.36855325,1.283915632223024,1.393108103351663,-0.119019015830976,-0.02727794274687767,-0.1588992923498154,-0.2721770405769348,-0.05480670928955078,-0.004254400730133057,-0.02702164649963379,2,-0.4200127914228746,0.4856306591551332,0.4279126741044932,0.6361154459740903,0.9772919416427612,0.1187382191419601,-0.1755042374134064,50.52204132080078,39.34317016601562,8.29541015625,2,12284.86794325,2,0,1580908569.10911,1580903939.50652,2875,0.4912658,0.8527173,1.363914,3428.459,14,15,1580908565.652,12282.549151,0,17.85944,96.99583
1580908569.609716,106,0,1580907286.99823,41.20781296037784,29.0754925099451,275.2123,0.1345286,-1,23.46983528137207,200,-9999,12285.38863425,0.9798583984375,0.11834716796875,-0.1820220947265625,12285.37859425,1.283599298230031,1.391595321114518,-0.1218329037370523,-0.01889648474752903,-0.1512955129146576,-0.2839553952217102,-0.02475589513778687,-0.001076579093933105,-0.01076698303222656,2,-0.4204431809564688,0.4845270027258818,0.4273695995311687,0.6370372672658731,0.976692795753479,0.1215317249298096,-0.1769222319126129,50.52204132080078,39.34317016601562,8.29541015625,2,12284.86794325,2,0,1580908569.10911,1580903939.50652,2875,0.4912658,0.8527173,1.363914,3428.459,14,15,1580908565.652,12282.549151,0,17.85944,96.99583
1580908569.611163,107,0,1580907286.99823,41.20781296037784,29.0754925099451,275.2123,0.1345286,-1,23.46983528137207,200,-9999,12285.39867425,0.976470947265625,0.121063232421875,-0.1862945556640625,12285.38863425,1.283250086839942,1.390007679164047,-0.1248299142104715,-0.01785305887460709,-0.1625295281410217,-0.3045589327812195,-0.001785159111022949,-0.007113337516784668,-0.006958067417144775,2,-0.4209041503813368,0.4833596134205141,0.4267821571911187,0.6380128223989031,0.9760480523109436,0.1245059743523598,-0.1784063577651978,50.46729278564453,39.22285842895508,8.421630859375,2,12284.86794325,2,0,1580908569.10911,1580903939.50652,2875,0.4912658,0.8527173,1.363914,3428.459,14,15,1580908565.652,12282.549151,0,17.85944,96.99583
1580908569.612787,108,0,1580907286.99823,41.20781296037784,29.0754925099451,275.2123,0.1345286,-1,23.46983528137207,200,-9999,12285.40871525,0.977142333984375,0.1229705810546875,-0.192413330078125,12285.39867425,1.282935071134907,1.388483731431736,-0.1279324799546741,-0.02495422586798668,-0.1465995162725449,-0.3120002150535583,-0.001323580741882324,-0.006463915109634399,-0.00835949182510376,2,-0.4214186061398911,0.4821773679540624,0.4261635029017572,0.6389805497043612,0.9753903746604919,0.1275837868452072,-0.1798226833343506,50.46729278564453,39.22285842895508,8.421630859375,2,12284.86794325,2,0,1580908569.10911,1580903939.50652,2875,0.4912658,0.8527173,1.363914,3428.459,14,15,1580908565.652,12282.549151,0,17.85944,96.99583
1580908569.621175,109,0,1580907286.99823,41.20781296037784,29.0754925099451,275.2123,0.1345286,-1,23.46983528137207,200,-9999,12285.41877654167,0.98809814453125,0.1368560791015625,-0.1806640625,12285.40871525,1.282599970028829,1.386855025418175,-0.1310139720749135,-0.02345753088593483,-0.1549410670995712,-0.3116412162780762,-0.001764893531799316,-0.00980532169342041,-0.01462048292160034,2,-0.4219001243945324,0.4809689561886042,0.4255660546856006,0.6399709112139315,0.9747050404548645,0.1306394934654236,-0.181338295340538,50.19330596923828,39.70973205566406,8.228851318359375,2,12284.86794325,2,0,1580908569.10911,1580903939.50652,2875,0.4912658,0.8527173,1.363914,3428.459,14,15,1580908565.652,12282.549151,0,17.85944,96.99583
1580908569.631286,110,0,1580907286.99823,41.20781296037784,29.0754925099451,275.2123,0.1345286,-1,23.46983528137207,200,-9999,12285.42884754167,1.014984130859375,0.1331634521484375,-0.189727783203125,12285.41877654167,1.282210616615005,1.384735889709943,-0.1339515152910272,-0.0171273909509182,-0.2082530856132507,-0.2954682111740112,0.008710086345672607,0.002759933471679688,-0.000672459602355957,2,-0.4222224574597774,0.4796481883894607,0.4250935979862165,0.6410625857301566,0.9739371538162231,0.133551299571991,-0.183331623673439,50.19330596923828,39.70973205566406,8.228851318359375,2,12284.86794325,2,0,1580908569.10911,1580903939.50652,2875,0.4912658,0.8527173,1.363914,3428.459,14,15,1580908565.652,12282.549151,0,17.85944,96.99583
1580908569.641315,111,0,1580907286.99823,41.20781296037784,29.0754925099451,275.2123,0.1345286,-1,23.46983528137207,200,-9999,12285.43888754167,0.9876861572265625,0.1410980224609375,-0.1738739013671875,12285.42884754167,1.281648014109288,1.382008635340373,-0.1368943513077019,0.002576007507741451,-0.2603879272937775,-0.3012376725673676,0.03621840476989746,-0.003782868385314941,-0.006138741970062256,2,-0.4223765620216517,0.478164983358053,0.4246926013354833,0.6423337534719283,0.9730434417724609,0.1364671885967255,-0.1859125792980194,49.82053375244141,39.77288818359375,8.06256103515625,2,12284.86794325,2,0,1580908569.10911,1580903939.50652,2875,0.4912658,0.8527173,1.363914,3428.459,14,15,1580908565.652,12282.549151,0,17.85944,96.99583
1580908569.666445,112,0,1580907286.99823,41.20781296037784,29.0754925099451,275.2123,0.1345286,-1,23.46983528137207,200,-9999,12285.44892754167,0.9133758544921875,0.14129638671875,-0.1905670166015625,12285.43888754167,1.281045507945806,1.378802357551439,-0.1397647137307032,0.001552498899400234,-0.3118901550769806,-0.2969214022159576,0.01827555894851685,0.0001998245716094971,0.01045018434524536,2,-0.4223995397820651,0.4765508025110917,0.4243994900408733,0.6437104097762963,0.9720537066459656,0.1393101215362549,-0.1889559179544449,49.82053375244141,39.77288818359375,8.06256103515625,2,12284.86794325,2,0,1580908569.10911,1580903939.50652,2875,0.4912658,0.8527173,1.363914,3428.459,14,15,1580908565.652,12282.549151,0,17.85944,96.99583
1580908569.667731,113,0,1580907286.99823,41.20781296037784,29.0754925099451,275.2123,0.1345286,-1,23.46983528137207,200,-9999,12285.45896854167,0.8265380859375,0.1396484375,-0.2187042236328125,12285.44892754167,1.280493297272027,1.375806280893921,-0.1422220317677065,0.006705981679260731,-0.2931657433509827,-0.2542357444763184,-0.05286407470703125,-0.0004413425922393799,0.001891255378723145,2,-0.4223585323288719,0.4750926505585675,0.4241898298725978,0.6449520481647201,0.9711443185806274,0.1417430639266968,-0.1918004900217056,49.62387847900391,40.11936187744141,7.863494873046875,2,12284.86794325,2,0,1580908569.10911,1580903939.50652,2875,0.4912658,0.8527173,1.363914,3428.459,14,15,1580908565.652,12282.549151,0,17.85944,96.99583
1580908569.671366,114,0,1580907286.99823,41.20781296037784,29.0754925099451,275.2123,0.1345286,-1,23.46983528137207,200,-9999,12285.46900854167,0.79852294921875,0.1257781982421875,-0.2433319091796875,12285.45896854167,1.280133976877722,1.373846945987716,-0.1440101151731362,0.002201206050813198,-0.1939039528369904,-0.182311162352562,-0.1399259567260742,-0.004216432571411133,-0.02589696645736694,2,-0.4223862657680522,0.4740920998555128,0.4240043742760947,0.6457917251417837,0.9705167412757874,0.1435128599405289,-0.1936530470848083,49.62387847900391,40.11936187744141,7.863494873046875,2,12284.86794325,2,0,1580908569.10911,1580903939.50652,2875,0.4912658,0.8527173,1.363914,3428.459,14,15,1580908565.652,12282.549151,0,17.85944,96.99583
1580908569.681637,115,0,1580907286.99823,41.20781296037784,29.0754925099451,275.2123,0.1345286,-1,23.46983528137207,200,-9999,12285.47904854167,0.8502044677734375,0.13397216796875,-0.2337188720703125,12285.46900854167,1.280090792335369,1.37343581119979,-0.1451830448908548,-0.02150119468569756,-0.03684616088867188,-0.1149156168103218,-0.1764684915542603,-0.01784771680831909,-0.05006575584411621,2,-0.4226356453413868,0.4736767494440137,0.423760229419949,0.6460935007964853,0.9702712893486023,0.1446735560894012,-0.1940189003944397,49.50249481201172,40.16018676757812,7.58917236328125,2,12284.86794325,2,0,1580908569.10911,1580903939.50652,2875,0.4912658,0.8527173,1.363914,3428.459,14,15,1580908565.652,12282.549151,0,17.85944,96.99583
1580908569.691964,116,0,1580907286.99823,41.20781296037784,29.0754925099451,275.2123,0.1345286,-1,23.46983528137207,200,-9999,12285.48908854167,0.933013916015625,0.153045654296875,-0.189483642578125,12285.47904854167,1.280178796902387,1.373958388326848,-0.1459305500106191,-0.02456500008702278,0.05764494836330414,-0.07098240405321121,-0.1310229301452637,-0.01465326547622681,-0.04714775085449219,2,-0.4229880938536432,0.4736409701282565,0.4234760336245357,0.6460753369600459,0.9702661633491516,0.1454131454229355,-0.1934906095266342,49.50249481201172,40.16018676757812,7.58917236328125,2,12284.86794325,2,0,1580908569.10911,1580903939.50652,2875,0.4912658,0.8527173,1.363914,3428.459,14,15,1580908565.652,12282.549151,0,17.85944,96.99583
1580908569.701524,117,0,1580907286.99823,41.20781296037784,29.0754925099451,275.2123,0.1345286,-1,23.46983528137207,200,-9999,12285.49912954167,1.00738525390625,0.1531524658203125,-0.174346923828125,12285.48908854167,1.280204016798473,1.374330282762637,-0.1465303621503618,-0.01536404527723789,0.03997008129954338,-0.05652117729187012,-0.04916101694107056,0.00580829381942749,-0.002513587474822998,2,-0.4232499139898975,0.4736065354435832,0.4232432488532848,0.6460817612780199,0.9702524542808533,0.1460065692663193,-0.1931127160787582,49.29972076416016,39.84902191162109,7.632568359375,2,12284.86794325,2,0,1580908569.10911,1580903939.50652,2875,0.4912658,0.8527173,1.363914,3428.459,14,15,1580908565.652,12282.549151,0,17.85944,96.99583
1580908569.731903,118,0,1580907286.99823,41.20781296037784,29.0754925099451,275.2123,0.1345286,-1,23.46983528137207,200,-9999,12285.50916954167,1.003921508789062,0.1587371826171875,-0.167938232421875,12285.49912954167,1.28001706351047,1.373896471366111,-0.1472710156427616,0.004828885197639465,-0.04000429064035416,-0.07571835070848465,0.02834618091583252,0.005515456199645996,0.01511466503143311,2,-0.4233326072917192,0.4733215696701564,0.4230742159858177,0.6463470249254991,0.9700621962547302,0.1467392444610596,-0.1935123950242996,49.29972076416016,39.84902191162109,7.632568359375,2,12284.86794325,2,0,1580908569.10911,1580903939.50652,2875,0.4912658,0.8527173,1.363914,3428.459,14,15,1580908565.652,12282.549151,0,17.85944,96.99583
1580908569.733284,119,0,1580907286.99823,41.20781296037784,29.0754925099451,275.2123,0.1345286,-1,23.46983528137207,200,-9999,12285.51924054167,0.9209136962890625,0.143951416015625,-0.203948974609375,12285.50916954167,1.279686705445245,1.372719637900198,-0.1480924917034886,0.01683308556675911,-0.1210307031869888,-0.08859207481145859,0.03646117448806763,0.01075765490531921,0.02478122711181641,2,-0.4232482352411573,0.4728064201316148,0.4229941633625076,0.6468313856418966,0.9697151184082031,0.1475517749786377,-0.194630041718483,49.36226654052734,40.05556869506836,7.603729248046875,2,12285.50987154167,4,2,1580908569.751038,1580903939.50652,2875,0.4912658,0.8527173,1.363914,3428.459,14,15,1580908565.652,12282.549151,0,17.85944,96.99583
1580908569.734315,120,0,1580907286.99823,41.20781296037784,29.0754925099451,275.2123,0.1345286,-1,23.46983528137207,200,-9999,12285.52928054167,0.8918304443359375,0.139251708984375,-0.223907470703125,12285.51924054167,1.279385140918001,1.371815378076353,-0.1487637890777957,0.01610870286822319,-0.08773745596408844,-0.07181868702173233,-0.04434937238693237,-0.00324481725692749,-0.007134199142456055,2,-0.4231840509749097,0.4724104576671144,0.4229063535876361,0.6472201112343777,0.9694415330886841,0.1482156962156296,-0.1954872310161591,49.36226654052734,40.05556869506836,7.603729248046875,2,12285.50987154167,4,2,1580908569.751038,1580903939.50652,2875,0.4912658,0.8527173,1.363914,3428.459,14,15,1580908565.652,12282.549151,0,17.85944,96.99583
1580908569.741766,121,0,1580907286.99823,41.20781296037784,29.0754925099451,275.2123,0.1345286,-1,23.46983528137207,200,-9999,12285.53932054167,0.9201202392578125,0.1419830322265625,-0.21044921875,12285.52928054167,1.27915627527493,1.371533514891037,-0.1492218448211416,0.01350173633545637,-0.02126522548496723,-0.04787606745958328,-0.08216053247451782,-0.01023018360137939,-0.0313180685043335,2,-0.4232057587280131,0.4722535029718643,0.4227680043996905,0.6474108642369434,0.9693198204040527,0.1486686766147614,-0.1957470327615738,49.28740692138672,40.24794387817383,7.619476318359375,2,12285.50987154167,4,2,1580908569.751038,1580903939.50652,2875,0.4912658,0.8527173,1.363914,3428.459,14,15,1580908565.652,12282.549151,0,17.85944,96.99583
1580908569.751731,122,0,1580907286.99823,41.20781296037784,29.0754925099451,275.2123,0.1345286,-1,23.46983528137207,200,-9999,12285.54936154167,0.9219512939453125,0.1397552490234375,-0.216064453125,12285.53932054167,1.2790244568973,1.371552416702027,-0.149585168926939,0.006395068019628525,0.003412831574678421,-0.03819094225764275,-0.05488938093185425,-0.00737115740776062,-0.01880449056625366,2,-0.4232859828820124,0.4721969613102509,0.4226230296007182,0.6474943531584532,0.9692705273628235,0.149027943611145,-0.1957180202007294,49.28740692138672,40.24794387817383,7.619476318359375,2,12285.50987154167,4,2,1580908569.751038,1580903939.50652,2875,0.4912658,0.8527173,1.363914,3428.459,14,15,1580908565.652,12282.549151,0,17.85944,96.99583
1580908569.762164,123,0,1580907286.99823,41.20781296037784,29.0754925099451,275.2123,0.1345286,-1,23.46983528137207,200,-9999,12285.55940154167,0.9264678955078125,0.13702392578125,-0.221710205078125,12285.54936154167,1.279032585290272,1.371989039967807,-0.1498643609523041,-0.00771409273147583,0.04565642029047012,-0.02593081444501877,-0.05006659030914307,-0.01005914807319641,-0.02210617065429688,2,-0.4234626421137171,0.4722669905815456,0.4224576656361845,0.6474356665692539,0.9693150520324707,0.1493040174245834,-0.1952865570783615,49.20856475830078,40.36955642700195,7.3646240234375,2,12285.50987154167,4,2,1580908569.751038,1580903939.50652,2875,0.4912658,0.8527173,1.363914,3428.459,14,15,1580908565.652,12282.549151,0,17.85944,96.99583
1580908569.791176,124,0,1580907286.99823,41.20781296037784,29.0754925099451,275.2123,0.1345286,-1,23.46983528137207,200,-9999,12285.56944154167,0.93353271484375,0.142181396484375,-0.2103729248046875,12285.55940154167,1.279162650786014,1.372924044148979,-0.1501142301459787,-0.01919875293970108,0.09628870338201523,-0.02257091552019119,-0.047771155834198,-0.01239752769470215,-0.03080528974533081,2,-0.4237646494400159,0.4724797608432034,0.4222340380797807,0.6472285434278403,0.9694604873657227,0.1495510786771774,-0.1943727880716324,49.20856475830078,40.36955642700195,7.3646240234375,2,12285.50987154167,4,2,1580908569.751038,1580903939.50652,2875,0.4912658,0.8527173,1.363914,3428.459,14,15,1580908565.652,12282.549151,0,17.85944,96.99583
1580908569.792643,125,0,1580907286.99823,41.20781296037784,29.0754925099451,275.2123,0.1345286,-1,23.46983528137207,200,-9999,12285.57948154167,0.952117919921875,0.150543212890625,-0.1995086669921875,12285.56944154167,1.279365537417364,1.374102346320994,-0.1502802590595551,-0.02401481382548809,0.1190643236041069,-0.01102717593312263,-0.04001075029373169,-0.009830981492996216,-0.02135193347930908,2,-0.4241103047437247,0.4727765963403578,0.4220049236249053,0.6469346952624356,0.969664454460144,0.14971524477005,-0.1932254731655121,49.23166656494141,40.08637237548828,7.768524169921875,2,12285.50987154167,4,2,1580908569.751038,1580903939.50652,2875,0.4912658,0.8527173,1.363914,3428.459,14,15,1580908565.652,12282.549151,0,17.85944,96.99583
1580908569.793783,126,0,1580907286.99823,41.20781296037784,29.0754925099451,275.2123,0.1345286,-1,23.46983528137207,200,-9999,12285.58952254167,0.9549102783203125,0.1465301513671875,-0.193878173828125,12285.57948154167,1.279578558682289,1.375223478894032,-0.1504039012481111,-0.02373098954558372,0.1083724051713943,-0.008627068251371384,-0.02360743284225464,0.000574946403503418,-0.01080381870269775,2,-0.4244335788173485,0.47306320764897,0.4218024985810929,0.6466453168262341,0.9698625206947327,0.1498374789953232,-0.1921346783638,49.23166656494141,40.08637237548828,7.768524169921875,2,12285.50987154167,4,2,1580908569.751038,1580903939.50652,2875,0.4912658,0.8527173,1.363914,3428.459,14,15,1580908565.652,12282.549151,0,17.85944,96.99583
1580908569.80198,127,0,1580907286.99823,41.20781296037784,29.0754925099451,275.2123,0.1345286,-1,23.46983528137207,200,-9999,12285.59956254167,0.9293212890625,0.149993896484375,-0.189483642578125,12285.58952254167,1.279794964906922,1.376197000654513,-0.1504768017388669,-0.02080603875219822,0.09279237687587738,-0.005419556982815266,-0.01702451705932617,-0.003968209028244019,-0.006260514259338379,2,-0.4247115356880002,0.4733138095858944,0.4216460192507699,0.6463814665236371,0.9700384140014648,0.1499095559120178,-0.1911883056163788,49.10163116455078,39.93569946289062,7.807159423828125,2,12285.50987154167,4,2,1580908569.751038,1580903939.50652,2875,0.4912658,0.8527173,1.363914,3428.459,14,15,1580908565.652,12282.549151,0,17.85944,96.99583
1580908569.811932,128,0,1580907286.99823,41.20781296037784,29.0754925099451,275.2123,0.1345286,-1,23.46983528137207,200,-9999,12285.60963354167,0.919464111328125,0.1520233154296875,-0.1952667236328125,12285.59956254167,1.280058838786036,1.377081714311087,-0.1503200292442678,-0.02402309142053127,0.0828532800078392,0.02106953039765358,-0.04155498743057251,-0.0007609128952026367,-0.001807570457458496,2,-0.4249143497720324,0.4735826592294337,0.4215858888398622,0.6460903161210496,0.9702301025390625,0.1497545540332794,-0.1903345137834549,49.10163116455078,39.93569946289062,7.807159423828125,2,12285.50987154167,4,2,1580908569.751038,1580903939.50652,2875,0.4912658,0.8527173,1.363914,3428.459,14,15,1580908565.652,12282.549151,0,17.85944,96.99583
1580908569.822058,129,0,1580907286.99823,41.20781296037784,29.0754925099451,275.2123,0.1345286,-1,23.46983528137207,200,-9999,12285.61967354167,0.9516143798828125,0.14385986328125,-0.1966400146484375,12285.60963354167,1.280333151590199,1.378042422471062,-0.1499469720198123,-0.01747917197644711,0.09407796710729599,0.04286430776119232,-0.05570900440216064,0.002432167530059814,-0.008378148078918457,2,-0.4250719906314903,0.4739275267536968,0.4215715940806345,0.6457429302496756,0.9704672694206238,0.1493857055902481,-0.1894130110740662,49.22995758056641,40.27183532714844,7.85601806640625,2,12285.50987154167,4,2,1580908569.751038,1580903939.50652,2875,0.4912658,0.8527173,1.363914,3428.459,14,15,1580908565.652,12282.549151,0,17.85944,96.99583
1580908569.850201,130,0,1580907286.99823,41.20781296037784,29.0754925099451,275.2123,0.1345286,-1,23.46983528137207,200,-9999,12285.62971354167,0.946807861328125,0.1375579833984375,-0.2041473388671875,12285.61967354167,1.280680308864198,1.378968904462381,-0.1495087668547529,-0.02186977490782738,0.08336252719163895,0.04792842641472816,-0.02558410167694092,-0.004686087369918823,-0.01082456111907959,2,-0.4252205735842375,0.4742618758822948,0.4216056981985018,0.645377305395096,0.9707065224647522,0.1489523947238922,-0.1885262727737427,49.22995758056641,40.27183532714844,7.85601806640625,2,12285.50987154167,4,2,1580908569.751038,1580903939.50652,2875,0.4912658,0.8527173,1.363914,3428.459,14,15,1580908565.652,12282.549151,0,17.85944,96.99583
1580908569.851425,131,0,1580907286.99823,41.20781296037784,29.0754925099451,275.2123,0.1345286,-1,23.46983528137207,200,-9999,12285.63975454167,0.92852783203125,0.1412506103515625,-0.20855712890625,12285.62971354167,1.281158569887781,1.38011660411491,-0.1490093327118079,-0.03688254952430725,0.1071956902742386,0.05604414641857147,-0.02503454685211182,-0.01165193319320679,-0.01839840412139893,2,-0.425429057142351,0.4746546636465133,0.4216515353240728,0.6449209830388403,0.9709951281547546,0.1484585106372833,-0.1874261349439621,49.35402679443359,40.23805999755859,7.98724365234375,2,12285.50987154167,4,2,1580908569.751038,1580903939.50652,2875,0.4912658,0.8527173,1.363914,3428.459,14,15,1580908565.652,12282.549151,0,17.85944,96.99583
1580908569.852608,132,0,1580907286.99823,41.20781296037784,29.0754925099451,275.2123,0.1345286,-1,23.46983528137207,200,-9999,12285.64979454167,0.9323272705078125,0.144073486328125,-0.1981201171875,12285.63975454167,1.281709652967467,1.381602005858661,-0.1483949788608624,-0.04230261221528053,0.1423536837100983,0.06963558495044708,-0.04571211338043213,-0.007425755262374878,-0.0256882905960083,2,-0.4256924338913806,0.475169006364067,0.4216800138480207,0.6443495877323793,0.9713618755340576,0.1478509455919266,-0.1860007345676422,49.35402679443359,40.23805999755859,7.98724365234375,2,12285.50987154167,4,2,1580908569.751038,1580903939.50652,2875,0.4912658,0.8527173,1.363914,3428.459,14,15,1580908565.652,12282.549151,0,17.85944,96.99583
1580908569.862247,133,0,1580907286.99823,41.20781296037784,29.0754925099451,275.2123,0.1345286,-1,23.46983528137207,200,-9999,12285.65983454167,0.9327392578125,0.148162841796875,-0.1881561279296875,12285.64979454167,1.282304433020807,1.383255128610959,-0.1476401074144004,-0.0447002574801445,0.1575805842876434,0.08560895919799805,-0.04342830181121826,-0.004128336906433105,-0.01801735162734985,2,-0.4259606062752208,0.4757623745449939,0.421724737352523,0.6437048893748851,0.9717773795127869,0.1471043229103088,-0.1844154447317123,49.30301666259766,40.27817153930664,8.147705078125,2,12285.50987154167,4,2,1580908569.751038,1580903939.50652,2875,0.4912658,0.8527173,1.363914,3428.459,14,15,1580908565.652,12282.549151,0,17.85944,96.99583
1580908569.872229,134,0,1580907286.99823,41.20781296037784,29.0754925099451,275.2123,0.1345286,-1,23.46983528137207,200,-9999,12285.66987554167,0.9350433349609375,0.14874267578125,-0.1875762939453125,12285.65983454167,1.282890289619827,1.384987121031857,-0.146775547971305,-0.04224482178688049,0.1651306450366974,0.09655828028917313,-0.04263663291931152,0.001048237085342407,-0.008697032928466797,2,-0.4262114437927451,0.4764095465247734,0.4217793025163497,0.6430241335649883,0.9722200036048889,0.1462491154670715,-0.1827555000782013,49.30301666259766,40.27817153930664,8.147705078125,2,12285.50987154167,4,2,1580908569.751038,1580903939.50652,2875,0.4912658,0.8527173,1.363914,3428.459,14,15,1580908565.652,12282.549151,0,17.85944,96.99583
1580908569.882217,135,0,1580907286.99823,41.20781296037784,29.0754925099451,275.2123,0.1345286,-1,23.46983528137207,200,-9999,12285.67991554167,0.958465576171875,0.147491455078125,-0.1822357177734375,12285.66987554167,1.283404445000182,1.386790835956186,-0.1458585599911016,-0.03279619291424751,0.17431640625,0.1003570109605789,-0.04221296310424805,0.002889454364776611,-0.009502053260803223,2,-0.426445373124075,0.4771072393068986,0.4218094810117084,0.6423315564640197,0.9726794958114624,0.1453419327735901,-0.1810260564088821,49.44771575927734,40.30406188964844,8.241790771484375,2,12285.50987154167,4,2,1580908569.751038,1580903939.50652,2875,0.4912658,0.8527173,1.363914,3428.459,14,15,1580908565.652,12282.549151,0,17.85944,96.99583
1580908569.910785,136,0,1580907286.99823,41.20781296037784,29.0754925099451,275.2123,0.1345286,-1,23.46983528137207,200,-9999,12285.68995554167,0.9991455078125,0.1415863037109375,-0.1829376220703125,12285.67991554167,1.283806686574334,1.388488256152148,-0.1450500646492418,-0.02356740273535252,0.1635343283414841,0.08749619871377945,-0.02163958549499512,0.002486884593963623,-0.006606101989746094,2,-0.4266623049616834,0.4777669642230659,0.4217966439450332,0.641705356463223,0.9731007218360901,0.1445419639348984,-0.179396003484726,49.39252471923828,40.24403762817383,8.4320068359375,2,12285.50987154167,4,2,1580908569.751038,1580903939.50652,2875,0.4912658,0.8527173,1.363914,3428.459,14,15,1580908565.652,12282.549151,0,17.85944,96.99583
1580908569.91218,137,0,1580907286.99823,41.20781296037784,29.0754925099451,275.2123,0.1345286,-1,23.46983528137207,200,-9999,12285.69999554167,1.023529052734375,0.131866455078125,-0.192626953125,12285.68995554167,1.284098875928276,1.390019934557428,-0.1445693204497807,-0.02070983126759529,0.1469132751226425,0.054046630859375,0.01846843957901001,-0.00213208794593811,-0.006914734840393066,2,-0.4269142998574632,0.4783150518511776,0.4216943988287073,0.6411963865225845,0.9734424948692322,0.144066259264946,-0.1779177784919739,49.39252471923828,40.24403762817383,8.4320068359375,2,12285.50987154167,4,2,1580908569.751038,1580903939.50652,2875,0.4912658,0.8527173,1.363914,3428.459,14,15,1580908565.652,12282.549151,0,17.85944,96.99583
1580908569.914184,138,0,1580907286.99823,41.20781296037784,29.0754925099451,275.2123,0.1345286,-1,23.46983528137207,200,-9999,12285.71006654167,1.053054809570312,0.143402099609375,-0.1700286865234375,12285.69999554167,1.284233355297437,1.391414362691967,-0.1445887469673601,-0.01504670828580856,0.1451500952243805,-0.0008255797438323498,0.04423952102661133,-0.01228323578834534,-0.0193403959274292,2,-0.4272461196237141,0.4787284250941722,0.4214344211697695,0.6408375974659408,0.9736868143081665,0.144085481762886,-0.1765597015619278,49.55774688720703,40.16682052612305,8.59906005859375,2,12285.50987154167,4,2,1580908569.751038,1580903939.50652,2875,0.4912658,0.8527173,1.363914,3428.459,14,15,1580908565.652,12282.549151,0,17.85944,96.99583
1580908569.922705,139,0,1580907286.99823,41.20781296037784,29.0754925099451,275.2123,0.1345286,-1,23.46983528137207,200,-9999,12285.72010654167,1.057296752929688,0.152374267578125,-0.159393310546875,12285.71006654167,1.284135444572017,1.392014649866584,-0.1450857272165348,0.00116315484046936,0.0615750327706337,-0.0512717068195343,0.07257020473480225,-0.003545224666595459,-0.0001644492149353027,2,-0.4274945456814962,0.4788185469508365,0.4211392864993562,0.6407986543362709,0.9737220406532288,0.1445772498846054,-0.1759624183177948,49.55774688720703,40.16682052612305,8.59906005859375,2,12285.50987154167,4,2,1580908569.751038,1580903939.50652,2875,0.4912658,0.8527173,1.363914,3428.459,14,15,1580908565.652,12282.549151,0,17.85944,96.99583
1580908569.932576,140,0,1580907286.99823,41.20781296037784,29.0754925099451,275.2123,0.1345286,-1,23.46983528137207,200,-9999,12285.73014754167,1.012969970703125,0.1479034423828125,-0.169677734375,12285.72010654167,1.283813036194618,1.391722629895256,-0.1459960924816197,0.01590124517679214,-0.02259627357125282,-0.09691471606492996,0.08245694637298584,0.006415009498596191,0.01471543312072754,2,-0.4276222266104758,0.4785682837572663,0.4208500929208852,0.6410904023635979,0.9735407829284668,0.1454779952764511,-0.1762232631444931,49.42531585693359,40.27299118041992,8.626953125,2,12285.50987154167,4,2,1580908569.751038,1580903939.50652,2875,0.4912658,0.8527173,1.363914,3428.459,14,15,1580908565.652,12282.549151,0,17.85944,96.99583
1580908569.942559,141,0,1580907286.99823,41.20781296037784,29.0754925099451,275.2123,0.1345286,-1,23.46983528137207,200,-9999,12285.74018754167,0.95654296875,0.1486663818359375,-0.17279052734375,12285.73014754167,1.28336388613777,1.3908558308812,-0.1470575764121929,0.02525719627737999,-0.07956661283969879,-0.1122571900486946,0.04188531637191772,0.001195520162582397,0.005005896091461182,2,-0.4276430269481987,0.478123185612632,0.4206018211403983,0.641571400724988,0.9732351899147034,0.1465281099081039,-0.1770393252372742,49.42531585693359,40.27299118041992,8.626953125,2,12285.50987154167,4,2,1580908569.751038,1580903939.50652,2875,0.4912658,0.8527173,1.363914,3428.459,14,15,1580908565.652,12282.549151,0,17.85944,96.99583
1580908569.968034,142,0,1580907286.99823,41.20781296037784,29.0754925099451,275.2123,0.1345286,-1,23.46983528137207,200,-9999,12285.75022754167,0.9095458984375,0.1469268798828125,-0.182830810546875,12285.74018754167,1.28291957040738,1.389770250510725,-0.1479936411350403,0.02786653488874435,-0.1029864922165871,-0.09955921769142151,-0.01474642753601074,0.0005408525466918945,0.002836942672729492,2,-0.4275825771863348,0.4776375811605126,0.4204359619446389,0.6420818626576317,0.9729070663452148,0.1474540084600449,-0.1780709624290466,49.38950347900391,40.23429489135742,8.5118408203125,2,12285.50987154167,4,2,1580908569.751038,1580903939.50652,2875,0.4912658,0.8527173,1.363914,3428.459,14,15,1580908565.652,12282.549151,0,17.85944,96.99583
1580908569.969324,143,0,1580907286.99823,41.20781296037784,29.0754925099451,275.2123,0.1345286,-1,23.46983528137207,200,-9999,12285.76026854167,0.8985748291015625,0.14202880859375,-0.197296142578125,12285.75022754167,1.282587346300496,1.388913160730173,-0.1486574637745976,0.02023977413773537,-0.08163300156593323,-0.07044713944196701,-0.06283587217330933,-0.001155614852905273,-0.005468845367431641,2,-0.4275174477509124,0.477268603859221,0.4203314196632219,0.642467950418534,0.9726576209068298,0.1481105387210846,-0.1788870245218277,49.38950347900391,40.23429489135742,8.5118408203125,2,12285.50987154167,4,2,1580908569.751038,1580903939.50652,2875,0.4912658,0.8527173,1.363914,3428.459,14,15,1580908565.652,12282.549151,0,17.85944,96.99583
1580908569.972639,144,0,1580907286.99823,41.20781296037784,29.0754925099451,275.2123,0.1345286,-1,23.46983528137207,200,-9999,12285.77030854167,0.9165191650390625,0.14605712890625,-0.1942291259765625,12285.76026854167,1.282398420778103,1.388540583515188,-0.1490420074204433,0.00941913016140461,-0.03324940055608749,-0.04017556086182594,-0.07878017425537109,-0.006847381591796875,-0.02003860473632812,2,-0.4275066642799484,0.4770938226050685,0.4202454776740648,0.6426611762498086,0.9725348353385925,0.1484908312559128,-0.1792390793561935,49.31511688232422,40.21030044555664,8.335205078125,2,12285.50987154167,4,2,1580908569.751038,1580903939.50652,2875,0.4912658,0.8527173,1.363914,3428.459,14,15,1580908565.652,12282.549151,0,17.85944,96.99583
1580908569.982864,145,0,1580907286.99823,41.20781296037784,29.0754925099451,275.2123,0.1345286,-1,23.46983528137207,200,-9999,12285.78034854167,0.9393768310546875,0.1457977294921875,-0.183135986328125,12285.77030854167,1.282282950152594,1.388484586695507,-0.1492483770893089,0.00821351632475853,-0.0008869320154190063,-0.02320216968655586,-0.06122285127639771,-0.003451168537139893,-0.0190131664276123,2,-0.4275278019722851,0.4770492601127586,0.420164038945875,0.6427333995723024,0.9724946022033691,0.1486949026584625,-0.1792879700660706,49.31511688232422,40.21030044555664,8.335205078125,2,12285.50987154167,4,2,1580908569.751038,1580903939.50652,2875,0.4912658,0.8527173,1.363914,3428.459,14,15,1580908565.652,12282.549151,0,17.85944,96.99583
1580908569.992825,146,0,1580907286.99823,41.20781296037784,29.0754925099451,275.2123,0.1345286,-1,23.46983528137207,200,-9999,12285.79038854167,0.9588623046875,0.1586151123046875,-0.162017822265625,12285.78034854167,1.282192252341808,1.388355191076442,-0.1493630043919906,0.003990699537098408,-0.004346070811152458,-0.01304476335644722,-0.03939312696456909,-0.003870010375976562,-0.007918715476989746,2,-0.4275125290820678,0.4769986138437888,0.4201312943916152,0.6428026222511573,0.9724547266960144,0.1488082557916641,-0.1794107258319855,49.35813140869141,40.43449401855469,8.301513671875,2,12285.50987154167,4,2,1580908569.751038,1580903939.50652,2875,0.4912658,0.8527173,1.363914,3428.459,14,15,1580908565.652,12282.549151,0,17.85944,96.99583
1580908570.002829,147,0,1580907286.99823,41.20781296037784,29.0754925099451,275.2123,0.1345286,-1,23.46983528137207,200,-9999,12285.80045954167,0.9435882568359375,0.159881591796875,-0.160919189453125,12285.79038854167,1.28197704061121,1.38762265040446,-0.1494049153951222,0.01930866949260235,-0.07405005395412445,-0.008779712021350861,-0.01712954044342041,0.007807105779647827,0.01289093494415283,2,-0.4273195732798564,0.4767987288856584,0.4202072422509802,0.643029591801401,0.9723169207572937,0.1488497108221054,-0.1801219135522842,49.35813140869141,40.43449401855469,8.301513671875,2,12285.50987154167,4,2,1580908569.751038,1580903939.50652,2875,0.4912658,0.8527173,1.363914,3428.459,14,15,1580908565.652,12282.549151,0,17.85944,96.99583
1580908570.032335,148,0,1580907286.99823,41.20781296037784,29.0754925099451,275.2123,0.1345286,-1,23.46983528137207,200,-9999,12285.81050054167,0.92999267578125,0.149017333984375,-0.190460205078125,12285.80045954167,1.281630099038216,1.386467563293406,-0.1493763822875718,0.03553151339292526,-0.1147922798991203,-0.003662645351141691,-0.03036713600158691,0.01123809814453125,0.01925241947174072,2,-0.4269858491434585,0.476508405727774,0.4203501144461602,0.6433728602063286,0.972112238407135,0.1488214880228043,-0.1812456548213959,49.28104400634766,40.32434463500977,8.306915283203125,2,12285.50987154167,4,2,1580908569.751038,1580903939.50652,2875,0.4912658,0.8527173,1.363914,3428.459,14,15,1580908565.652,12282.549151,0,17.85944,96.99583
1580908570.034121,149,0,1580907286.99823,41.20781296037784,29.0754925099451,275.2123,0.1345286,-1,23.46983528137207,200,-9999,12285.82054054167,0.902557373046875,0.137237548828125,-0.2193756103515625,12285.81050054167,1.281279320827221,1.38548087563523,-0.1493414956451883,0.03426837548613548,-0.100852757692337,-0.002779807429760695,-0.04352855682373047,0.001018881797790527,-0.007616102695465088,2,-0.4266846747984668,0.476274446899187,0.42045732273228,0.6436757401436428,0.9719380140304565,0.1487869918346405,-0.1822056770324707,49.28104400634766,40.32434463500977,8.306915283203125,2,12285.50987154167,4,2,1580908569.751038,1580903939.50652,2875,0.4912658,0.8527173,1.363914,3428.459,14,15,1580908565.652,12282.549151,0,17.85944,96.99583
1580908570.035169,150,0,1580907286.99823,41.20781296037784,29.0754925099451,275.2123,0.1345286,-1,23.46983528137207,200,-9999,12285.83058054167,0.9481201171875,0.124114990234375,-0.2244110107421875,12285.82054054167,1.280945320619353,1.385439114857155,-0.1494628111569155,0.032728161662817,0.002341566607356071,-0.01526060048490763,-0.07147258520126343,-0.01118656992912292,-0.03838646411895752,2,-0.4266319675087989,0.476302109901949,0.4203256638812458,0.6437761315198621,0.9719125628471375,0.1489069610834122,-0.1822429299354553,49.22072601318359,40.16513061523438,8.376739501953125,2,12285.50987154167,4,2,1580908569.751038,1580903939.50652,2875,0.4912658,0.8527173,1.363914,3428.459,14,15,1580908565.652,12282.549151,0,17.85944,96.99583
1580908570.043121,151,0,1580907286.99823,41.20781296037784,29.0754925099451,275.2123,0.1345286,-1,23.46983528137207,200,-9999,12285.84062054167,1.016586303710938,0.13836669921875,-0.1875457763671875,12285.83058054167,1.280646101564573,1.386129267436519,-0.1500473314710245,0.01640724390745163,0.08106034994125366,-0.06162809953093529,-0.03583741188049316,-0.02488917112350464,-0.04679638147354126,2,-0.4268770599080789,0.4764429693150278,0.4199228000566221,0.6437725464777662,0.9719526171684265,0.1494849324226379,-0.1815561503171921,49.22072601318359,40.16513061523438,8.376739501953125,2,12285.50987154167,4,2,1580908569.751038,1580903939.50652,2875,0.4912658,0.8527173,1.363914,3428.459,14,15,1580908565.652,12282.549151,0,17.85944,96.99583
1580908570.053063,152,0,1580907286.99823,41.20781296037784,29.0754925099451,275.2123,0.1345286,-1,23.46983528137207,200,-9999,12285.85066154167,1.031509399414062,0.1488494873046875,-0.1666107177734375,12285.84062054167,1.280261464633063,1.38660843682243,-0.1510968689607066,0.01940560899674892,0.05538623780012131,-0.109490342438221,0.03704595565795898,-0.0152951180934906,-0.01445561647415161,2,-0.4271937158675468,0.4764186698559452,0.4194103751609364,0.6439145056983226,0.9718847274780273,0.1505225896835327,-0.1810615658760071,49.20450592041016,40.30572509765625,8.338043212890625,2,12285.50987154167,4,2,1580908569.751038,1580903939.50652,2875,0.4912658,0.8527173,1.363914,3428.459,14,15,1580908565.652,12282.549151,0,17.85944,96.99583
1580908570.06298,153,0,1580907286.99823,41.20781296037784,29.0754925099451,275.2123,0.1345286,-1,23.46983528137207,200,-9999,12285.86070154167,1.049713134765625,0.1521148681640625,-0.177642822265625,12285.85066154167,1.27977420942443,1.386774818195142,-0.1525343066976864,0.01915900036692619,0.02698042616248131,-0.1488713026046753,0.05642580986022949,-0.003430813550949097,0.01219761371612549,2,-0.4275338655239599,0.4762192403439967,0.4188254841997306,0.6442168110207465,0.9717010259628296,0.1519435048103333,-0.1808600574731827,49.20450592041016,40.30572509765625,8.338043212890625,2,12285.50987154167,4,2,1580908569.751038,1580903939.50652,2875,0.4912658,0.8527173,1.363914,3428.459,14,15,1580908565.652,12282.549151,0,17.85944,96.99583
1580908570.088615,154,0,1580907286.99823,41.20781296037784,29.0754925099451,275.2123,0.1345286,-1,23.46983528137207,200,-9999,12285.87074154167,1.051467895507812,0.170166015625,-0.147186279296875,12285.86070154167,1.279050064336061,1.386423689404825,-0.1543284449770451,0.03782651573419571,-0.01821244321763515,-0.1914947479963303,0.07055389881134033,-0.003684431314468384,-0.0001295208930969238,2,-0.4278136987682515,0.47581503341142,0.4181770800781945,0.6447507930088244,0.9713680148124695,0.1537165641784668,-0.1811509877443314,49.11559295654297,40.51087951660156,8.2706298828125,2,12285.50987154167,4,2,1580908569.751038,1580903939.50652,2875,0.4912658,0.8527173,1.363914,3428.459,14,15,1580908565.652,12282.549151,0,17.85944,96.99583
1580908570.089912,155,0,1580907286.99823,41.20781296037784,29.0754925099451,275.2123,0.1345286,-1,23.46983528137207,200,-9999,12285.88078254167,1.007843017578125,0.1817169189453125,-0.12420654296875,12285.87074154167,1.278032380089912,1.385447470721988,-0.1562984590618993,0.05883006751537323,-0.09051167964935303,-0.2102260887622833,0.08253771066665649,0.01250496506690979,0.02835369110107422,2,-0.4279450097155924,0.4752279134641787,0.4175191081682871,0.6455225764796477,0.9708911180496216,0.15566286444664,-0.1820430010557175,49.11559295654297,40.51087951660156,8.2706298828125,2,12285.50987154167,4,2,1580908569.751038,1580903939.50652,2875,0.4912658,0.8527173,1.363914,3428.459,14,15,1580908565.652,12282.549151,0,17.85944,96.99583
1580908570.093703,156,0,1580907286.99823,41.20781296037784,29.0754925099451,275.2123,0.1345286,-1,23.46983528137207,200,-9999,12285.89085254167,1.08172607421875,0.162750244140625,-0.17431640625,12285.88078254167,1.276564170908759,1.384340743891527,-0.1584641326559646,0.1150413975119591,-0.08402363210916519,-0.2330349981784821,0.03305685520172119,0.02296203374862671,0.05578160285949707,2,-0.4280002909155096,0.4746456825253219,0.4166893012035449,0.6464497062789651,0.9703553915023804,0.1578017622232437,-0.1830544471740723,48.84189605712891,40.78202819824219,8.012939453125,2,12285.50987154167,4,2,1580908569.751038,1580903939.50652,2875,0.4912658,0.8527173,1.363914,3428.459,14,15,1580908565.652,12282.549151,0,17.85944,96.99583
1580908570.103218,157,0,1580907286.99823,41.20781296037784,29.0754925099451,275.2123,0.1345286,-1,23.46983528137207,200,-9999,12285.90089354167,1.18115234375,0.1386260986328125,-0.273681640625,12285.89085254167,1.275005759316775,1.38291561792234,-0.1613019934138994,0.1115092486143112,-0.1212463676929474,-0.2974549829959869,0.09980499744415283,0.003304481506347656,0.01367330551147461,2,-0.4281661477362985,0.4738115247465505,0.4157133719458803,0.6475792292376328,0.9696497917175293,0.1606034338474274,-0.1843527853488922,48.84189605712891,40.78202819824219,8.012939453125,2,12285.50987154167,4,2,1580908569.751038,1580903939.50652,2875,0.4912658,0.8527173,1.363914,3428.459,14,15,1580908565.652,12283.49305,0,17.83566,96.99609
1580908570.113351,158,0,1580907286.99823,41.20781296037784,29.0754925099451,275.2123,0.1345286,-1,23.46983528137207,200,-9999,12285.91093354167,1.33990478515625,0.1248931884765625,-0.31591796875,12285.90089354167,1.273906989184759,1.382019448180557,-0.1663611821617255,-0.01383266411721706,-0.05740906298160553,-0.5261885523796082,0.1921391487121582,-0.02279263734817505,-0.07679635286331177,2,-0.4292029713769392,0.472494858522983,0.4141627001028538,0.6488472860227058,0.9686737656593323,0.1655948758125305,-0.1850668340921402,48.73578643798828,40.82843780517578,8.012939453125,2,12285.50987154167,4,2,1580908569.751038,1580903939.50652,2875,0.4912658,0.8527173,1.363914,3428.459,14,15,1580908565.652,12283.49305,0,17.83566,96.99609
1580908570.123289,159,0,1580907286.99823,41.20781296037784,29.0754925099451,275.2123,0.1345286,-1,23.46983528137207,200,-9999,12285.92097354167,1.19488525390625,0.16998291015625,-0.1943206787109375,12285.91093354167,1.272864946461352,1.381136655507199,-0.1736868427299664,-0.03427029401063919,-0.07329268753528595,-0.7331897020339966,0.3665293455123901,-0.05188938975334167,-0.1434641480445862,2,-0.4309189239607088,0.470600444732569,0.4120017984001332,0.6504603476218868,0.9672926068305969,0.1728148907423019,-0.1856881976127625,48.73578643798828,40.82843780517578,8.012939453125,2,12285.50987154167,4,2,1580908569.751038,1580903939.50652,2875,0.4912658,0.8527173,1.363914,3428.459,14,15,1580908565.652,12283.49305,0,17.83566,96.99609
1580908570.154222,160,0,1580907286.99823,41.20781296037784,29.0754925099451,275.2123,0.1345286,-1,23.46983528137207,200,-9999,12285.93101354167,1.2178955078125,0.1686248779296875,-0.27252197265625,12285.92097354167,1.271845292836189,1.380606630377244,-0.1826690434223906,-0.06856949627399445,-0.03714780509471893,-0.8915899395942688,0.2422816753387451,-0.01495453715324402,-0.01544386148452759,2,-0.4331935813525882,0.4683944386115809,0.409309633343299,0.6522390801041258,0.9656309485435486,0.1816548556089401,-0.185899943113327,47.85639190673828,40.97666168212891,7.959014892578125,2,12285.50987154167,4,2,1580908569.751038,1580903939.50652,2875,0.4912658,0.8527173,1.363914,3428.459,14,15,1580908565.652,12283.49305,0,17.83566,96.99609
1580908570.155644,161,0,1580907286.99823,41.20781296037784,29.0754925099451,275.2123,0.1345286,-1,23.46983528137207,200,-9999,12285.94105454167,1.383651733398438,0.1160888671875,-0.341888427734375,12285.93101354167,1.270802440681071,1.380875179094271,-0.1936220266409743,-0.1055669263005257,0.05534670874476433,-1.090519785881042,0.2340730428695679,-0.02158749103546143,-0.07799738645553589,2,-0.4361929577328045,0.465949337321632,0.4058812051630631,0.6541309767985244,0.9636688232421875,0.1924144923686981,-0.185253843665123,47.85639190673828,40.97666168212891,7.959014892578125,2,12285.50987154167,4,2,1580908569.751038,1580903939.50652,2875,0.4912658,0.8527173,1.363914,3428.459,14,15,1580908565.652,12283.49305,0,17.83566,96.99609
