loggingTime,loggingSample,identifierForVendor,locationTimestamp_since1970,locationLatitude,locationLongitude,locationAltitude,locationSpeed,locationCourse,locationVerticalAccuracy,locationHorizontalAccuracy,locationFloor,accelerometerTimestamp_sinceReboot,accelerometerAccelerationX,accelerometerAccelerationY,accelerometerAccelerationZ,motionTimestamp_sinceReboot,motionYaw,motionRoll,motionPitch,motionRotationRateX,motionRotationRateY,motionRotationRateZ,motionUserAccelerationX,motionUserAccelerationY,motionUserAccelerationZ,motionAttitudeReferenceFrame,motionQuaternionX,motionQuaternionY,motionQuaternionZ,motionQuaternionW,motionGravityX,motionGravityY,motionGravityZ,motionMagneticFieldX,motionMagneticFieldY,motionMagneticFieldZ,motionMagneticFieldCalibrationAccuracy,activityTimestamp_sinceReboot,activity,activityActivityConfidence,activityActivityStartDate,pedometerStartDate,pedometerNumberofSteps,pedometerAverageActivePace,pedometerCurrentPace,pedometerCurrentCadence,pedometerDistance,pedometerFloorAscended,pedometerFloorDescended,pedometerEndDate,altimeterTimestamp_sinceReboot,altimeterReset,altimeterRelativeAltitude,altimeterPressure
1580906986.54377,1,0,1580906985.99806,41.2096042743803,29.07526655541732,157.0444,-1,-1,15.05303478240967,48.00724964208526,-9999,10702.32417329167,0.9641876220703125,0.0834503173828125,-0.14251708984375,10702.31913729167,1.34730853748814,1.430415901537014,-0.09281024265505704,0.001682158559560776,0.001833155751228333,-0.002485305070877075,-0.007927298545837402,-0.00335344672203064,0.00924992561340332,2,0.4360327552035894,-0.4901189978995912,-0.4466949385729197,-0.6083767841401376,0.9859012961387634,0.09267705678939819,-0.1393176019191742,46.66002655029297,-11.36562156677246,0.538055419921875,2,10701.64990825,2,0,1580906985.891075,1580903939.50652,2106,0.4568741,0,0,2639.329,9,7,1580906940.646764,10699.500528,0,23.05688,96.93557
1580906986.545011,2,0,1580906985.99806,41.2096042743803,29.07526655541732,157.0444,-1,-1,15.05303478240967,48.00724964208526,-9999,10702.33421329167,0.96502685546875,0.08612060546875,-0.140594482421875,10702.32917829167,1.347354380917795,1.430460144965333,-0.09284618702547291,-0.004013278055936098,0.0008222199976444244,-0.003937526606023312,-0.02109849452972412,-0.009660691022872925,-0.001704216003417969,2,0.4360641295444447,-0.4901135736926996,-0.4466896390665331,-0.6083625363747014,0.9859041571617126,0.09271284937858582,-0.1392735242843628,46.73989105224609,-11.24201011657715,0.449554443359375,2,10701.64990825,2,0,1580906985.891075,1580903939.50652,2106,0.4568741,0,0,2639.329,9,7,1580906940.646764,10699.500528,0,23.05688,96.93557
1580906986.560704,3,0,1580906985.99806,41.2096042743803,29.07526655541732,157.0444,-1,-1,15.05303478240967,48.00724964208526,-9999,10702.34428429167,0.9653778076171875,0.0874786376953125,-0.1409759521484375,10702.33921829167,1.347373836250316,1.430601598773933,-0.09287622572756447,-0.001656639389693737,0.01660065725445747,-0.004000767134130001,-0.02384668588638306,-0.007295101881027222,-0.003843307495117188,2,0.436109058826051,-0.4901449326049234,-0.4466566938075445,-0.6083292444678254,0.9859210252761841,0.09274275600910187,-0.1391336619853973,46.73989105224609,-11.24201011657715,0.449554443359375,2,10701.64990825,2,0,1580906985.891075,1580903939.50652,2106,0.4568741,0,0,2639.329,9,7,1580906940.646764,10699.500528,0,23.05688,96.93557
1580906986.565038,4,0,1580906985.99806,41.2096042743803,29.07526655541732,157.0444,-1,-1,15.05303478240967,48.00724964208526,-9999,10702.35432429167,0.9703369140625,0.0882720947265625,-0.13604736328125,10702.34925829167,1.34741399410397,1.43066050185074,-0.09287484457543473,-0.003652145620435476,0.005195936188101768,0.0008776113390922546,-0.02406877279281616,-0.006088227033615112,-0.005167961120605469,2,0.4361316462632286,-0.4901544429786196,-0.4466564417686808,-0.6083056188851026,0.9859294295310974,0.09274138510227203,-0.1390756219625473,46.73882293701172,-11.46079063415527,0.639617919921875,2,10701.64990825,2,0,1580906985.891075,1580903939.50652,2106,0.4568741,0,0,2639.329,9,7,1580906940.646764,10699.500528,0,23.05688,96.93557
1580906986.574854,5,0,1580906985.99806,41.2096042743803,29.07526655541732,157.0444,-1,-1,15.05303478240967,48.00724964208526,-9999,10702.36436529167,0.97076416015625,0.087188720703125,-0.1378936767578125,10702.35929929167,1.347431505872211,1.430640705930958,-0.09286334096087186,-0.001984236296266317,-0.002569582313299179,0.001924746669828892,-0.01866531372070312,-0.004398256540298462,0.0005588531494140625,2,0.4361281900739942,-0.4901474768904508,-0.4466691842656856,-0.6083044945655417,0.9859278798103333,0.09272992610931396,-0.1390953063964844,46.73882293701172,-11.46079063415527,0.639617919921875,2,10701.64990825,2,0,1580906985.891075,1580903939.50652,2106,0.4568741,0,0,2639.329,9,7,1580906940.646764,10699.500528,0,23.05688,96.93557
1580906986.584956,6,0,1580906985.99806,41.2096042743803,29.07526655541732,157.0444,-1,-1,15.05303478240967,48.00724964208526,-9999,10702.37440529167,0.9693450927734375,0.087493896484375,-0.137451171875,10702.36933929167,1.347442452106348,1.430575385435889,-0.09284982923583374,0.0007857177406549454,-0.006716123782098293,0.001141244545578957,-0.01769614219665527,-0.005483418703079224,-0.0003988742828369141,2,0.436112446767254,-0.4901285510363729,-0.4466903542819914,-0.6083154376150901,0.9859199523925781,0.09271647781133652,-0.1391598731279373,46.77857208251953,-11.32789421081543,0.67578125,2,10701.64990825,2,0,1580906985.891075,1580903939.50652,2106,0.4568741,0,0,2639.329,9,7,1580906940.646764,10699.500528,0,23.05688,96.93557
1580906986.595012,7,0,1580906985.99806,41.2096042743803,29.07526655541732,157.0444,-1,-1,15.05303478240967,48.00724964208526,-9999,10702.38444529167,0.9694976806640625,0.087066650390625,-0.1379241943359375,10702.37941029167,1.347442899025615,1.430482262279688,-0.09282635472299477,0.0006857980042695999,-0.009855099022388458,0.002151977270841599,-0.01841771602630615,-0.005353182554244995,-0.0006116628646850586,2,0.4360850583037782,-0.4901059332917689,-0.4467170640444482,-0.6083336945999324,0.9859091639518738,0.09269310534000397,-0.1392519921064377,46.77857208251953,-11.32789421081543,0.67578125,2,10701.64990825,2,0,1580906985.891075,1580903939.50652,2106,0.4568741,0,0,2639.329,9,7,1580906940.646764,10699.500528,0,23.05688,96.93557
1580906986.605046,8,0,1580906985.99806,41.2096042743803,29.07526655541732,157.0444,-1,-1,15.05303478240967,48.00724964208526,-9999,10702.39448529167,0.9693756103515625,0.0865020751953125,-0.1402740478515625,10702.38945029167,1.347456437805645,1.430387481629257,-0.092810560980307,-0.0006252769380807877,-0.008937373757362366,0.001853968948125839,-0.01897060871124268,-0.005657851696014404,-0.0002892017364501953,2,0.4360627612575959,-0.4900780151871595,-0.4467460259059615,-0.6083507179371427,0.9858972430229187,0.09267737716436386,-0.1393456161022186,46.76468658447266,-11.16246604919434,0.472564697265625,2,10701.64990825,2,0,1580906985.891075,1580903939.50652,2106,0.4568741,0,0,2639.329,9,7,1580906940.646764,10699.500528,0,23.05688,96.93557
1580906986.621657,9,0,1580906985.99806,41.2096042743803,29.07526655541732,157.0444,-1,-1,15.05303478240967,48.00724964208526,-9999,10702.40452629167,0.970703125,0.0864105224609375,-0.1389923095703125,10702.39949029167,1.347450398770585,1.430306386890235,-0.09281784495406913,-0.0005611497908830643,-0.007669932208955288,-0.0008788146078586578,-0.01879072189331055,-0.006260216236114502,-0.00252842903137207,2,0.4360452149825563,-0.490052883501943,-0.4467599438775328,-0.6083734074691408,0.9858853816986084,0.09268462657928467,-0.1394254863262177,46.76468658447266,-11.16246604919434,0.472564697265625,2,10701.64990825,2,0,1580906985.891075,1580903939.50652,2106,0.4568741,0,0,2639.329,9,7,1580906940.646764,10699.500528,0,23.05688,96.93557
1580906986.625107,10,0,1580906985.99806,41.2096042743803,29.07526655541732,157.0444,-1,-1,15.05303478240967,48.00724964208526,-9999,10702.41456629167,0.9710845947265625,0.086639404296875,-0.137939453125,10702.40953129167,1.347435605648844,1.430194421995974,-0.09283181201357596,0.002293492667376995,-0.0119677409529686,-0.00165752274915576,-0.01828551292419434,-0.006747186183929443,-0.002265453338623047,2,0.436020583319955,-0.4900185838472156,-0.4467761140042717,-0.608406751454691,0.9858683943748474,0.09269853681325912,-0.1395356804132462,46.63846588134766,-11.30671882629395,0.5601806640625,2,10701.64990825,2,0,1580906985.891075,1580903939.50652,2106,0.4568741,0,0,2639.329,9,7,1580906940.646764,10699.500528,0,23.05688,96.93557
1580906986.635203,11,0,1580906985.99806,41.2096042743803,29.07526655541732,157.0444,-1,-1,15.05303478240967,48.00724964208526,-9999,10702.42460629167,0.9689483642578125,0.0853271484375,-0.1396026611328125,10702.41957129167,1.347434501741743,1.430084954908756,-0.09284783395575547,0.0008819224312901497,-0.01013421267271042,-0.001004723366349936,-0.01677322387695312,-0.006381630897521973,-0.0002193450927734375,2,0.4360003975791885,-0.4899815837973002,-0.4467953861395886,-0.6084369575406791,0.9858517646789551,0.09271448850631714,-0.1396434009075165,46.67200469970703,-11.1019229888916,0.55072021484375,2,10701.64990825,2,0,1580906985.891075,1580903939.50652,2106,0.4568741,0,0,2639.329,9,7,1580906940.646764,10699.500528,0,23.05688,96.93557
1580906986.645365,12,0,1580906985.99806,41.2096042743803,29.07526655541732,157.0444,-1,-1,15.05303478240967,48.00724964208526,-9999,10702.43467729167,0.9685211181640625,0.08636474609375,-0.13983154296875,10702.42961129167,1.347415882610265,1.429992975603358,-0.0928763761554814,0.002109906636178493,-0.007288625463843346,-0.003313151653856039,-0.0191534161567688,-0.007218897342681885,-0.001563072204589844,2,0.4359834053374624,-0.4899506210228733,-0.4468021712954994,-0.6084691575874211,0.9858363270759583,0.09274290502071381,-0.1397337168455124,46.67200469970703,-11.1019229888916,0.55072021484375,2,10701.64990825,2,0,1580906985.891075,1580903939.50652,2106,0.4568741,0,0,2639.329,9,7,1580906940.646764,10699.500528,0,23.05688,96.93557
1580906986.65521,13,0,1580906985.99806,41.2096042743803,29.07526655541732,157.0444,-1,-1,15.05303478240967,48.00724964208526,-9999,10702.44471729167,0.9669189453125,0.087127685546875,-0.140625,10702.43965129167,1.347414025886809,1.429915960389244,-0.09291213264155943,8.722767233848572e-06,-0.008562358096241951,-0.004744680132716894,-0.01930731534957886,-0.007346153259277344,-0.002052187919616699,2,0.435975968399229,-0.4899187401476685,-0.4468088389757799,-0.6084951876564503,0.9858222007751465,0.09277851134538651,-0.1398091614246368,46.54347991943359,-11.23634910583496,0.39483642578125,2,10701.64990825,2,0,1580906985.891075,1580903939.50652,2106,0.4568741,0,0,2639.329,9,7,1580906940.646764,10699.500528,0,23.05688,96.93557
1580906986.665179,14,0,1580906985.99806,41.2096042743803,29.07526655541732,157.0444,-1,-1,15.05303478240967,48.00724964208526,-9999,10702.45475829167,0.966033935546875,0.0854644775390625,-0.1408233642578125,10702.44969229167,1.347420550150188,1.429880714072243,-0.09293126595205947,-0.001669334247708321,-0.004219274967908859,-0.001583507750183344,-0.02075010538101196,-0.005503684282302856,-0.002475440502166748,2,0.4359751811583535,-0.4899018439860714,-0.4468133826839445,-0.6085059245808025,0.9858154654502869,0.09279756247997284,-0.1398436427116394,46.54347991943359,-11.23634910583496,0.39483642578125,2,10701.64990825,2,0,1580906985.891075,1580903939.50652,2106,0.4568741,0,0,2639.329,9,7,1580906940.646764,10699.500528,0,23.05688,96.93557
1580906986.6806,15,0,1580906985.99806,41.2096042743803,29.07526655541732,157.0444,-1,-1,15.05303478240967,48.00724964208526,-9999,10702.46479829167,0.9659881591796875,0.0870361328125,-0.1404571533203125,10702.45973229167,1.347435049733556,1.429874714416017,-0.09295239949650251,-0.000492217019200325,-0.0005739405751228333,-0.002399766817688942,-0.02207481861114502,-0.007249027490615845,-0.003232479095458984,2,0.4359833736794161,-0.4898916646486609,-0.4468134920730559,-0.608508312959106,0.985812783241272,0.09281860291957855,-0.1398493051528931,46.75211334228516,-11.06026649475098,0.59893798828125,2,10701.64990825,2,0,1580906985.891075,1580903939.50652,2106,0.4568741,0,0,2639.329,9,7,1580906940.646764,10699.500528,0,23.05688,96.93557
1580906986.685356,16,0,1580906985.99806,41.2096042743803,29.07526655541732,157.0444,-1,-1,15.05303478240967,48.00724964208526,-9999,10702.47483829167,0.96820068359375,0.0872802734375,-0.1387481689453125,10702.46980329167,1.347445464356771,1.429890353902846,-0.09295782504189454,-0.001153580844402313,0.001981105655431747,-0.0001528766006231308,-0.02265644073486328,-0.006735622882843018,-0.002958357334136963,2,0.4359910139862166,-0.4898927799063839,-0.4468117742804228,-0.6085030574582593,0.9858143329620361,0.09282400459051132,-0.1398337930440903,46.75211334228516,-11.06026649475098,0.59893798828125,2,10701.64990825,2,0,1580906985.891075,1580903939.50652,2106,0.4568741,0,0,2639.329,9,7,1580906940.646764,10699.500528,0,23.05688,96.93557
1580906986.695675,17,0,1580906985.99806,41.2096042743803,29.07526655541732,157.0444,-1,-1,15.05303478240967,48.00724964208526,-9999,10702.48487829167,0.9691925048828125,0.086822509765625,-0.1386566162109375,10702.47984329167,1.347478588845905,1.429882901233452,-0.09294284035778579,-0.002750665880739689,-0.0009975116699934006,0.002602274529635906,-0.02074939012527466,-0.005560994148254395,-0.001531720161437988,2,0.435993194340367,-0.4898869918430933,-0.4468274717338913,-0.6084946101978441,0.9858146905899048,0.09280908852815628,-0.1398413330316544,46.69329071044922,-11.37063789367676,0.593231201171875,2,10701.64990825,2,0,1580906985.891075,1580903939.50652,2106,0.4568741,0,0,2639.329,9,7,1580906940.646764,10699.500528,0,23.05688,96.93557
1580906986.70542,18,0,1580906985.99806,41.2096042743803,29.07526655541732,157.0444,-1,-1,15.05303478240967,48.00724964208526,-9999,10702.49491929167,0.97015380859375,0.086944580078125,-0.1382293701171875,10702.48988329167,1.347481956169987,1.42985600992802,-0.09293561603602618,-0.0003663375973701477,-0.002817515283823013,0.0002778675407171249,-0.01949501037597656,-0.006026804447174072,-0.001016557216644287,2,0.4359859090344023,-0.4898798894992624,-0.4468363116255136,-0.6084991825026851,0.985811710357666,0.09280189126729965,-0.1398679614067078,46.69329071044922,-11.37063789367676,0.593231201171875,2,10701.64990825,2,0,1580906985.891075,1580903939.50652,2106,0.4568741,0,0,2639.329,9,7,1580906940.646764,10699.500528,0,23.05688,96.93557
1580906986.715508,19,0,1580906985.99806,41.2096042743803,29.07526655541732,157.0444,-1,-1,15.05303478240967,48.00724964208526,-9999,10702.50495929167,0.968902587890625,0.087860107421875,-0.1389617919921875,10702.49992429167,1.347495629888252,1.429823355519036,-0.09291661847016609,-0.0005876142531633377,-0.002127567306160927,0.002740572206676006,-0.01798152923583984,-0.006282508373260498,-0.00052642822265625,2,0.435976565270482,-0.4898716557334847,-0.4468526456671587,-0.6085004447517531,0.985808789730072,0.09278297424316406,-0.1399003863334656,46.78720855712891,-11.20113182067871,0.4195556640625,2,10701.64990825,2,0,1580906985.891075,1580903939.50652,2106,0.4568741,0,0,2639.329,9,7,1580906940.646764,10699.500528,0,23.05688,96.93557
1580906986.725977,20,0,1580906985.99806,41.2096042743803,29.07526655541732,157.0444,-1,-1,15.05303478240967,48.00724964208526,-9999,10702.51503029167,0.9685821533203125,0.0860137939453125,-0.138946533203125,10702.50996429167,1.347480700818247,1.429766796543539,-0.09291290426225575,0.001751439645886421,-0.00602803286164999,0.0004838090389966965,-0.01908791065216064,-0.005286991596221924,-0.0009130239486694336,2,0.4359591956709059,-0.4898586309038949,-0.4468614336159972,-0.6085169715019034,0.9858012795448303,0.09277927875518799,-0.1399562060832977,46.78720855712891,-11.20113182067871,0.4195556640625,2,10701.64990825,2,0,1580906985.891075,1580903939.50652,2106,0.4568741,0,0,2639.329,9,7,1580906940.646764,10699.500528,0,23.05688,96.93557
1580906986.740819,21,0,1580906985.99806,41.2096042743803,29.07526655541732,157.0444,-1,-1,15.05303478240967,48.00724964208526,-9999,10702.52507029167,0.9691162109375,0.087310791015625,-0.1376953125,10702.52000429167,1.347463244752728,1.429689817767046,-0.09291032243774694,0.003099864348769188,-0.007691566832363605,0.0005512367933988571,-0.01951992511749268,-0.006474584341049194,-0.001004815101623535,2,0.4359369910106993,-0.4898396477020782,-0.4468735863009966,-0.6085392145659807,0.9857907295227051,0.09277670830488205,-0.1400321125984192,46.69911956787109,-11.29187965393066,0.442474365234375,2,10701.64990825,2,0,1580906985.891075,1580903939.50652,2106,0.4568741,0,0,2639.329,9,7,1580906940.646764,10699.500528,0,23.05688,96.93557
1580906986.745892,22,0,1580906985.99806,41.2096042743803,29.07526655541732,157.0444,-1,-1,15.05303478240967,48.00724964208526,-9999,10702.53511029167,0.9671783447265625,0.0873565673828125,-0.1392822265625,10702.53004429167,1.347438756358397,1.429609366180333,-0.0929187404617476,0.001704900525510311,-0.007630580104887486,-0.001111906953155994,-0.01946234703063965,-0.0062541663646698,8.153915405273438e-05,2,0.4359154157100161,-0.4898184267371279,-0.4468814266571062,-0.6085660031009321,0.9857786893844604,0.09278509020805359,-0.1401113122701645,46.69911956787109,-11.29187965393066,0.442474365234375,2,10701.64990825,2,0,1580906985.891075,1580903939.50652,2106,0.4568741,0,0,2639.329,9,7,1580906940.646764,10699.500528,0,23.05688,96.93557
1580906986.755658,23,0,1580906985.99806,41.2096042743803,29.07526655541732,157.0444,-1,-1,15.05303478240967,48.00724964208526,-9999,10702.54515129167,0.96795654296875,0.085906982421875,-0.1404876708984375,10702.54008529167,1.347414783388845,1.429566098934351,-0.09293318795910298,0.003061862662434578,-0.004608970135450363,-0.001383262220770121,-0.02027881145477295,-0.005536109209060669,-0.0007151365280151367,2,0.4359040215470784,-0.4898068990986575,-0.446879693736185,-0.6085846457318317,0.9857712388038635,0.09279947727918625,-0.1401537656784058,46.75904083251953,-11.05081748962402,0.4356689453125,2,10701.64990825,2,0,1580906985.891075,1580903939.50652,2106,0.4568741,0,0,2639.329,9,7,1580906940.646764,10699.500528,0,23.05688,96.93557
1580906986.765852,24,0,1580906985.99806,41.2096042743803,29.07526655541732,157.0444,-1,-1,15.05303478240967,48.00724964208526,-9999,10702.55519129167,0.9679718017578125,0.085693359375,-0.140777587890625,10702.55015629167,1.347384773975934,1.429562172050299,-0.09296130948511508,0.002119636163115501,-4.298053681850433e-05,-0.004025917034596205,-0.02064192295074463,-0.006693333387374878,-0.002176463603973389,2,0.4359037983016366,-0.4898053050543467,-0.4468639272711944,-0.6085977245108033,0.9857681393623352,0.09282747656106949,-0.1401572823524475,46.75904083251953,-11.05081748962402,0.4356689453125,2,10701.64990825,2,0,1580906985.891075,1580903939.50652,2106,0.4568741,0,0,2639.329,9,7,1580906940.646764,10699.500528,0,23.05688,96.93557
1580906986.775775,25,0,1580906985.99806,41.2096042743803,29.07526655541732,157.0444,-1,-1,15.05303478240967,48.00724964208526,-9999,10702.56523129167,0.9675750732421875,0.087249755859375,-0.140533447265625,10702.56019629167,1.347379376898682,1.429578887586128,-0.09297299006232088,0.0009690029546618462,0.000838128849864006,-0.001430204603821039,-0.02029228210449219,-0.007849425077438354,-0.003276526927947998,2,0.4359095227164082,-0.4898086939429538,-0.4468555383572221,-0.6085971202834853,0.985769510269165,0.09283910691738129,-0.1401406675577164,46.77407073974609,-11.34445762634277,0.5032958984375,2,10701.64990825,2,0,1580906985.891075,1580903939.50652,2106,0.4568741,0,0,2639.329,9,7,1580906940.646764,10699.500528,0,23.05688,96.93557
1580906986.78571,26,0,1580906985.99806,41.2096042743803,29.07526655541732,157.0444,-1,-1,15.05303478240967,48.00724964208526,-9999,10702.57527129167,0.9672393798828125,0.087982177734375,-0.1392669677734375,10702.57023629167,1.347382346573462,1.429623548333372,-0.09298173996729535,-0.00141559075564146,0.004727941006422043,-0.001269616186618805,-0.02000796794891357,-0.006179720163345337,-0.002069771289825439,2,0.4359227458145402,-0.4898194595151148,-0.4468443602674895,-0.6085871275176086,0.9857748746871948,0.09284781664609909,-0.140096515417099,46.77407073974609,-11.34445762634277,0.5032958984375,2,10701.64990825,2,0,1580906985.891075,1580903939.50652,2106,0.4568741,0,0,2639.329,9,7,1580906940.646764,10699.500528,0,23.05688,96.93557
1580906986.804178,27,0,1580906985.99806,41.2096042743803,29.07526655541732,157.0444,-1,-1,15.05303478240967,48.00724964208526,-9999,10702.58531229167,0.9676513671875,0.086944580078125,-0.1378021240234375,10702.58027629167,1.347391262055463,1.429629556565158,-0.09297839165691665,0.0009468579664826393,-0.0004945099353790283,0.0001805974170565605,-0.02158075571060181,-0.005093008279800415,-0.002457082271575928,2,0.4359253233661866,-0.4898201677683141,-0.4468466526970851,-0.6085830070155864,0.9857760071754456,0.09284448623657227,-0.1400906294584274,46.58225250244141,-11.14992332458496,0.44891357421875,2,10701.64990825,2,0,1580906985.891075,1580903939.50652,2106,0.4568741,0,0,2639.329,9,7,1580906940.646764,10699.500528,0,23.05688,96.93557
1580906986.8059,28,0,1580906985.99806,41.2096042743803,29.07526655541732,157.0444,-1,-1,15.05303478240967,48.00724964208526,-9999,10702.59538329167,0.9682769775390625,0.0874481201171875,-0.1385650634765625,10702.59031729167,1.347394092913832,1.429625775378433,-0.09295823201402847,-0.0005730083212256432,-3.956258296966553e-06,0.001113769598305225,-0.02031570672988892,-0.005820542573928833,0.0002934932708740234,2,0.435919382020488,-0.4898234096797769,-0.4468537407144768,-0.6085795660670515,0.9857774376869202,0.09282441437244415,-0.1400946378707886,46.58225250244141,-11.14992332458496,0.44891357421875,2,10701.64990825,2,0,1580906985.891075,1580903939.50652,2106,0.4568741,0,0,2639.329,9,7,1580906940.646764,10699.500528,0,23.05688,96.93557
1580906986.816024,29,0,1580906985.99806,41.2096042743803,29.07526655541732,157.0444,-1,-1,15.05303478240967,48.00724964208526,-9999,10702.60542329167,0.97021484375,0.0885772705078125,-0.1373291015625,10702.60035729167,1.347405055982661,1.429573181539994,-0.09291203175354336,-0.0003505395725369453,-0.005633528344333172,0.003770153038203716,-0.0201905369758606,-0.005911767482757568,-0.000813603401184082,2,0.4358971325900258,-0.4898164400944387,-0.4468808672887524,-0.6085812012250555,0.9857743382453918,0.09277840703725815,-0.1401470899581909,46.52071380615234,-11.15987205505371,0.60595703125,2,10701.64990825,2,0,1580906985.891075,1580903939.50652,2106,0.4568741,0,0,2639.329,9,7,1580906940.646764,10699.500528,0,23.05688,96.93557
1580906986.82587,30,0,1580906985.99806,41.2096042743803,29.07526655541732,157.0444,-1,-1,15.05303478240967,48.00724964208526,-9999,10702.61546329167,0.97161865234375,0.086944580078125,-0.13720703125,10702.61039729167,1.347399235215351,1.429460972154339,-0.09287268769593753,0.001711012795567513,-0.01164694596081972,0.002596497535705566,-0.01840835809707642,-0.004697561264038086,0.0004574060440063477,2,0.4358594402063301,-0.4897932701308965,-0.4469140276598423,-0.6086023988258071,0.9857621192932129,0.09273923188447952,-0.1402582079172134,46.52071380615234,-11.15987205505371,0.60595703125,2,10701.64990825,2,0,1580906985.891075,1580903939.50652,2106,0.4568741,0,0,2639.329,9,7,1580906940.646764,10699.500528,0,23.05688,96.93557
1580906986.836001,31,0,1580906985.99806,41.2096042743803,29.07526655541732,157.0444,-1,-1,15.05303478240967,48.00724964208526,-9999,10702.62550329167,0.969451904296875,0.0862579345703125,-0.14105224609375,10702.62043829167,1.347407774920672,1.429359606626324,-0.09284571566412926,0.0004223091527819633,-0.008925461210310459,0.002555751241743565,-0.01713025569915771,-0.005006372928619385,0.001534342765808105,2,0.4358312143594988,-0.4897672114753041,-0.446945892516261,-0.6086200909670091,0.9857502579689026,0.09271237999200821,-0.1403584629297256,46.57860565185547,-11.03569221496582,0.465423583984375,2,10701.64990825,2,0,1580906985.891075,1580903939.50652,2106,0.4568741,0,0,2639.329,9,7,1580906940.646764,10699.500528,0,23.05688,96.93557
1580906986.846072,32,0,1580906985.99806,41.2096042743803,29.07526655541732,157.0444,-1,-1,15.05303478240967,48.00724964208526,-9999,10702.63554429167,0.9686431884765625,0.087158203125,-0.140350341796875,10702.63050829167,1.347393374971163,1.429265441256944,-0.09282446057725353,0.001705153845250607,-0.01006502751260996,0.001899815164506435,-0.01757681369781494,-0.007106095552444458,-0.001408874988555908,2,0.435800541886649,-0.4897469731596009,-0.4469677224386457,-0.6086424218460759,0.9857391119003296,0.09269121289253235,-0.140451580286026,46.57860565185547,-11.03569221496582,0.465423583984375,2,10701.64990825,2,0,1580906985.891075,1580903939.50652,2106,0.4568741,0,0,2639.329,9,7,1580906940.646764,10699.500528,0,23.05688,96.93557
1580906986.867729,33,0,1580906985.99806,41.2096042743803,29.07526655541732,157.0444,-1,-1,15.05303478240967,48.00724964208526,-9999,10702.64558429167,0.9708709716796875,0.0874481201171875,-0.138092041015625,10702.64054929167,1.347400841571145,1.429149739389917,-0.09279335331589336,0.001045755110681057,-0.01142084319144487,0.004064432345330715,-0.0199284553527832,-0.005976438522338867,-0.002774238586425781,2,0.4357676477488953,-0.4897178178820003,-0.4470034944242338,-0.6086631227521886,0.9857257008552551,0.09266024082899094,-0.1405660361051559,46.58087921142578,-11.10004234313965,0.444488525390625,2,10701.64990825,2,0,1580906985.891075,1580903939.50652,2106,0.4568741,0,0,2639.329,9,7,1580906940.646764,10699.500528,0,23.05688,96.93557
1580906986.868779,34,0,1580906985.99806,41.2096042743803,29.07526655541732,157.0444,-1,-1,15.05303478240967,48.00724964208526,-9999,10702.65562429167,0.9692230224609375,0.086578369140625,-0.138824462890625,10702.65058929167,1.347402764298687,1.428984001344459,-0.09276261151167969,0.0007980819791555405,-0.0168696716427803,0.003992526791989803,-0.01783269643783569,-0.005579531192779541,-0.0001380443572998047,2,0.4357222970377078,-0.4896745619052615,-0.4470483905468449,-0.6086974276912107,0.9857051968574524,0.09262963384389877,-0.1407297998666763,46.58087921142578,-11.10004234313965,0.444488525390625,2,10701.64990825,2,0,1580906985.891075,1580903939.50652,2106,0.4568741,0,0,2639.329,9,7,1580906940.646764,10699.500528,0,23.05688,96.93557
1580906986.876112,35,0,1580906985.99806,41.2096042743803,29.07526655541732,157.0444,-1,-1,15.05303478240967,48.00724964208526,-9999,10702.66566529167,0.966064453125,0.0872344970703125,-0.140411376953125,10702.66062929167,1.347413280354145,1.428798928215553,-0.09273279494859907,0.001122187823057175,-0.01893548481166363,0.003411158919334412,-0.01794672012329102,-0.005839705467224121,0.0007928609848022461,2,0.4356749873519011,-0.4896233177793771,-0.4470998627938041,-0.6087347180725717,0.9856818914413452,0.09259994328022003,-0.1409126222133636,46.52237701416016,-11.01590538024902,0.352294921875,2,10701.64990825,2,0,1580906985.891075,1580903939.50652,2106,0.4568741,0,0,2639.329,9,7,1580906940.646764,10699.500528,0,23.05688,96.93557
1580906986.886176,36,0,1580906985.99806,41.2096042743803,29.07526655541732,157.0444,-1,-1,15.05303478240967,48.00724964208526,-9999,10702.67573529167,0.9653167724609375,0.085693359375,-0.141693115234375,10702.67066929167,1.347419346176519,1.428652365477812,-0.09270901112067312,0.0004697134718298912,-0.01456976495683193,0.003422610461711884,-0.02131557464599609,-0.00578540563583374,-0.001213550567626953,2,0.435636929100459,-0.4895832606176035,-0.4471399695870349,-0.6087646802014993,0.9856633543968201,0.09257626533508301,-0.1410573869943619,46.52237701416016,-11.01590538024902,0.352294921875,2,10701.64990825,2,0,1580906985.891075,1580903939.50652,2106,0.4568741,0,0,2639.329,9,7,1580906940.646764,10699.500528,0,23.05688,96.93557
1580906986.89657,37,0,1580906985.99806,41.2096042743803,29.07526655541732,157.0444,-1,-1,15.05303478240967,48.00724964208526,-9999,10702.68577629167,0.9644317626953125,0.0850067138671875,-0.1436004638671875,10702.68071029167,1.347436857743617,1.428607731070214,-0.09271349776580827,-5.705934017896652e-05,-0.003378363326191902,-0.0003372402861714363,-0.0226973295211792,-0.006293445825576782,-0.002100169658660889,2,0.4356324956296224,-0.4895647650484592,-0.447153839075813,-0.6087726055368475,0.98565673828125,0.09258072823286057,-0.1411013454198837,46.40412139892578,-11.21703147888184,0.32037353515625,2,10701.64990825,2,0,1580906985.891075,1580903939.50652,2106,0.4568741,0,0,2639.329,9,7,1580906940.646764,10699.500528,0,23.05688,96.93557
1580906986.906475,38,0,1580906985.99806,41.2096042743803,29.07526655541732,157.0444,-1,-1,15.05303478240967,48.00724964208526,-9999,10702.69581629167,0.9669647216796875,0.08624267578125,-0.1419677734375,10702.69075029167,1.347429913867416,1.428631266539229,-0.09274609620347309,0.00103350542485714,0.003115221858024597,-0.004115200601518154,-0.02358269691467285,-0.007928133010864258,-0.00462651252746582,2,0.4356453869604314,-0.4895653638752189,-0.4471378923539888,-0.6087745385494268,0.9856569766998291,0.09261319041252136,-0.1410776972770691,46.40412139892578,-11.21703147888184,0.32037353515625,2,10701.64990825,2,0,1580906985.891075,1580903939.50652,2106,0.4568741,0,0,2639.329,9,7,1580906940.646764,10699.500528,0,23.05688,96.93557
1580906986.930933,39,0,1580906985.99806,41.2096042743803,29.07526655541732,157.0444,-1,-1,15.05303478240967,48.00724964208526,-9999,10702.70585629167,0.9696044921875,0.0869293212890625,-0.139923095703125,10702.70079029167,1.347449890745782,1.428669418644242,-0.09278480329854928,-0.001862776931375265,0.005266705527901649,-0.003660479560494423,-0.02208924293518066,-0.007081776857376099,-0.00379490852355957,2,0.4356698445212546,-0.4895630596553109,-0.4471253479566354,-0.6087681337374518,0.9856588244438171,0.09265173226594925,-0.1410395950078964,46.72025299072266,-11.46336555480957,0.4364013671875,2,10701.64990825,2,0,1580906985.891075,1580903939.50652,2106,0.4568741,0,0,2639.329,9,7,1580906940.646764,10699.500528,0,23.05688,96.93557
1580906986.932239,40,0,1580906985.99806,41.2096042743803,29.07526655541732,157.0444,-1,-1,15.05303478240967,48.00724964208526,-9999,10702.71589629167,0.970916748046875,0.08782958984375,-0.1379241943359375,10702.71086129167,1.347455086375351,1.428647476325128,-0.09282676851808976,-0.002231358550488949,-0.001159235835075378,-0.003940377850085497,-0.01918303966522217,-0.006192862987518311,-0.001606941223144531,2,0.4356781777610546,-0.489544877814289,-0.4471205264303312,-0.6087803661324449,0.9856519103050232,0.0926935151219368,-0.1410606801509857,46.72025299072266,-11.46336555480957,0.4364013671875,2,10701.64990825,2,0,1580906985.891075,1580903939.50652,2106,0.4568741,0,0,2639.329,9,7,1580906940.646764,10699.500528,0,23.05688,96.93557
1580906986.936699,41,0,1580906985.99806,41.2096042743803,29.07526655541732,157.0444,-1,-1,15.05303478240967,48.00724964208526,-9999,10702.72593729167,0.970611572265625,0.087493896484375,-0.139617919921875,10702.72090129167,1.347453094595463,1.428582033462604,-0.09287772905114312,0.0003470601513981819,-0.006306800059974194,-0.004505064804106951,-0.01747536659240723,-0.005511283874511719,0.0002574920654296875,2,0.4356776468582151,-0.4895127602202214,-0.4471205624151772,-0.6088064195428686,0.985637903213501,0.09274425357580185,-0.1411244869232178,46.72364044189453,-11.34879112243652,0.527008056640625,2,10701.64990825,2,0,1580906985.891075,1580903939.50652,2106,0.4568741,0,0,2639.329,9,7,1580906940.646764,10699.500528,0,23.05688,96.93557
1580906986.947339,42,0,1580906985.99806,41.2096042743803,29.07526655541732,157.0444,-1,-1,15.05303478240967,48.00724964208526,-9999,10702.73597729167,0.96630859375,0.0866851806640625,-0.1424102783203125,10702.73094229167,1.347453834213945,1.42854882976594,-0.09292618490738289,-0.001696383580565453,-0.00366521067917347,-0.004332491662353277,-0.01674884557723999,-0.005422323942184448,0.0005340576171875,2,0.4356841986567744,-0.4894905314126943,-0.4471151231977321,-0.6088237102113206,0.9856288433074951,0.09279250353574753,-0.1411565989255905,46.72364044189453,-11.34879112243652,0.527008056640625,2,10701.64990825,2,0,1580906985.891075,1580903939.50652,2106,0.4568741,0,0,2639.329,9,7,1580906940.646764,10699.500528,0,23.05688,96.93557
1580906986.956667,43,0,1580906985.99806,41.2096042743803,29.07526655541732,157.0444,-1,-1,15.05303478240967,48.00724964208526,-9999,10702.74601729167,0.9665069580078125,0.08587646484375,-0.139892578125,10702.74098229167,1.347478481057615,1.428532313108574,-0.09295649833900495,-0.003018700517714024,-0.003702424466609955,-0.002566648181527853,-0.02046680450439453,-0.006169766187667847,-0.003264784812927246,2,0.4356952071688064,-0.4894726256927793,-0.4471181311048538,-0.608827968755414,0.9856237173080444,0.09282268583774567,-0.141172468662262,46.74234771728516,-11.05170249938965,0.528350830078125,2,10701.64990825,2,0,1580906985.891075,1580903939.50652,2106,0.4568741,0,0,2639.329,9,7,1580906940.646764,10699.500528,0,23.05688,96.93557
1580906986.966784,44,0,1580906985.99806,41.2096042743803,29.07526655541732,157.0444,-1,-1,15.05303478240967,48.00724964208526,-9999,10702.75605829167,0.9671783447265625,0.0889739990234375,-0.1403350830078125,10702.75102229167,1.347490502224558,1.428545242772334,-0.09296353827492504,-0.001099626533687115,0.003217533230781555,-0.0004550283774733543,-0.02164304256439209,-0.007290691137313843,-0.00120234489440918,2,0.4357030231899478,-0.4894722186272278,-0.447117112616151,-0.6088235291013548,0.9856249690055847,0.09282969683408737,-0.1411596387624741,46.74234771728516,-11.05170249938965,0.528350830078125,2,10701.64990825,2,0,1580906985.891075,1580903939.50652,2106,0.4568741,0,0,2639.329,9,7,1580906940.646764,10699.500528,0,23.05688,96.93557
1580906986.9918,45,0,1580906985.99806,41.2096042743803,29.07526655541732,157.0444,-1,-1,15.05303478240967,48.00724964208526,-9999,10702.76612829167,0.968658447265625,0.0888519287109375,-0.1397857666015625,10702.76106329167,1.347522540616449,1.428512463213159,-0.09293270349185136,-0.002789344172924757,-0.002987762913107872,0.003565866500139236,-0.02133607864379883,-0.005001634359359741,-0.001566231250762939,2,0.4356947185089484,-0.4894628982517319,-0.4471422380853196,-0.6088185621590002,0.9856232404708862,0.09279899299144745,-0.1411923617124557,46.74776458740234,-11.29317665100098,0.5081787109375,2,10701.64990825,2,0,1580906985.891075,1580903939.50652,2106,0.4568741,0,0,2639.329,9,7,1580906940.646764,10699.500528,0,23.05688,96.93557
1580906986.993332,46,0,1580906985.99806,41.2096042743803,29.07526655541732,157.0444,-1,-1,15.05303478240967,48.00724964208526,-9999,10702.77616929167,0.965179443359375,0.0870361328125,-0.14093017578125,10702.77110329167,1.347521556433289,1.428474785109366,-0.09288607544034477,0.0009310916066169739,-0.003171520307660103,0.004242842085659504,-0.0192597508430481,-0.003688603639602661,-0.0005975961685180664,2,0.4356727748324287,-0.4894631565586998,-0.4471625599265528,-0.6088190408143931,0.9856221079826355,0.09275256842374802,-0.1412301063537598,46.74776458740234,-11.29317665100098,0.5081787109375,2,10701.64990825,2,0,1580906985.891075,1580903939.50652,2106,0.4568741,0,0,2639.329,9,7,1580906940.646764,10699.500528,0,23.05688,96.93557
1580906986.997141,47,0,1580906985.99806,41.2096042743803,29.07526655541732,157.0444,-1,-1,15.05303478240967,48.00724964208526,-9999,10702.78620929167,0.9674224853515625,0.0873565673828125,-0.14031982421875,10702.78114329167,1.347541159498757,1.428427837079439,-0.09282129165781296,-0.0007749292999505997,-0.004730268381536007,0.00680613424628973,-0.02180707454681396,-0.005348145961761475,-0.001313090324401855,2,0.4356485718654048,-0.4894606266414052,-0.4471960330648359,-0.608813842525494,0.985621452331543,0.09268806129693985,-0.1412772387266159,46.56678009033203,-11.16938972473145,0.528656005859375,2,10701.64990825,2,0,1580906985.891075,1580903939.50652,2106,0.4568741,0,0,2639.329,9,7,1580906940.646764,10699.500528,0,23.05688,96.93557
1580906987.006893,48,0,1580906985.99806,41.2096042743803,29.07526655541732,157.0444,-1,-1,15.05303478240967,48.00724964208526,-9999,10702.79624929167,0.96832275390625,0.08795166015625,-0.14080810546875,10702.79121429167,1.347561769573683,1.428368459768588,-0.09274467310793266,0.0001764055341482162,-0.00541043933480978,0.007418537512421608,-0.02156162261962891,-0.005912542343139648,-0.001680731773376465,2,0.4356184732556724,-0.4894570101473023,-0.4472356627356823,-0.6088091588205948,0.9856200814247131,0.09261177480220795,-0.1413367688655853,46.57738494873047,-11.33975028991699,0.285186767578125,2,10701.64990825,2,0,1580906985.891075,1580903939.50652,2106,0.4568741,0,0,2639.329,9,7,1580906940.646764,10699.500528,0,23.05688,96.93557
1580906987.016888,49,0,1580906985.99806,41.2096042743803,29.07526655541732,157.0444,-1,-1,15.05303478240967,48.00724964208526,-9999,10702.80629029167,0.9695281982421875,0.0867462158203125,-0.140411376953125,10702.80125429167,1.347569372970842,1.428274011381181,-0.09265870930520358,0.0004510320723056793,-0.01017224323004484,0.008925719186663628,-0.01978600025177002,-0.004636555910110474,-0.001311659812927246,2,0.4355747033032958,-0.4894478459375005,-0.4472814444994973,-0.6088141164621834,0.9856144785881042,0.09252617508172989,-0.1414309740066528,46.57738494873047,-11.33975028991699,0.285186767578125,2,10701.64990825,2,0,1580906985.891075,1580903939.50652,2106,0.4568741,0,0,2639.329,9,7,1580906940.646764,10699.500528,0,23.05688,96.93557
1580906987.026969,50,0,1580906985.99806,41.2096042743803,29.07526655541732,157.0444,-1,-1,15.05303478240967,48.00724964208526,-9999,10702.81633029167,0.97088623046875,0.0854339599609375,-0.14093017578125,10702.81129429167,1.34758628669659,1.428144445281702,-0.09258615181528269,0.0007564965635538101,-0.01317655574530363,0.007235942408442497,-0.01888930797576904,-0.005586475133895874,-0.001152098178863525,2,0.4355291150949697,-0.489422691074895,-0.4473341708946321,-0.608828319176606,0.9856029152870178,0.09245393425226212,-0.1415596455335617,46.63124847412109,-11.37179374694824,0.489776611328125,2,10701.64990825,2,0,1580906985.891075,1580903939.50652,2106,0.4568741,0,0,2639.329,9,7,1580906940.646764,10699.500528,0,23.05688,96.93557
1580906987.056091,51,0,1580906985.99806,41.2096042743803,29.07526655541732,157.0444,-1,-1,15.05303478240967,48.00724964208526,-9999,10702.82637029167,0.9696807861328125,0.084869384765625,-0.142608642578125,10702.82133529167,1.347599669324232,1.428015076455942,-0.09253726511693661,-0.0003162296488881111,-0.01463772915303707,0.00453318003565073,-0.01774626970291138,-0.006727874279022217,-0.001298189163208008,2,0.4354894897407339,-0.48939249046519,-0.447379447975505,-0.6088476877814615,0.9855890870094299,0.09240525215864182,-0.1416877955198288,46.63124847412109,-11.37179374694824,0.489776611328125,2,10701.64990825,2,0,1580906985.891075,1580903939.50652,2106,0.4568741,0,0,2639.329,9,7,1580906940.646764,10699.500528,0,23.05688,96.93557
1580906987.057702,52,0,1580906985.99806,41.2096042743803,29.07526655541732,157.0444,-1,-1,15.05303478240967,48.00724964208526,-9999,10702.83641029167,0.9676971435546875,0.0849456787109375,-0.142608642578125,10702.83137529167,1.347615947563866,1.427956883789609,-0.09252705520829581,-5.071237683296204e-05,-0.004533428698778152,-0.0002730265259742737,-0.01747965812683105,-0.007831543684005737,-0.002400338649749756,2,0.4354775235518627,-0.4893737672109174,-0.4473998057173185,-0.6088563876954071,0.9855818152427673,0.09239508956670761,-0.1417452841997147,46.73232269287109,-11.25295066833496,0.372161865234375,2,10701.64990825,2,0,1580906985.891075,1580903939.50652,2106,0.4568741,0,0,2639.329,9,7,1580906940.646764,10699.500528,0,23.05688,96.93557
1580906987.058978,53,0,1580906985.99806,41.2096042743803,29.07526655541732,157.0444,-1,-1,15.05303478240967,48.00724964208526,-9999,10702.84648129167,0.971343994140625,0.08642578125,-0.138031005859375,10702.84141529167,1.347617670375222,1.427850490229036,-0.09252811443788397,0.0003001885488629341,-0.01108371187001467,-0.0008400222286581993,-0.02040946483612061,-0.007969975471496582,-0.003455042839050293,2,0.4354544841475362,-0.489340715530213,-0.4474231902537998,-0.6088821325860686,0.9855664968490601,0.09239614009857178,-0.1418501138687134,46.73232269287109,-11.25295066833496,0.372161865234375,2,10701.64990825,2,0,1580906985.891075,1580903939.50652,2106,0.4568741,0,0,2639.329,9,7,1580906940.646764,10699.500528,0,23.05688,96.93557
1580906987.06724,54,0,1580906985.99806,41.2096042743803,29.07526655541732,157.0444,-1,-1,15.05303478240967,48.00724964208526,-9999,10702.85652129167,0.96893310546875,0.0859375,-0.1408233642578125,10702.85145629167,1.34764185059273,1.427705467810683,-0.09251404269717965,0.000231478363275528,-0.0136528629809618,0.001184246502816677,-0.0169568657875061,-0.006262212991714478,0.001021862030029297,2,0.4354239666538684,-0.4892947609021502,-0.4474658575486655,-0.6089094427419309,0.9855471253395081,0.09238213300704956,-0.1419932097196579,46.75106048583984,-11.15619087219238,0.254058837890625,2,10701.64990825,2,0,1580906985.891075,1580903939.50652,2106,0.4568741,0,0,2639.329,9,7,1580906940.646764,10700.445688,0,23.05688,96.93557
1580906987.077245,55,0,1580906985.99806,41.2096042743803,29.07526655541732,157.0444,-1,-1,15.05303478240967,48.00724964208526,-9999,10702.86656229167,0.9666748046875,0.0861053466796875,-0.142333984375,10702.86149629167,1.347666672739896,1.427579710543364,-0.09249095958776464,-0.002543071284890175,-0.01287766080349684,0.002369162626564503,-0.0188789963722229,-0.006376504898071289,0.0001851320266723633,2,0.4353952602059804,-0.4892568123546606,-0.4475069738017828,-0.6089303964467322,0.9855315089225769,0.09235914796590805,-0.1421174705028534,46.75106048583984,-11.15619087219238,0.254058837890625,2,10701.64990825,2,0,1580906985.891075,1580903939.50652,2106,0.4568741,0,0,2639.329,9,7,1580906940.646764,10700.445688,0,23.05688,96.93557
1580906987.087294,56,0,1580906985.99806,41.2096042743803,29.07526655541732,157.0444,-1,-1,15.05303478240967,48.00724964208526,-9999,10702.87660229167,0.9665069580078125,0.0854949951171875,-0.1422576904296875,10702.87153629167,1.347714996535395,1.427489278952347,-0.09246783767635756,-0.004812350496649742,-0.009875212796032429,0.003000331111252308,-0.02010416984558105,-0.00667378306388855,-0.001907289028167725,2,0.4353802618590088,-0.4892244671080276,-0.4475475215828971,-0.6089372493958832,0.9855207204818726,0.09233612567186356,-0.1422068923711777,46.86379241943359,-11.35561943054199,0.456512451171875,2,10701.64990825,2,0,1580906985.891075,1580903939.50652,2106,0.4568741,0,0,2639.329,9,7,1580906940.646764,10700.445688,0,23.05688,96.93557
1580906987.118075,57,0,1580906985.99806,41.2096042743803,29.07526655541732,157.0444,-1,-1,15.05303478240967,48.00724964208526,-9999,10702.88664229167,0.9660186767578125,0.0849761962890625,-0.1442108154296875,10702.88160729167,1.347759367352231,1.427438728621081,-0.09243026641761651,-0.003732660319656134,-0.005285145714879036,0.004667972214519978,-0.02173304557800293,-0.006636321544647217,-0.002284049987792969,2,0.4353690756725389,-0.4892087113924807,-0.4475820427771482,-0.6089325244745475,0.9855169653892517,0.0922987088561058,-0.1422572135925293,46.86379241943359,-11.35561943054199,0.456512451171875,2,10701.64990825,2,0,1580906985.891075,1580903939.50652,2106,0.4568741,0,0,2639.329,9,7,1580906940.646764,10700.445688,0,23.05688,96.93557
1580906987.11947,58,0,1580906985.99806,41.2096042743803,29.07526655541732,157.0444,-1,-1,15.05303478240967,48.00724964208526,-9999,10702.896679875,0.9659271240234375,0.085540771484375,-0.1436004638671875,10702.89164729167,1.347827873406339,1.427475240065105,-0.09238744938288085,-0.00512602599337697,0.004176532849669456,0.004265834577381611,-0.02117741107940674,-0.007783800363540649,-0.0033721923828125,2,0.4353817590352812,-0.4892155196457581,-0.4476063684045076,-0.6089001557316169,0.9855260848999023,0.09225607663393021,-0.1422217935323715,46.58277130126953,-11.29720497131348,0.517059326171875,2,10701.64990825,2,0,1580906985.891075,1580903939.50652,2106,0.4568741,0,0,2639.329,9,7,1580906940.646764,10700.445688,0,23.05688,96.93557
1580906987.120422,59,0,1580906985.99806,41.2096042743803,29.07526655541732,157.0444,-1,-1,15.05303478240967,48.00724964208526,-9999,10702.906719875,0.970611572265625,0.0863494873046875,-0.14031982421875,10702.901684875,1.347870182366004,1.427515508070797,-0.09235501393546185,-0.003201265819370747,0.003843871876597404,0.0024746498093009,-0.022818922996521,-0.006927371025085449,-0.004464447498321533,2,0.4353918388704799,-0.4892266061933957,-0.4476191349931216,-0.6088747119070803,0.9855348467826843,0.09222377836704254,-0.1421825438737869,46.58277130126953,-11.29720497131348,0.517059326171875,2,10701.64990825,2,0,1580906985.891075,1580903939.50652,2106,0.4568741,0,0,2639.329,9,7,1580906940.646764,10700.445688,0,23.05688,96.93557
1580906987.127472,60,0,1580906985.99806,41.2096042743803,29.07526655541732,157.0444,-1,-1,15.05303478240967,48.00724964208526,-9999,10702.916759875,0.9721832275390625,0.0865631103515625,-0.139923095703125,10702.911724875,1.347918930698772,1.427526931362386,-0.09231868022962829,-0.005179195664823055,0.00159137137234211,0.004384402185678482,-0.01881074905395508,-0.006509661674499512,-0.001087784767150879,2,0.4353959647493094,-0.4892284476637757,-0.4476411547785446,-0.6088540304516278,0.9855397343635559,0.09218759834766388,-0.1421717554330826,46.57480621337891,-11.30227088928223,0.469512939453125,2,10701.64990825,2,0,1580906985.891075,1580903939.50652,2106,0.4568741,0,0,2639.329,9,7,1580906940.646764,10700.445688,0,23.05688,96.93557
1580906987.137681,61,0,1580906985.99806,41.2096042743803,29.07526655541732,157.0444,-1,-1,15.05303478240967,48.00724964208526,-9999,10702.926830875,0.9716796875,0.0874481201171875,-0.1381378173828125,10702.921764875,1.347945381552613,1.427473139825448,-0.09230375154302847,-0.003500023856759071,-0.005407785996794701,0.0009643863886594772,-0.01572215557098389,-0.005838662385940552,-1.20997428894043e-05,2,0.4353861341165469,-0.4892100059124432,-0.4476648924502975,-0.6088584179991603,0.9855334162712097,0.09217273443937302,-0.1422249674797058,46.57480621337891,-11.30227088928223,0.469512939453125,2,10701.64990825,2,0,1580906985.891075,1580903939.50652,2106,0.4568741,0,0,2639.329,9,7,1580906940.646764,10700.445688,0,23.05688,96.93557
1580906987.147507,62,0,1580906985.99806,41.2096042743803,29.07526655541732,157.0444,-1,-1,15.05303478240967,48.00724964208526,-9999,10702.936870875,0.96875,0.0870208740234375,-0.1406097412109375,10702.931804875,1.347965970942623,1.427383381636925,-0.09228337661045219,0.0003921864554286003,-0.008383868262171745,0.002504492178559303,-0.01630628108978271,-0.005238443613052368,0.001587390899658203,2,0.4353652670547502,-0.4891832353703599,-0.4476961225374224,-0.6088718641368169,0.9855225086212158,0.09215244650840759,-0.142313688993454,46.82054901123047,-11.38434791564941,0.490814208984375,2,10701.64990825,2,0,1580906985.891075,1580903939.50652,2106,0.4568741,0,0,2639.329,9,7,1580906940.646764,10700.445688,0,23.05688,96.93557
1580906987.17541,63,0,1580906986.998054,41.20960427437978,29.07526655540382,156.9241,-1,-1,15.07179069519043,48.00724964208526,-9999,10702.946911875,0.9615936279296875,0.086669921875,-0.1443939208984375,10702.941845875,1.347970868037201,1.427353759904262,-0.09225065961257999,0.000179697759449482,-0.003305545076727867,0.002082599326968193,-0.01767838001251221,-0.004748016595840454,0.0009456872940063477,2,0.4353504956760042,-0.4891812433316199,-0.4477127721541339,-0.6088717672318733,0.9855212569236755,0.09211987257003784,-0.1423433125019073,46.82054901123047,-11.38434791564941,0.490814208984375,2,10701.64990825,2,0,1580906985.891075,1580903939.50652,2106,0.4568741,0,0,2639.329,9,7,1580906940.646764,10700.445688,0,23.05688,96.93557
1580906987.1767,64,0,1580906986.998054,41.20960427437978,29.07526655540382,156.9241,-1,-1,15.07179069519043,48.00724964208526,-9999,10702.956951875,0.9617156982421875,0.087890625,-0.1453399658203125,10702.951885875,1.347989735379552,1.427438333495758,-0.09216548711727866,-5.865469574928284e-05,0.00709090381860733,0.008216392248868942,-0.02476304769515991,-0.006143063306808472,-0.003515958786010742,2,0.4353497006484129,-0.4892239687758597,-0.4477228024329429,-0.6088306842014631,0.9855411052703857,0.09203506261110306,-0.1422610878944397,46.70841217041016,-11.22738075256348,0.4560546875,2,10701.64990825,2,0,1580906985.891075,1580903939.50652,2106,0.4568741,0,0,2639.329,9,7,1580906940.646764,10700.445688,0,23.05688,96.93557
1580906987.177782,65,0,1580906986.998054,41.20960427437978,29.07526655540382,156.9241,-1,-1,15.07179069519043,48.00724964208526,-9999,10702.966991875,0.9656219482421875,0.08636474609375,-0.143646240234375,10702.961956875,1.347991607159103,1.427614807196238,-0.0920719687522356,0.0006720004603266716,0.01748029328882694,0.009368015453219414,-0.02719235420227051,-0.004310250282287598,-0.005275964736938477,2,0.4353629599189881,-0.4893004147611573,-0.447709864194663,-0.6087692695781608,0.9855747222900391,0.09194193780422211,-0.1420883983373642,46.70841217041016,-11.22738075256348,0.4560546875,2,10701.64990825,2,0,1580906985.891075,1580903939.50652,2106,0.4568741,0,0,2639.329,9,7,1580906940.646764,10700.445688,0,23.05688,96.93557
1580906987.187698,66,0,1580906986.998054,41.20960427437978,29.07526655540382,156.9241,-1,-1,15.07179069519043,48.00724964208526,-9999,10702.977031875,0.969818115234375,0.086090087890625,-0.1400299072265625,10702.971996875,1.348004727384608,1.427783752365718,-0.09198801312468011,0.0005934368818998337,0.01641023345291615,0.008871069177985191,-0.02386713027954102,-0.005370855331420898,-0.005106210708618164,2,0.4353800384100067,-0.4893697332469413,-0.4476994282006171,-0.6087089325824406,0.9856062531471252,0.09185833483934402,-0.1419229656457901,46.62044525146484,-11.3084888458252,0.414154052734375,2,10701.64990825,2,0,1580906985.891075,1580903939.50652,2106,0.4568741,0,0,2639.329,9,7,1580906940.646764,10700.445688,0,23.05688,96.93557
1580906987.197713,67,0,1580906986.998054,41.20960427437978,29.07526655540382,156.9241,-1,-1,15.07179069519043,48.00724964208526,-9999,10702.987072875,0.9707489013671875,0.085540771484375,-0.14093017578125,10702.982036875,1.348002366110447,1.427955657712773,-0.09189927834864814,0.002189116552472115,0.01830827444791794,0.008972516283392906,-0.01910841464996338,-0.005801081657409668,-0.0009717941284179688,2,0.4353925867177002,-0.4894445242254846,-0.4476849335856595,-0.6086505285429675,0.9856387376785278,0.0917699784040451,-0.1417547017335892,46.62044525146484,-11.3084888458252,0.414154052734375,2,10701.64990825,2,0,1580906985.891075,1580903939.50652,2106,0.4568741,0,0,2639.329,9,7,1580906940.646764,10700.445688,0,23.05688,96.93557
1580906987.207702,68,0,1580906986.998054,41.20960427437978,29.07526655540382,156.9241,-1,-1,15.07179069519043,48.00724964208526,-9999,10702.997112875,0.9700164794921875,0.0860137939453125,-0.1391754150390625,10702.992077875,1.348011896748834,1.428129973188121,-0.09181141388888875,0.001631983555853367,0.01779108867049217,0.007244391366839409,-0.01724910736083984,-0.006277889013290405,-0.00129544734954834,2,0.4354088170993852,-0.4895172477686708,-0.4476733114658179,-0.6085890744657878,0.9856715202331543,0.09168248623609543,-0.1415840536355972,46.63782501220703,-11.35033226013184,0.5018310546875,2,10701.64990825,2,0,1580906985.891075,1580903939.50652,2106,0.4568741,0,0,2639.329,9,7,1580906940.646764,10700.445688,0,23.05688,96.93557
1580906987.230287,69,0,1580906986.998054,41.20960427437978,29.07526655540382,156.9241,-1,-1,15.07179069519043,48.00724964208526,-9999,10703.007183875,0.9721527099609375,0.08563232421875,-0.1390380859375,10703.002117875,1.348007348723744,1.428281431982165,-0.0917256724350214,0.0005188342183828354,0.01500461436808109,0.007929500192403793,-0.01817864179611206,-0.00596347451210022,-0.0008336305618286133,2,0.4354171238523573,-0.4895855281044371,-0.4476617960768114,-0.6085366736344089,0.9857007265090942,0.09159710258245468,-0.1414358764886856,46.63782501220703,-11.35033226013184,0.5018310546875,2,10701.64990825,2,0,1580906985.891075,1580903939.50652,2106,0.4568741,0,0,2639.329,9,7,1580906940.646764,10700.445688,0,23.05688,96.93557
1580906987.231732,70,0,1580906986.998054,41.20960427437978,29.07526655540382,156.9241,-1,-1,15.07179069519043,48.00724964208526,-9999,10703.017223875,0.968292236328125,0.0825958251953125,-0.1435089111328125,10703.012157875,1.348003414819574,1.42846536909386,-0.09169124106959746,0.002302086912095547,0.01998578943312168,0.002504641190171242,-0.01655977964401245,-0.005578130483627319,0.0009227991104125977,2,0.4354475544732089,-0.4896508264483019,-0.4476296925841561,-0.6084858077745092,0.9857296943664551,0.09156281501054764,-0.1412549912929535,46.69438934326172,-11.36421775817871,0.44256591796875,2,10701.64990825,2,0,1580906985.891075,1580903939.50652,2106,0.4568741,0,0,2639.329,9,7,1580906940.646764,10700.445688,0,23.05688,96.93557
1580906987.237966,71,0,1580906986.998054,41.20960427437978,29.07526655540382,156.9241,-1,-1,15.07179069519043,48.00724964208526,-9999,10703.027263875,0.9706573486328125,0.0845947265625,-0.1404266357421875,10703.022197875,1.347997337385363,1.428678268463085,-0.09169718079346155,-0.000510592944920063,0.02232711389660835,-0.0006894846446812153,-0.01881718635559082,-0.008620560169219971,-0.004078865051269531,2,0.4354954057316235,-0.4897154540988971,-0.4475799075643782,-0.6084361846007352,0.9857591986656189,0.0915687307715416,-0.1410450488328934,46.69438934326172,-11.36421775817871,0.44256591796875,2,10701.64990825,2,0,1580906985.891075,1580903939.50652,2106,0.4568741,0,0,2639.329,9,7,1580906940.646764,10700.445688,0,23.05688,96.93557
1580906987.248256,72,0,1580906986.998054,41.20960427437978,29.07526655540382,156.9241,-1,-1,15.07179069519043,48.00724964208526,-9999,10703.037304875,0.968719482421875,0.0839080810546875,-0.1419525146484375,10703.032238875,1.347985372574464,1.428906575399014,-0.09173537870922346,0.001413540914654732,0.02305628731846809,-0.005220321007072926,-0.01860177516937256,-0.007727891206741333,-0.002565562725067139,2,0.4355544798501834,-0.4897780608985359,-0.4475163651780085,-0.6083902104039908,0.9857878684997559,0.09160676598548889,-0.1408194899559021,46.81189727783203,-11.28783988952637,0.470489501953125,2,10701.64990825,2,0,1580906985.891075,1580903939.50652,2106,0.4568741,0,0,2639.329,9,7,1580906940.646764,10700.445688,0,23.05688,96.93557
1580906987.258043,73,0,1580906986.998054,41.20960427437978,29.07526655540382,156.9241,-1,-1,15.07179069519043,48.00724964208526,-9999,10703.047344875,0.968780517578125,0.0847320556640625,-0.1402435302734375,10703.042309875,1.347947540453538,1.429174647696482,-0.09179432806091703,0.002771444618701935,0.02652797847986221,-0.007327287457883358,-0.01826798915863037,-0.007618933916091919,-0.002846419811248779,2,0.4356220164560275,-0.4898532711970199,-0.447430761667871,-0.6083442685868911,0.9858202338218689,0.09166546911001205,-0.1405544579029083,46.81189727783203,-11.28783988952637,0.470489501953125,2,10701.64990825,2,0,1580906985.891075,1580903939.50652,2106,0.4568741,0,0,2639.329,9,7,1580906940.646764,10700.445688,0,23.05688,96.93557
1580906987.268111,74,0,1580906986.998054,41.20960427437978,29.07526655540382,156.9241,-1,-1,15.07179069519043,48.00724964208526,-9999,10703.057384875,0.9714508056640625,0.0865325927734375,-0.137420654296875,10703.052349875,1.347919107938877,1.429399460356656,-0.09186240442874882,0.002475833520293236,0.02274202927947044,-0.008153400383889675,-0.02036857604980469,-0.007839411497116089,-0.003404974937438965,2,0.4356847089814981,-0.4899110563953606,-0.4473550335789482,-0.6083087176050349,0.9858458042144775,0.09173326194286346,-0.1403319835662842,46.94589996337891,-11.2953929901123,0.37109375,2,10701.64990825,2,0,1580906985.891075,1580903939.50652,2106,0.4568741,0,0,2639.329,9,7,1580906940.646764,10700.445688,0,23.05688,96.93557
1580906987.292644,75,0,1580906986.998054,41.20960427437978,29.07526655540382,156.9241,-1,-1,15.07179069519043,48.00724964208526,-9999,10703.067424875,0.9706573486328125,0.08685302734375,-0.1380615234375,10703.062389875,1.347842054262782,1.429526507071268,-0.09193637703301186,0.007475161924958229,0.01252268627285957,-0.009113329462707043,-0.01734328269958496,-0.005700856447219849,0.0001456737518310547,2,0.4357154147067375,-0.4899481621874259,-0.4472841631040356,-0.6083087824907757,0.9858567714691162,0.09180691838264465,-0.1402057558298111,46.94589996337891,-11.2953929901123,0.37109375,2,10701.64990825,2,0,1580906985.891075,1580903939.50652,2106,0.4568741,0,0,2639.329,9,7,1580906940.646764,10700.445688,0,23.05688,96.93557
1580906987.29393,76,0,1580906986.998054,41.20960427437978,29.07526655540382,156.9241,-1,-1,15.07179069519043,48.00724964208526,-9999,10703.077465875,0.96905517578125,0.08587646484375,-0.1391754150390625,10703.072429875,1.347784827764468,1.42963472659597,-0.09202207766841101,0.004931310191750526,0.01119323819875717,-0.01028618589043617,-0.01700001955032349,-0.005313366651535034,0.0004646182060241699,2,0.4357500498992588,-0.4899723631850765,-0.4472203286758522,-0.6083114168228564,0.9858641028404236,0.09189225733280182,-0.1400979608297348,46.68912506103516,-11.3253116607666,0.4146728515625,2,10701.64990825,2,0,1580906985.891075,1580903939.50652,2106,0.4568741,0,0,2639.329,9,7,1580906940.646764,10700.445688,0,23.05688,96.93557
1580906987.298319,77,0,1580906986.998054,41.20960427437978,29.07526655540382,156.9241,-1,-1,15.07179069519043,48.00724964208526,-9999,10703.087536875,0.969818115234375,0.0867156982421875,-0.138092041015625,10703.082470875,1.34769220072639,1.429735799971969,-0.09210573230380875,0.009427787736058235,0.0120724979788065,-0.01006922964006662,-0.01897501945495605,-0.006190270185470581,-0.001436829566955566,2,0.4357738020391601,-0.4900026266280148,-0.4471478391085777,-0.6083233859551773,0.9858707189559937,0.09197555482387543,-0.1399972438812256,46.68912506103516,-11.3253116607666,0.4146728515625,2,10701.64990825,2,0,1580906985.891075,1580903939.50652,2106,0.4568741,0,0,2639.329,9,7,1580906940.646764,10700.445688,0,23.05688,96.93557
1580906987.308685,78,0,1580906986.998054,41.20960427437978,29.07526655540382,156.9241,-1,-1,15.07179069519043,48.00724964208526,-9999,10703.097576875,0.96734619140625,0.0869293212890625,-0.13909912109375,10703.092510875,1.347624548105073,1.429783859075048,-0.09216477787718122,0.005997104570269585,0.005083831027150154,-0.006093663163483143,-0.01857972145080566,-0.00580674409866333,-0.0008139610290527344,2,0.4357848367060282,-0.4900173800143107,-0.4471010309000859,-0.6083379459625446,0.9858720302581787,0.09203435480594635,-0.1399490833282471,46.68747711181641,-11.1083812713623,0.537933349609375,2,10701.64990825,2,0,1580906985.891075,1580903939.50652,2106,0.4568741,0,0,2639.329,9,7,1580906940.646764,10700.445688,0,23.05688,96.93557
1580906987.318265,79,0,1580906986.998054,41.20960427437978,29.07526655540382,156.9241,-1,-1,15.07179069519043,48.00724964208526,-9999,10703.107616875,0.966796875,0.0856475830078125,-0.140350341796875,10703.102550875,1.347565469495144,1.429832536960186,-0.09220209753582394,0.004868303425610065,0.005101468414068222,-0.004899948835372925,-0.02033787965774536,-0.005340427160263062,-0.0007708072662353516,2,0.435791850415059,-0.490035863019916,-0.4470625255063936,-0.6083464560884488,0.9858755469322205,0.09207151085138321,-0.1399006247520447,46.68747711181641,-11.1083812713623,0.537933349609375,2,10701.64990825,2,0,1580906985.891075,1580903939.50652,2106,0.4568741,0,0,2639.329,9,7,1580906940.646764,10700.445688,0,23.05688,96.93557
1580906987.328579,80,0,1580906986.998054,41.20960427437978,29.07526655540382,156.9241,-1,-1,15.07179069519043,48.00724964208526,-9999,10703.117656875,0.9672698974609375,0.0862274169921875,-0.140350341796875,10703.112590875,1.347536024456232,1.429925538252259,-0.09223179824618624,0.002962544560432434,0.01026773452758789,-0.00443469500169158,-0.02146220207214355,-0.006163567304611206,-0.002404332160949707,2,0.4358139278066861,-0.4900632073409779,-0.4470253630370674,-0.6083358304891332,0.9858857989311218,0.092101089656353,-0.1398085504770279,46.86710357666016,-11.21071815490723,0.657012939453125,2,10701.64990825,2,0,1580906985.891075,1580903939.50652,2106,0.4568741,0,0,2639.329,9,7,1580906940.646764,10700.445688,0,23.05688,96.93557
1580906987.358667,81,0,1580906986.998054,41.20960427437978,29.07526655540382,156.9241,-1,-1,15.07179069519043,48.00724964208526,-9999,10703.127697875,0.9654388427734375,0.0867156982421875,-0.1415252685546875,10703.122661875,1.347503052156267,1.430071750327805,-0.0922454497218283,0.002438655123114586,0.01499876379966736,-0.002882810775190592,-0.02134394645690918,-0.006528139114379883,-0.003159224987030029,2,0.4358423886520892,-0.4901115127028659,-0.446979851032681,-0.6083100659791602,0.9859050512313843,0.09211467951536179,-0.1396642327308655,46.86710357666016,-11.21071815490723,0.657012939453125,2,10701.64990825,2,0,1580906985.891075,1580903939.50652,2106,0.4568741,0,0,2639.329,9,7,1580906940.646764,10700.445688,0,23.05688,96.93557
1580906987.359961,82,0,1580906986.998054,41.20960427437978,29.07526655540382,156.9241,-1,-1,15.07179069519043,48.00724964208526,-9999,10703.137737875,0.965179443359375,0.0872650146484375,-0.14019775390625,10703.132702875,1.347494491571134,1.430274732950114,-0.0922150835441666,0.001580584794282913,0.02049792557954788,0.002356159500777721,-0.02168035507202148,-0.005567044019699097,-0.003481566905975342,2,0.4358770043424027,-0.4901826080451333,-0.4469411041762058,-0.6082564029503632,0.9859361052513123,0.09208444505929947,-0.1394644975662231,46.80242156982422,-11.33389854431152,0.61651611328125,2,10701.64990825,2,0,1580906985.891075,1580903939.50652,2106,0.4568741,0,0,2639.329,9,7,1580906940.646764,10700.445688,0,23.05688,96.93557
1580906987.360956,83,0,1580906986.998054,41.20960427437978,29.07526655540382,156.9241,-1,-1,15.07179069519043,48.00724964208526,-9999,10703.147777875,0.970733642578125,0.08612060546875,-0.136871337890625,10703.142742875,1.347490892650071,1.43044990203966,-0.09215369877730889,0.0007673418149352074,0.01778735406696796,0.00615624338388443,-0.02418237924575806,-0.005078524351119995,-0.004081130027770996,2,0.4358977353312312,-0.4902518440321685,-0.4469182233616445,-0.6082026179172502,0.9859662055969238,0.09202332049608231,-0.1392925828695297,46.80242156982422,-11.33389854431152,0.61651611328125,2,10701.64990825,2,0,1580906985.891075,1580903939.50652,2106,0.4568741,0,0,2639.329,9,7,1580906940.646764,10700.445688,0,23.05688,96.93557
1580906987.368492,84,0,1580906986.998054,41.20960427437978,29.07526655540382,156.9241,-1,-1,15.07179069519043,48.00724964208526,-9999,10703.157818875,0.9723052978515625,0.0846405029296875,-0.138092041015625,10703.152782875,1.347501703558023,1.430575970447953,-0.09209361174707988,0.001153233461081982,0.01347303576767445,0.006270227022469044,-0.01921594142913818,-0.005583137273788452,-0.0002378225326538086,2,0.4359114301981662,-0.4903026597716296,-0.4469100583731302,-0.6081577964071163,0.9859891533851624,0.09196349233388901,-0.1391690522432327,46.88263702392578,-11.39059638977051,0.5091552734375,2,10701.64990825,2,0,1580906985.891075,1580903939.50652,2106,0.4568741,0,0,2639.329,9,7,1580906940.646764,10700.445688,0,23.05688,96.93557
1580906987.378773,85,0,1580906986.998054,41.20960427437978,29.07526655540382,156.9241,-1,-1,15.07179069519043,48.00724964208526,-9999,10703.167858875,0.969635009765625,0.084808349609375,-0.139556884765625,10703.162822875,1.34752293830795,1.430717333398854,-0.09206055960405275,-0.002450705971568823,0.01374667510390282,0.003512450493872166,-0.01608014106750488,-0.007198095321655273,-0.0004839897155761719,2,0.4359388035334589,-0.4903491756474655,-0.4468945184544077,-0.6081120676349355,0.986011803150177,0.0919305756688118,-0.1390300840139389,46.88263702392578,-11.39059638977051,0.5091552734375,2,10701.64990825,2,0,1580906985.891075,1580903939.50652,2106,0.4568741,0,0,2639.329,9,7,1580906940.646764,10700.445688,0,23.05688,96.93557
1580906987.388579,86,0,1580906986.998054,41.20960427437978,29.07526655540382,156.9241,-1,-1,15.07179069519043,48.00724964208526,-9999,10703.177929875,0.9688262939453125,0.0854034423828125,-0.1384735107421875,10703.172863875,1.34755111619462,1.430900616427038,-0.0920402971430474,-0.001516468822956085,0.0179281048476696,0.002846128307282925,-0.01801484823226929,-0.007528781890869141,-0.002496004104614258,2,0.4359809034492195,-0.4904037531280951,-0.4468685302310563,-0.6080569180850519,0.9860391020774841,0.09191039949655533,-0.1388496160507202,46.89685821533203,-11.13798332214355,0.595062255859375,2,10701.64990825,2,0,1580906985.891075,1580903939.50652,2106,0.4568741,0,0,2639.329,9,7,1580906940.646764,10700.445688,0,23.05688,96.93557
1580906987.419582,87,0,1580906986.998054,41.20960427437978,29.07526655540382,156.9241,-1,-1,15.07179069519043,48.00724964208526,-9999,10703.187969875,0.9703216552734375,0.0868072509765625,-0.1361846923828125,10703.182903875,1.34757699314598,1.43110090369025,-0.09203244313523329,-0.00280260993167758,0.02198091149330139,0.001109194941818714,-0.0197523832321167,-0.007063210010528564,-0.002617537975311279,2,0.4360297731399636,-0.4904609323315308,-0.4468348210117387,-0.6080004829354032,0.986067533493042,0.09190257638692856,-0.1386522203683853,46.90436553955078,-11.0680980682373,0.639190673828125,2,10701.64990825,2,0,1580906985.891075,1580903939.50652,2106,0.4568741,0,0,2639.329,9,7,1580906940.646764,10700.445688,0,23.05688,96.93557
1580906987.420888,88,0,1580906986.998054,41.20960427437978,29.07526655540382,156.9241,-1,-1,15.07179069519043,48.00724964208526,-9999,10703.198009875,0.9730224609375,0.0868072509765625,-0.1344451904296875,10703.192943875,1.34758183280413,1.431224989535059,-0.09200566900202604,-0.0002584923058748245,0.01284307613968849,0.003388062119483948,-0.01910072565078735,-0.005663216114044189,-0.0004816055297851562,2,0.4360510222052341,-0.4905042278700101,-0.4468164005580124,-0.6079639293523893,0.9860872626304626,0.09187591820955276,-0.1385302096605301,46.90436553955078,-11.0680980682373,0.639190673828125,2,10701.64990825,2,0,1580906985.891075,1580903939.50652,2106,0.4568741,0,0,2639.329,9,7,1580906940.646764,10700.445688,0,23.05688,96.93557
1580906987.421869,89,0,1580906986.998054,41.20960427437978,29.07526655540382,156.9241,-1,-1,15.07179069519043,48.00724964208526,-9999,10703.208049875,0.971954345703125,0.08660888671875,-0.135528564453125,10703.202984875,1.347597466812237,1.431267998519766,-0.09197864988502834,-0.0005503557622432709,0.005090231075882912,0.00232284888625145,-0.01579809188842773,-0.005270004272460938,0.001963436603546143,2,0.4360567278539509,-0.4905205878781682,-0.446819007601738,-0.6079448205172452,0.9860957860946655,0.09184901416301727,-0.1384881585836411,46.97295379638672,-11.22843360900879,0.71490478515625,2,10701.64990825,2,0,1580906985.891075,1580903939.50652,2106,0.4568741,0,0,2639.329,9,7,1580906940.646764,10700.445688,0,23.05688,96.93557
1580906987.428833,90,0,1580906986.998054,41.20960427437978,29.07526655540382,156.9241,-1,-1,15.07179069519043,48.00724964208526,-9999,10703.218090875,0.9726715087890625,0.0860595703125,-0.135101318359375,10703.213054875,1.347587149194419,1.431217820591298,-0.0919279047988166,0.002259013243019581,-0.00460873544216156,0.004821160808205605,-0.01643657684326172,-0.005204111337661743,0.0009303092956542969,2,0.4360285397829147,-0.4905201020877537,-0.4468403407591056,-0.607949679655202,0.9860933423042297,0.09179848432540894,-0.1385382860898972,46.97295379638672,-11.22843360900879,0.71490478515625,2,10701.64990825,2,0,1580906985.891075,1580903939.50652,2106,0.4568741,0,0,2639.329,9,7,1580906940.646764,10700.445688,0,23.05688,96.93557
1580906987.438902,91,0,1580906986.998054,41.20960427437978,29.07526655540382,156.9241,-1,-1,15.07179069519043,48.00724964208526,-9999,10703.228130875,0.974273681640625,0.0861053466796875,-0.1352996826171875,10703.223095875,1.34759449676777,1.431089048404474,-0.09187722945847487,0.0003700815141201019,-0.01265930756926537,0.004683224484324455,-0.01631641387939453,-0.005931675434112549,0.001348137855529785,2,0.4359871401881719,-0.4904918577335672,-0.4468841582791644,-0.6079698856339436,0.9860800504684448,0.09174802154302597,-0.1386658996343613,46.81487274169922,-11.16344261169434,0.62030029296875,2,10701.64990825,2,0,1580906985.891075,1580903939.50652,2106,0.4568741,0,0,2639.329,9,7,1580906940.646764,10700.445688,0,23.05688,96.93557
1580906987.449029,92,0,1580906986.998054,41.20960427437978,29.07526655540382,156.9241,-1,-1,15.07179069519043,48.00724964208526,-9999,10703.238170875,0.9741668701171875,0.086334228515625,-0.1366119384765625,10703.233135875,1.347590426504139,1.430876257870915,-0.09181974822525621,0.001178084872663021,-0.0211582537740469,0.006108282133936882,-0.01452207565307617,-0.005706489086151123,0.001833915710449219,2,0.4359221695972666,-0.4904422740807256,-0.4469446613819199,-0.608012085417622,0.986055850982666,0.0916907861828804,-0.1388764828443527,46.81487274169922,-11.16344261169434,0.62030029296875,2,10701.64990825,2,0,1580906985.891075,1580903939.50652,2106,0.4568741,0,0,2639.329,9,7,1580906940.646764,10700.445688,0,23.05688,96.93557
1580906987.480352,93,0,1580906986.998054,41.20960427437978,29.07526655540382,156.9241,-1,-1,15.07179069519043,48.00724964208526,-9999,10703.248211875,0.971771240234375,0.0863494873046875,-0.1366729736328125,10703.243175875,1.34759704456568,1.43057399591793,-0.09174257602401746,0.001726878806948662,-0.03006858378648758,0.008024184033274651,-0.01405966281890869,-0.005766749382019043,0.0006382465362548828,2,0.4358342690191185,-0.4903679711757883,-0.4470331114577389,-0.6080698704954433,0.9860206842422485,0.09161393344402313,-0.1391754895448685,46.86206817626953,-11.15300941467285,0.529541015625,2,10701.64990825,2,0,1580906985.891075,1580903939.50652,2106,0.4568741,0,0,2639.329,9,7,1580906940.646764,10700.445688,0,23.05688,96.93557
1580906987.481831,94,0,1580906986.998054,41.20960427437978,29.07526655540382,156.9241,-1,-1,15.07179069519043,48.00724964208526,-9999,10703.258281875,0.967529296875,0.085784912109375,-0.1390380859375,10703.253215875,1.347604610299842,1.430233194961388,-0.09166118393703254,0.0004389742389321327,-0.03483111411333084,0.008344296365976334,-0.01606416702270508,-0.005304038524627686,0.0009456276893615723,2,0.4357366794974861,-0.490282834545016,-0.4471314064641767,-0.6081363089168632,0.9859806895256042,0.09153288602828979,-0.1395125836133957,46.86206817626953,-11.15300941467285,0.529541015625,2,10701.64990825,2,0,1580906985.891075,1580903939.50652,2106,0.4568741,0,0,2639.329,9,7,1580906940.646764,10700.445688,0,23.05688,96.93557
1580906987.483103,95,0,1580906986.998054,41.20960427437978,29.07526655540382,156.9241,-1,-1,15.07179069519043,48.00724964208526,-9999,10703.268322875,0.9626007080078125,0.0850982666015625,-0.1423187255859375,10703.263256875,1.347620676402424,1.429975398390712,-0.09158109020937244,0.0006065154448151588,-0.02561204321682453,0.008248442783951759,-0.01908707618713379,-0.005620777606964111,-0.0004311203956604004,2,0.4356601336378276,-0.4902207245104047,-0.4472138075306843,-0.6081805975318704,0.9859519004821777,0.09145312756299973,-0.1397677809000015,46.72367095947266,-11.20738410949707,0.630523681640625,2,10701.64990825,2,0,1580906985.891075,1580903939.50652,2106,0.4568741,0,0,2639.329,9,7,1580906940.646764,10700.445688,0,23.05688,96.93557
1580906987.489044,96,0,1580906986.998054,41.20960427437978,29.07526655540382,156.9241,-1,-1,15.07179069519043,48.00724964208526,-9999,10703.278362875,0.9658050537109375,0.085906982421875,-0.1414947509765625,10703.273296875,1.347636801802552,1.429796974221737,-0.09148846183558391,-0.001262491568922997,-0.01703586615622044,0.008826347067952156,-0.02483826875686646,-0.006550729274749756,-0.003717303276062012,2,0.4355977550093203,-0.4901858369049062,-0.4472822726987953,-0.6082030393611716,0.9859353303909302,0.09136088937520981,-0.1399448812007904,46.72367095947266,-11.20738410949707,0.630523681640625,2,10701.64990825,2,0,1580906985.891075,1580903939.50652,2106,0.4568741,0,0,2639.329,9,7,1580906940.646764,10700.445688,0,23.05688,96.93557
1580906987.499414,97,0,1580906986.998054,41.20960427437978,29.07526655540382,156.9241,-1,-1,15.07179069519043,48.00724964208526,-9999,10703.288402875,0.9712982177734375,0.0854949951171875,-0.137908935546875,10703.283336875,1.347664226105953,1.42959912154911,-0.09136584604135384,-0.001092594116926193,-0.01869780756533146,0.01165185123682022,-0.02431797981262207,-0.005863666534423828,-0.004389643669128418,2,0.43552517735372,-0.4901500241198558,-0.4473664236893772,-0.6082221388205367,0.9859188795089722,0.09123878180980682,-0.1401415467262268,46.88282012939453,-11.36023902893066,0.64178466796875,2,10701.64990825,2,0,1580906985.891075,1580903939.50652,2106,0.4568741,0,0,2639.329,9,7,1580906940.646764,10700.445688,0,23.05688,96.93557
1580906987.509197,98,0,1580906986.998054,41.20960427437978,29.07526655540382,156.9241,-1,-1,15.07179069519043,48.00724964208526,-9999,10703.298443875,0.9727325439453125,0.085601806640625,-0.13702392578125,10703.293407875,1.347678942533557,1.429331430480412,-0.09122756328715191,0.0009742854163050652,-0.02663163095712662,0.01348517090082169,-0.0184180736541748,-0.005603581666946411,-0.0006597042083740234,2,0.4354294770028184,-0.4900995422807513,-0.4474660158420121,-0.6082579192032121,0.9858936667442322,0.09110107272863388,-0.1404072195291519,46.88282012939453,-11.36023902893066,0.64178466796875,2,10701.64990825,2,0,1580906985.891075,1580903939.50652,2106,0.4568741,0,0,2639.329,9,7,1580906940.646764,10700.445688,0,23.05688,96.93557
1580906987.536914,99,0,1580906986.998054,41.20960427437978,29.07526655540382,156.9241,-1,-1,15.07179069519043,48.00724964208526,-9999,10703.308483875,0.970001220703125,0.08502197265625,-0.139007568359375,10703.303447875,1.347707473450829,1.429029001877815,-0.09110324762036048,-4.101451486349106e-05,-0.03080254793167114,0.01283063925802708,-0.01579266786575317,-0.00578463077545166,0.001822888851165771,2,0.435333307681714,-0.4900320656592705,-0.4475736580531158,-0.6083019100480191,0.9858623147010803,0.09097727388143539,-0.1407069712877274,46.69696807861328,-11.30209541320801,0.50390625,2,10701.64990825,2,0,1580906985.891075,1580903939.50652,2106,0.4568741,0,0,2639.329,9,7,1580906940.646764,10700.445688,0,23.05688,96.93557
1580906987.538601,100,0,1580906986.998054,41.20960427437978,29.07526655540382,156.9241,-1,-1,15.07179069519043,48.00724964208526,-9999,10703.318523875,0.96563720703125,0.0835723876953125,-0.1420440673828125,10703.313488875,1.347730590219903,1.428772340694017,-0.09101016305902215,-0.001679657027125359,-0.02581897377967834,0.009030042216181755,-0.01701593399047852,-0.005523830652236938,0.0005061626434326172,2,0.4352549355825404,-0.4899719782242097,-0.4476613612281912,-0.6083418934598009,0.9858345985412598,0.09088458120822906,-0.1409611999988556,46.69696807861328,-11.30209541320801,0.50390625,2,10701.64990825,2,0,1580906985.891075,1580903939.50652,2106,0.4568741,0,0,2639.329,9,7,1580906940.646764,10700.445688,0,23.05688,96.93557
1580906987.539803,101,0,1580906986.998054,41.20960427437978,29.07526655540382,156.9241,-1,-1,15.07179069519043,48.00724964208526,-9999,10703.328563875,0.9643707275390625,0.0833892822265625,-0.1449737548828125,10703.323528875,1.347746388130999,1.428634437682518,-0.09094333458735492,0.0003371546044945717,-0.01260410249233246,0.007185536436736584,-0.02132058143615723,-0.007318735122680664,-0.002026915550231934,2,0.4352088659153884,-0.4899430991427997,-0.447713971985259,-0.608359352402822,0.9858211278915405,0.09081802517175674,-0.1410980075597763,46.66007232666016,-11.26518821716309,0.599212646484375,2,10701.64990825,2,0,1580906985.891075,1580903939.50652,2106,0.4568741,0,0,2639.329,9,7,1580906940.646764,10700.445688,0,23.05688,96.93557
1580906987.549294,102,0,1580906986.998054,41.20960427437978,29.07526655540382,156.9241,-1,-1,15.07179069519043,48.00724964208526,-9999,10703.338634875,0.9666290283203125,0.0830230712890625,-0.1428070068359375,10703.333568875,1.347744352514077,1.428598286543169,-0.09093235030439467,-0.000130530446767807,-0.00344589538872242,0.0007101502269506454,-0.02400195598602295,-0.007673919200897217,-0.005713999271392822,2,0.4351971104648066,-0.4899352777962466,-0.447724162076742,-0.6083666430061562,0.9858170747756958,0.09080708771944046,-0.1411338001489639,46.66007232666016,-11.26518821716309,0.599212646484375,2,10701.64990825,2,0,1580906985.891075,1580903939.50652,2106,0.4568741,0,0,2639.329,9,7,1580906940.646764,10700.445688,0,23.05688,96.93557
1580906987.559309,103,0,1580906986.998054,41.20960427437978,29.07526655540382,156.9241,-1,-1,15.07179069519043,48.00724964208526,-9999,10703.348674875,0.967498779296875,0.08416748046875,-0.1421661376953125,10703.343609875,1.34774484126709,1.428637124166746,-0.09095880568330583,0.0004742871969938278,0.005653861910104752,-0.004129468929022551,-0.02221965789794922,-0.007974952459335327,-0.004715085029602051,2,0.4352134965244477,-0.4899404364014321,-0.447708801660145,-0.608362020526045,0.9858201146125793,0.09083343297243118,-0.1410951614379883,46.69858551025391,-11.47651481628418,0.614166259765625,2,10701.64990825,2,0,1580906985.891075,1580903939.50652,2106,0.4568741,0,0,2639.329,9,7,1580906940.646764,10700.445688,0,23.05688,96.93557
1580906987.569338,104,0,1580906986.998054,41.20960427437978,29.07526655540382,156.9241,-1,-1,15.07179069519043,48.00724964208526,-9999,10703.358715875,0.96978759765625,0.086334228515625,-0.140899658203125,10703.353649875,1.347725183314967,1.428669680657452,-0.0909853526745469,0.001345140859484673,0.003865549340844154,-0.002923589665442705,-0.02116894721984863,-0.007360607385635376,-0.003221750259399414,2,0.435223574550508,-0.4899480407937092,-0.4476886501700803,-0.6083634425314637,0.9858222603797913,0.09085986763238907,-0.1410627216100693,46.69858551025391,-11.47651481628418,0.614166259765625,2,10701.64990825,2,0,1580906985.891075,1580903939.50652,2106,0.4568741,0,0,2639.329,9,7,1580906940.646764,10700.445688,0,23.05688,96.93557
1580906987.598702,105,0,1580906986.998054,41.20960427437978,29.07526655540382,156.9241,-1,-1,15.07179069519043,48.00724964208526,-9999,10703.368755875,0.97021484375,0.086029052734375,-0.1402740478515625,10703.363689875,1.347714694703174,1.42871190896799,-0.09102500127398878,0.0009074434638023376,0.005542343482375145,-0.003955824300646782,-0.0191112756729126,-0.005263984203338623,-0.002714395523071289,2,0.4352417267921597,-0.4899534055944573,-0.4476657400229299,-0.6083631575405751,0.9858248233795166,0.09089935570955276,-0.1410205960273743,46.63965606689453,-11.31601142883301,0.442718505859375,2,10701.64990825,2,0,1580906985.891075,1580903939.50652,2106,0.4568741,0,0,2639.329,9,7,1580906940.646764,10700.445688,0,23.05688,96.93557
1580906987.600111,106,0,1580906986.998054,41.20960427437978,29.07526655540382,156.9241,-1,-1,15.07179069519043,48.00724964208526,-9999,10703.378795875,0.9702911376953125,0.0857696533203125,-0.1395416259765625,10703.373760875,1.347672170815204,1.428751198204481,-0.09108311278522201,0.003722137771546841,0.005243802443146706,-0.006329233292490244,-0.0180128812789917,-0.004986286163330078,-0.001167058944702148,2,0.4352567241217687,-0.4899602335611924,-0.4476287560666004,-0.6083740650035039,0.9858250617980957,0.09095722436904907,-0.1409811079502106,46.63965606689453,-11.31601142883301,0.442718505859375,2,10701.64990825,2,0,1580906985.891075,1580903939.50652,2106,0.4568741,0,0,2639.329,9,7,1580906940.646764,10700.445688,0,23.05688,96.93557
1580906987.601141,107,0,1580906986.998054,41.20960427437978,29.07526655540382,156.9241,-1,-1,15.07179069519043,48.00724964208526,-9999,10703.388836875,0.9709930419921875,0.085479736328125,-0.1370391845703125,10703.383800875,1.347637132362404,1.428731781305726,-0.09113753677710604,0.003717876970767975,-0.001817569136619568,-0.005669568199664354,-0.0182647705078125,-0.005513638257980347,-0.001255393028259277,2,0.4352593258214119,-0.4899485104111325,-0.4476078291727763,-0.6083970756610568,0.9858174324035645,0.09101142734289169,-0.1409995555877686,46.58899688720703,-11.13116645812988,0.63287353515625,2,10701.64990825,2,0,1580906985.891075,1580903939.50652,2106,0.4568741,0,0,2639.329,9,7,1580906940.646764,10700.445688,0,23.05688,96.93557
1580906987.60951,108,0,1580906986.998054,41.20960427437978,29.07526655540382,156.9241,-1,-1,15.07179069519043,48.00724964208526,-9999,10703.398876875,0.9685211181640625,0.0848236083984375,-0.1376800537109375,10703.393840875,1.347608442358878,1.42863735379347,-0.09116893928688184,0.001801200211048126,-0.009846732951700687,-0.003624260425567627,-0.01727205514907837,-0.00565183162689209,0.001507461071014404,2,0.4352401944419718,-0.4899182272230902,-0.4476112460483426,-0.6084324458840353,0.985801100730896,0.09104269742965698,-0.1410922110080719,46.58899688720703,-11.13116645812988,0.63287353515625,2,10701.64990825,2,0,1580906985.891075,1580903939.50652,2106,0.4568741,0,0,2639.329,9,7,1580906940.646764,10700.445688,0,23.05688,96.93557
1580906987.619671,109,0,1580906986.998054,41.20960427437978,29.07526655540382,156.9241,-1,-1,15.07179069519043,48.00724964208526,-9999,10703.408916875,0.96380615234375,0.0842437744140625,-0.139984130859375,10703.403881875,1.347588886454048,1.428540143513512,-0.0911771202800731,0.003539339639246464,-0.009129209443926811,-0.001594905741512775,-0.01850879192352295,-0.006361871957778931,0.001984953880310059,2,0.4352159581859327,-0.4898909044294207,-0.4476242872388809,-0.6084622664878152,0.9857867360115051,0.09105084091424942,-0.1411879360675812,46.65699005126953,-11.36084938049316,0.441162109375,2,10701.64990825,2,0,1580906985.891075,1580903939.50652,2106,0.4568741,0,0,2639.329,9,7,1580906940.646764,10700.445688,0,23.05688,96.93557
1580906987.62972,110,0,1580906986.998054,41.20960427437978,29.07526655540382,156.9241,-1,-1,15.07179069519043,48.00724964208526,-9999,10703.418987875,0.9616546630859375,0.084869384765625,-0.142608642578125,10703.413921875,1.347581656768116,1.42849934089322,-0.09117501887425379,0.001216530799865723,-0.003428978845477104,-0.0001229764893651009,-0.02303516864776611,-0.007000625133514404,-3.463029861450195e-05,2,0.4352044412028536,-0.4898805924977058,-0.447631534909594,-0.6084735162193327,0.985781192779541,0.09104874730110168,-0.141228199005127,46.65699005126953,-11.36084938049316,0.441162109375,2,10701.64990825,2,0,1580906985.891075,1580903939.50652,2106,0.4568741,0,0,2639.329,9,7,1580906940.646764,10700.445688,0,23.05688,96.93557
1580906987.659389,111,0,1580906986.998054,41.20960427437978,29.07526655540382,156.9241,-1,-1,15.07179069519043,48.00724964208526,-9999,10703.429027875,0.9651641845703125,0.084564208984375,-0.1423492431640625,10703.423961875,1.347592922127064,1.428517488183611,-0.09115812665022105,0.001290560699999332,0.002799417823553085,0.00113487895578146,-0.02606034278869629,-0.006327599287033081,-0.002661347389221191,2,0.4352064028635416,-0.4898878598297546,-0.4476355352168533,-0.6084634247624183,0.9857853651046753,0.09103193134069443,-0.1412105411291122,46.77921295166016,-11.36189842224121,0.4932861328125,2,10701.64990825,2,0,1580906985.891075,1580903939.50652,2106,0.4568741,0,0,2639.329,9,7,1580906940.646764,10700.445688,0,23.05688,96.93557
1580906987.661038,112,0,1580906986.998054,41.20960427437978,29.07526655540382,156.9241,-1,-1,15.07179069519043,48.00724964208526,-9999,10703.439068875,0.971649169921875,0.085296630859375,-0.139068603515625,10703.434002875,1.347600377449752,1.428514830259914,-0.09114107796921607,0.00025139469653368,-0.0006456486880779266,0.001433685421943665,-0.02526819705963135,-0.006890416145324707,-0.004077792167663574,2,0.4352028032694977,-0.4898896170622875,-0.4476429002602644,-0.6084590496194253,0.9857864379882812,0.09101495146751404,-0.1412133723497391,46.77921295166016,-11.36189842224121,0.4932861328125,2,10701.64990825,2,0,1580906985.891075,1580903939.50652,2106,0.4568741,0,0,2639.329,9,7,1580906940.646764,10700.445688,0,23.05688,96.93557
1580906987.662344,113,0,1580906986.998054,41.20960427437978,29.07526655540382,156.9241,-1,-1,15.07179069519043,48.00724964208526,-9999,10703.449108875,0.9708251953125,0.0832977294921875,-0.1404876708984375,10703.444042875,1.3476214653119,1.428490000096976,-0.0911363662214945,-0.0002047466114163399,-0.003302814438939095,0.0001996308565139771,-0.01766633987426758,-0.005542933940887451,-0.0004673600196838379,2,0.4352010253815526,-0.4898786649558161,-0.4476559986911306,-0.6084596233422396,0.9857834577560425,0.09101025760173798,-0.1412379294633865,46.65836334228516,-11.16750144958496,0.509552001953125,2,10701.64990825,2,0,1580906985.891075,1580903939.50652,2106,0.4568741,0,0,2639.329,9,7,1580906940.646764,10700.445688,0,23.05688,96.93557
1580906987.669792,114,0,1580906986.998054,41.20960427437978,29.07526655540382,156.9241,-1,-1,15.07179069519043,48.00724964208526,-9999,10703.459148875,0.9696197509765625,0.0836639404296875,-0.1426544189453125,10703.454113875,1.347628941298261,1.428482348130033,-0.09116143143404971,-0.0001296456903219223,-0.001635409891605377,-0.002903218381106853,-0.01690012216567993,-0.007521152496337891,-0.0007350444793701172,2,0.4352083751563329,-0.4898684676916544,-0.4476532158581996,-0.6084644036990764,0.985779881477356,0.09103521704673767,-0.141245111823082,46.65836334228516,-11.16750144958496,0.509552001953125,2,10701.64990825,2,0,1580906985.891075,1580903939.50652,2106,0.4568741,0,0,2639.329,9,7,1580906940.646764,10700.445688,0,23.05688,96.93557
1580906987.67998,115,0,1580906986.998054,41.20960427437978,29.07526655540382,156.9241,-1,-1,15.07179069519043,48.00724964208526,-9999,10703.469188875,0.968353271484375,0.0843963623046875,-0.143157958984375,10703.464153875,1.347640534387227,1.428530786309773,-0.09123067223094725,-0.0009571472182869911,0.005121959373354912,-0.007392562460154295,-0.01825875043869019,-0.008170127868652344,-0.002798020839691162,2,0.4352418249866861,-0.4898635724328511,-0.4476277586407255,-0.6084631665964395,0.9857805371284485,0.0911041721701622,-0.1411964744329453,46.84894561767578,-11.24079704284668,0.52276611328125,2,10701.64990825,2,0,1580906985.891075,1580903939.50652,2106,0.4568741,0,0,2639.329,9,7,1580906940.646764,10700.445688,0,23.05688,96.93557
1580906987.689737,116,0,1580906986.998054,41.20960427437978,29.07526655540382,156.9241,-1,-1,15.07179069519043,48.00724964208526,-9999,10703.479229875,0.969146728515625,0.0842742919921875,-0.14111328125,10703.474193875,1.347639637213401,1.428646382982145,-0.09133035843533417,-0.001832528505474329,0.01305125467479229,-0.01015532575547695,-0.01944100856781006,-0.006957381963729858,-0.004393577575683594,2,0.4352959320360177,-0.4898743055361314,-0.4475757746039136,-0.6084540974584105,0.9857878684997559,0.09120344370603561,-0.141081228852272,46.84894561767578,-11.24079704284668,0.52276611328125,2,10701.64990825,2,0,1580906985.891075,1580903939.50652,2106,0.4568741,0,0,2639.329,9,7,1580906940.646764,10700.445688,0,23.05688,96.93557
1580906987.715593,117,0,1580906986.998054,41.20960427437978,29.07526655540382,156.9241,-1,-1,15.07179069519043,48.00724964208526,-9999,10703.489269875,0.96966552734375,0.085784912109375,-0.1405181884765625,10703.484234875,1.347620293246405,1.428760132812684,-0.09145792003731638,0.00118563137948513,0.01207786984741688,-0.01339239813387394,-0.01936936378479004,-0.00743567943572998,-0.002981662750244141,2,0.4353530460595795,-0.4898816120549809,-0.4475111556964289,-0.6084549656134854,0.9857925176620483,0.09133047610521317,-0.140967458486557,46.66773223876953,-11.43511772155762,0.5394287109375,2,10701.64990825,2,0,1580906985.891075,1580903939.50652,2106,0.4568741,0,0,2639.329,9,7,1580906940.646764,10700.445688,0,23.05688,96.93557
1580906987.716994,118,0,1580906986.998054,41.20960427437978,29.07526655540382,156.9241,-1,-1,15.07179069519043,48.00724964208526,-9999,10703.499309875,0.9702301025390625,0.085113525390625,-0.14056396484375,10703.494274875,1.347579046995156,1.428855794423434,-0.09159211849197542,0.001803385093808174,0.01073410362005234,-0.01344110630452633,-0.01874494552612305,-0.006272614002227783,-0.001933574676513672,2,0.4354026650096138,-0.4898865248515199,-0.4474420173877982,-0.6084663483940627,0.9857938289642334,0.09146410971879959,-0.1408714205026627,46.66773223876953,-11.43511772155762,0.5394287109375,2,10701.64990825,2,0,1580906985.891075,1580903939.50652,2106,0.4568741,0,0,2639.329,9,7,1580906940.646764,10700.445688,0,23.05688,96.93557
1580906987.720085,119,0,1580906986.998054,41.20960427437978,29.07526655540382,156.9241,-1,-1,15.07179069519043,48.00724964208526,-9999,10703.509380875,0.97003173828125,0.0849151611328125,-0.14007568359375,10703.504314875,1.347551659236324,1.428925998601384,-0.09174139370071177,0.001080760732293129,0.007737113162875175,-0.01605279743671417,-0.0179019570350647,-0.006253838539123535,-0.001562118530273438,2,0.4354542526897429,-0.4898769692997435,-0.4473786304027844,-0.6084838186443398,0.9857902526855469,0.09161275625228882,-0.1408002972602844,46.65955352783203,-11.45180702209473,0.511962890625,2,10701.64990825,2,0,1580906985.891075,1580903939.50652,2106,0.4568741,0,0,2639.329,9,7,1580906940.646764,10700.445688,0,23.05688,96.93557
1580906987.730243,120,0,1580906986.998054,41.20960427437978,29.07526655540382,156.9241,-1,-1,15.07179069519043,48.00724964208526,-9999,10703.519420875,0.9673919677734375,0.08526611328125,-0.139434814453125,10703.514354875,1.347513291552803,1.428978068656694,-0.09188573685367889,0.0006115119904279709,0.00614401139318943,-0.01563734374940395,-0.01818621158599854,-0.007145613431930542,-0.001936197280883789,2,0.435497767030937,-0.489865450366834,-0.4473171073483709,-0.6085070070086731,0.9857842922210693,0.09175649285316467,-0.1407470703125,46.65955352783203,-11.45180702209473,0.511962890625,2,10701.64990825,2,0,1580906985.891075,1580903939.50652,2106,0.4568741,0,0,2639.329,9,7,1580906940.646764,10700.445688,0,23.05688,96.93557
1580906987.740161,121,0,1580906986.998054,41.20960427437978,29.07526655540382,156.9241,-1,-1,15.07179069519043,48.00724964208526,-9999,10703.529461875,0.9671478271484375,0.0859832763671875,-0.1378631591796875,10703.524395875,1.34750852444127,1.429005563631897,-0.09199728081723114,-0.001766957342624664,0.003119459375739098,-0.01085856836289167,-0.01965987682342529,-0.006967008113861084,-0.000774383544921875,2,0.4355345635771005,-0.4898473006665268,-0.4472799503829289,-0.6085226786785833,0.9857781529426575,0.09186756610870361,-0.1407185345888138,46.65119171142578,-11.45758247375488,0.462127685546875,2,10701.64990825,2,0,1580906985.891075,1580903939.50652,2106,0.4568741,0,0,2639.329,9,7,1580906940.646764,10700.445688,0,23.05688,96.93557
1580906987.750755,122,0,1580906986.998054,41.20960427437978,29.07526655540382,156.9241,-1,-1,15.07179069519043,48.00724964208526,-9999,10703.539501875,0.968841552734375,0.086669921875,-0.1392669677734375,10703.534435875,1.347487707046304,1.428990342857814,-0.09208098072467472,0.001773715019226074,-0.002270245924592018,-0.0087546706199646,-0.02183210849761963,-0.006348669528961182,0.0002924799919128418,2,0.4355499373220931,-0.4898265242097838,-0.4472546268707334,-0.6085470628541177,0.9857684373855591,0.0919509083032608,-0.1407324522733688,46.65119171142578,-11.45758247375488,0.462127685546875,2,10701.64990825,2,0,1580906985.891075,1580903939.50652,2106,0.4568741,0,0,2639.329,9,7,1580906940.646764,10700.445688,0,23.05688,96.93557
1580906987.783499,123,0,1580906986.998054,41.20960427437978,29.07526655540382,156.9241,-1,-1,15.07179069519043,48.00724964208526,-9999,10703.549541875,0.96661376953125,0.0856475830078125,-0.1416473388671875,10703.544506875,1.347489851083268,1.428981330413926,-0.09215358322681233,0.0003357268869876862,-6.629154086112976e-06,-0.008442964404821396,-0.01933717727661133,-0.005734503269195557,0.0003459453582763672,2,0.4355692235592362,-0.4898053335335977,-0.4472378536042951,-0.6085624851898707,0.9857603907585144,0.09202320873737335,-0.140740379691124,46.59523773193359,-11.59442710876465,0.620880126953125,2,10701.64990825,2,0,1580906985.891075,1580903939.50652,2106,0.4568741,0,0,2639.329,9,7,1580906940.646764,10700.445688,0,23.05688,96.93557
1580906987.785113,124,0,1580906986.998054,41.20960427437978,29.07526655540382,156.9241,-1,-1,15.07179069519043,48.00724964208526,-9999,10703.559581875,0.969329833984375,0.085296630859375,-0.140655517578125,10703.554546875,1.347492881049026,1.428963903471903,-0.09221927236487562,0.0005221487954258919,-0.002701215445995331,-0.007231225725263357,-0.02119040489196777,-0.006105244159698486,-0.003009915351867676,2,0.4355847873635953,-0.4897831530964838,-0.4472250771103272,-0.6085786839091006,0.9857520461082458,0.09208861738443375,-0.1407567113637924,46.57741546630859,-11.50060844421387,0.517852783203125,2,10701.64990825,2,0,1580906985.891075,1580903939.50652,2106,0.4568741,0,0,2639.329,9,7,1580906940.646764,10700.445688,0,23.05688,96.93557
1580906987.786149,125,0,1580906986.998054,41.20960427437978,29.07526655540382,156.9241,-1,-1,15.07179069519043,48.00724964208526,-9999,10703.569622875,0.9666595458984375,0.0855865478515625,-0.1418304443359375,10703.564586875,1.347488699264253,1.428982371583749,-0.09230488793922605,-0.001717056147754192,0.001733100041747093,-0.008399256505072117,-0.01965951919555664,-0.007213026285171509,-0.001976609230041504,2,0.4356123146142889,-0.4897685286295787,-0.4471969653084543,-0.6085914579235684,0.9857469201087952,0.09217386692762375,-0.1407373994588852,46.57741546630859,-11.50060844421387,0.517852783203125,2,10701.64990825,2,0,1580906985.891075,1580903939.50652,2106,0.4568741,0,0,2639.329,9,7,1580906940.646764,10700.445688,0,23.05688,96.93557
1580906987.790346,126,0,1580906986.998054,41.20960427437978,29.07526655540382,156.9241,-1,-1,15.07179069519043,48.00724964208526,-9999,10703.579662875,0.96746826171875,0.0858154296875,-0.14019775390625,10703.574627875,1.347480241869662,1.42902193946256,-0.09240059717686036,0.000257677398622036,0.003547510132193565,-0.009005125612020493,-0.02028203010559082,-0.007018715143203735,-0.002993404865264893,2,0.4356464036536683,-0.4897587526120503,-0.4471602565875551,-0.6086019117369046,0.9857437610626221,0.092269167304039,-0.1406971514225006,46.65494537353516,-11.51320838928223,0.47357177734375,2,10701.64990825,2,0,1580906985.891075,1580903939.50652,2106,0.4568741,0,0,2639.329,9,7,1580906940.646764,10700.445688,0,23.05688,96.93557
1580906987.800561,127,0,1580906986.998054,41.20960427437978,29.07526655540382,156.9241,-1,-1,15.07179069519043,48.00724964208526,-9999,10703.589733875,0.969390869140625,0.0862884521484375,-0.1403656005859375,10703.584667875,1.347458791737444,1.42906823291082,-0.09250359027694319,0.0004714801907539368,0.004366500303149223,-0.01112217083573341,-0.02146929502487183,-0.007091015577316284,-0.002292871475219727,2,0.4356808952534962,-0.4897520499267907,-0.4471161819184251,-0.608614999615317,0.9857408404350281,0.09237172454595566,-0.1406501680612564,46.65494537353516,-11.51320838928223,0.47357177734375,2,10701.64990825,2,0,1580906985.891075,1580903939.50652,2106,0.4568741,0,0,2639.329,9,7,1580906940.646764,10700.445688,0,23.05688,96.93557
1580906987.810596,128,0,1580906986.998054,41.20960427437978,29.07526655540382,156.9241,-1,-1,15.07179069519043,48.00724964208526,-9999,10703.599773875,0.969451904296875,0.0856781005859375,-0.1396026611328125,10703.594707875,1.347453995747355,1.429116607468654,-0.09259388747794001,9.19802114367485e-05,0.005404068157076836,-0.00893518328666687,-0.01904177665710449,-0.006204575300216675,-0.001396059989929199,2,0.4357163327019837,-0.4897454727523639,-0.4470800873070558,-0.6086213562445448,0.9857392907142639,0.09246163070201874,-0.1406012922525406,46.60584259033203,-11.31129264831543,0.451416015625,2,10701.64990825,2,0,1580906985.891075,1580903939.50652,2106,0.4568741,0,0,2639.329,9,7,1580906940.646764,10700.445688,0,23.05688,96.93557
1580906987.838966,129,0,1580906986.998054,41.20960427437978,29.07526655540382,156.9241,-1,-1,15.07179069519043,48.00724964208526,-9999,10703.609813875,0.9695281982421875,0.0858917236328125,-0.1395416259765625,10703.604747875,1.347431660717639,1.429159984974621,-0.0926961694157816,0.0004356382414698601,0.004774423316121101,-0.01085348427295685,-0.01847386360168457,-0.006917029619216919,-0.001562356948852539,2,0.435749769073414,-0.4897382375282109,-0.4470365496678882,-0.6086351595581828,0.9857359528541565,0.09256348013877869,-0.140557199716568,46.60584259033203,-11.31129264831543,0.451416015625,2,10701.64990825,2,0,1580906985.891075,1580903939.50652,2106,0.4568741,0,0,2639.329,9,7,1580906940.646764,10700.445688,0,23.05688,96.93557
1580906987.840298,130,0,1580906986.998054,41.20960427437978,29.07526655540382,156.9241,-1,-1,15.07179069519043,48.00724964208526,-9999,10703.619854875,0.968048095703125,0.0858917236328125,-0.141326904296875,10703.614788875,1.347429788941438,1.429226256363517,-0.09280828262326231,-0.000973973423242569,0.006420524790883064,-0.01132140122354031,-0.01854932308197021,-0.007028937339782715,-0.001064658164978027,2,0.4357960689805145,-0.4897311241723116,-0.4469916671826195,-0.6086408402389483,0.9857351779937744,0.0926751047372818,-0.1404904276132584,46.65671539306641,-11.36444664001465,0.483978271484375,2,10701.64990825,2,0,1580906985.891075,1580903939.50652,2106,0.4568741,0,0,2639.329,9,7,1580906940.646764,10700.445688,0,23.05688,96.93557
1580906987.841214,131,0,1580906986.998054,41.20960427437978,29.07526655540382,156.9241,-1,-1,15.07179069519043,48.00724964208526,-9999,10703.629894875,0.9681396484375,0.086761474609375,-0.13995361328125,10703.624859875,1.347410643907111,1.429326739366644,-0.0929458580368179,-0.0002608392387628555,0.01043311320245266,-0.01470056176185608,-0.0194818377494812,-0.007273077964782715,-0.002768278121948242,2,0.4358531336632218,-0.4897318321677501,-0.4469272222268146,-0.6086466106660606,0.9857364892959595,0.09281209111213684,-0.1403895616531372,46.65671539306641,-11.36444664001465,0.483978271484375,2,10701.64990825,2,0,1580906985.891075,1580903939.50652,2106,0.4568741,0,0,2639.329,9,7,1580906940.646764,10700.445688,0,23.05688,96.93557
1580906987.850612,132,0,1580906986.998054,41.20960427437978,29.07526655540382,156.9241,-1,-1,15.07179069519043,48.00724964208526,-9999,10703.639934875,0.9686126708984375,0.0871124267578125,-0.1400146484375,10703.634899875,1.347405048452533,1.429433344129031,-0.09307945710390252,-0.0005942676216363907,0.01127760112285614,-0.01328136399388313,-0.02040004730224609,-0.006780833005905151,-0.002509176731109619,2,0.435913673329,-0.489732479182054,-0.4468666628450066,-0.608647286942758,0.9857392907142639,0.09294511377811432,-0.1402827352285385,46.59340667724609,-11.24905967712402,0.50665283203125,2,10701.64990825,2,0,1580906985.891075,1580903939.50652,2106,0.4568741,0,0,2639.329,9,7,1580906940.646764,10700.445688,0,23.05688,96.93557
1580906987.860618,133,0,1580906986.998054,41.20960427437978,29.07526655540382,156.9241,-1,-1,15.07179069519043,48.00724964208526,-9999,10703.649975875,0.9679412841796875,0.0877685546875,-0.13958740234375,10703.644939875,1.347404448928977,1.42951800172896,-0.09320167126027655,-0.002834784798324108,0.007752109318971634,-0.0117119625210762,-0.01980549097061157,-0.006246685981750488,-0.001755237579345703,2,0.4359673338307671,-0.4897281360953881,-0.4468154041631557,-0.6086498979056822,0.9857398271560669,0.09306679666042328,-0.140197679400444,46.59340667724609,-11.24905967712402,0.50665283203125,2,10701.64990825,2,0,1580906985.891075,1580903939.50652,2106,0.4568741,0,0,2639.329,9,7,1580906940.646764,10700.445688,0,23.05688,96.93557
1580906987.870651,134,0,1580906986.998054,41.20960427437978,29.07526655540382,156.9241,-1,-1,15.07179069519043,48.00724964208526,-9999,10703.660015875,0.9681396484375,0.08782958984375,-0.138275146484375,10703.654979875,1.347398799494318,1.429588077756777,-0.09332604931655272,-3.090035170316696e-05,0.007254885509610176,-0.01375991478562355,-0.02018535137176514,-0.005852013826370239,-0.002024412155151367,2,0.4360170755443173,-0.4897199450838925,-0.4467652276279517,-0.6086577213386469,0.9857381582260132,0.09319063276052475,-0.1401269733905792,46.70047760009766,-11.44544792175293,0.7030029296875,2,10701.64990825,2,0,1580906985.891075,1580903939.50652,2106,0.4568741,0,0,2639.329,9,7,1580906940.646764,10700.445688,0,23.05688,96.93557
1580906987.898815,135,0,1580906986.998054,41.20960427437978,29.07526655540382,156.9241,-1,-1,15.07179069519043,48.00724964208526,-9999,10703.670086875,0.965087890625,0.08758544921875,-0.141632080078125,10703.665020875,1.347389276653128,1.4296771254689,-0.09342757038004089,-0.001288970932364464,0.009495608508586884,-0.009833927266299725,-0.01985287666320801,-0.005831301212310791,-0.0002826452255249023,2,0.436063562881067,-0.4897240366657933,-0.4467158426979941,-0.6086574633692425,0.9857413768768311,0.09329171478748322,-0.1400378793478012,46.70047760009766,-11.44544792175293,0.7030029296875,2,10701.64990825,2,0,1580906985.891075,1580903939.50652,2106,0.4568741,0,0,2639.329,9,7,1580906940.646764,10700.445688,0,23.05688,96.93557
1580906987.900136,136,0,1580906986.998054,41.20960427437978,29.07526655540382,156.9241,-1,-1,15.07179069519043,48.00724964208526,-9999,10703.680126875,0.966796875,0.08746337890625,-0.1393890380859375,10703.675060875,1.347389471413634,1.429770789205348,-0.09350982697653042,-0.001106544397771358,0.008860975503921509,-0.008336698636412621,-0.02245235443115234,-0.005928695201873779,-0.003244936466217041,2,0.4361079873016163,-0.4897321608877521,-0.4466735296307426,-0.6086501639525642,0.9857469201087952,0.0933736115694046,-0.139944463968277,46.73040008544922,-11.37768363952637,0.55938720703125,2,10701.64990825,2,0,1580906985.891075,1580903939.50652,2106,0.4568741,0,0,2639.329,9,7,1580906940.646764,10700.445688,0,23.05688,96.93557
1580906987.90131,137,0,1580906986.998054,41.20960427437978,29.07526655540382,156.9241,-1,-1,15.07179069519043,48.00724964208526,-9999,10703.690166875,0.9651641845703125,0.0876007080078125,-0.1401519775390625,10703.685100875,1.347375700989843,1.429883726205013,-0.09356405835815465,0.000970703549683094,0.0129544697701931,-0.00535160768777132,-0.02156305313110352,-0.006181210279464722,-0.002274155616760254,2,0.4361453515559319,-0.4897560911176239,-0.4466302079240134,-0.6086357818859336,0.9857575297355652,0.09342760592699051,-0.1398324072360992,46.73040008544922,-11.37768363952637,0.55938720703125,2,10701.64990825,2,0,1580906985.891075,1580903939.50652,2106,0.4568741,0,0,2639.329,9,7,1580906940.646764,10700.445688,0,23.05688,96.93557
1580906987.910839,138,0,1580906986.998054,41.20960427437978,29.07526655540382,156.9241,-1,-1,15.07179069519043,48.00724964208526,-9999,10703.700206875,0.967681884765625,0.0878753662109375,-0.1386871337890625,10703.695141875,1.347392322714468,1.429991426293497,-0.09360955198527793,-0.001602975651621819,0.0106633510440588,-0.004166501108556986,-0.02276420593261719,-0.006150364875793457,-0.002381324768066406,2,0.4361864570368667,-0.4897739840391191,-0.4465996286862475,-0.6086143314491629,0.9857683777809143,0.09347289800643921,-0.1397256404161453,46.77298736572266,-11.42208671569824,0.44757080078125,2,10701.64990825,2,0,1580906985.891075,1580903939.50652,2106,0.4568741,0,0,2639.329,9,7,1580906940.646764,10700.445688,0,23.05688,96.93557
1580906987.920878,139,0,1580906986.998054,41.20960427437978,29.07526655540382,156.9241,-1,-1,15.07179069519043,48.00724964208526,-9999,10703.710247875,0.9696197509765625,0.0875701904296875,-0.1387939453125,10703.705211875,1.347392840210212,1.430088611024325,-0.09364633263366084,-0.0001869555562734604,0.01044901832938194,-0.004212793428450823,-0.02123332023620605,-0.006064891815185547,-0.001546859741210938,2,0.4362187110046264,-0.4897943908966566,-0.4465688100948796,-0.608597593220096,0.9857786893844604,0.09350951761007309,-0.1396293789148331,46.77298736572266,-11.42208671569824,0.44757080078125,2,10701.64990825,2,0,1580906985.891075,1580903939.50652,2106,0.4568741,0,0,2639.329,9,7,1580906940.646764,10700.445688,0,23.05688,96.93557
1580906987.930999,140,0,1580906986.998054,41.20960427437978,29.07526655540382,156.9241,-1,-1,15.07179069519043,48.00724964208526,-9999,10703.720287875,0.970794677734375,0.087310791015625,-0.1377105712890625,10703.715252875,1.347406236626135,1.430144091739187,-0.09368040112830765,-0.0006511444225907326,0.005581026896834373,-0.004164323676377535,-0.01937639713287354,-0.005976855754852295,-0.001556515693664551,2,0.4362441449329388,-0.4897998937297477,-0.4465516592643817,-0.6085873637963813,0.9857831597328186,0.09354344010353088,-0.1395742148160934,46.86278533935547,-11.36007499694824,0.51239013671875,2,10701.64990825,2,0,1580906985.891075,1580903939.50652,2106,0.4568741,0,0,2639.329,9,7,1580906940.646764,10700.445688,0,23.05688,96.93557
1580906987.958254,141,0,1580906986.998054,41.20960427437978,29.07526655540382,156.9241,-1,-1,15.07179069519043,48.00724964208526,-9999,10703.730327875,0.9692535400390625,0.0872802734375,-0.1389923095703125,10703.725292875,1.347410927289522,1.43020454974219,-0.09371428498931197,-0.001932131126523018,0.007185643538832664,-0.004254826344549656,-0.01707768440246582,-0.006590545177459717,-0.0001518726348876953,2,0.4362684420669864,-0.4898088966547191,-0.4465308604226031,-0.6085779968599705,0.9857884645462036,0.09357717633247375,-0.1395141780376434,46.86278533935547,-11.36007499694824,0.51239013671875,2,10701.64990825,2,0,1580906985.891075,1580903939.50652,2106,0.4568741,0,0,2639.329,9,7,1580906940.646764,10700.445688,0,23.05688,96.93557
1580906987.95974,142,0,1580906986.998054,41.20960427437978,29.07526655540382,156.9241,-1,-1,15.07179069519043,48.00724964208526,-9999,10703.740368875,0.967926025390625,0.0869140625,-0.1403656005859375,10703.735332875,1.347438966242588,1.430289885922592,-0.0937363197812099,-0.002926821354776621,0.008636001497507095,-0.001499519683420658,-0.01875078678131104,-0.006658285856246948,-0.001731932163238525,2,0.4363006296623233,-0.489823307462686,-0.4465149028249207,-0.6085550742377431,0.9857983589172363,0.0935991108417511,-0.1394297778606415,46.80979156494141,-11.43055152893066,0.5130615234375,2,10701.64990825,2,0,1580906985.891075,1580903939.50652,2106,0.4568741,0,0,2639.329,9,7,1580906940.646764,10700.445688,0,23.05688,96.93557
1580906987.961109,143,0,1580906986.998054,41.20960427437978,29.07526655540382,156.9241,-1,-1,15.07179069519043,48.00724964208526,-9999,10703.750438875,0.9691162109375,0.0870819091796875,-0.1384124755859375,10703.745372875,1.347458485355848,1.430385163749388,-0.09377631224677528,-0.002535082865506411,0.009325282648205757,-0.004920926876366138,-0.01955389976501465,-0.006820321083068848,-0.002650558948516846,2,0.436338064700004,-0.4898381629289739,-0.446489389933193,-0.6085350510663986,0.9858080148696899,0.09363892674446106,-0.1393353343009949,46.80979156494141,-11.43055152893066,0.5130615234375,2,10701.64990825,2,0,1580906985.891075,1580903939.50652,2106,0.4568741,0,0,2639.329,9,7,1580906940.646764,10700.445688,0,23.05688,96.93557
1580906987.971124,144,0,1580906986.998054,41.20960427437978,29.07526655540382,156.9241,-1,-1,15.07179069519043,48.00724964208526,-9999,10703.760479875,0.9701690673828125,0.0876922607421875,-0.1370849609375,10703.755413875,1.347478695855897,1.430469430474287,-0.09382474005275525,-0.002417104784399271,0.008554829284548759,-0.00556115061044693,-0.0200340747833252,-0.006853371858596802,-0.00235295295715332,2,0.4363756315023418,-0.4898474186149248,-0.4464642240212936,-0.6085191286607985,0.9858152866363525,0.09368713945150375,-0.139251634478569,46.75356292724609,-11.32737922668457,0.56475830078125,2,10701.64990825,2,0,1580906985.891075,1580903939.50652,2106,0.4568741,0,0,2639.329,9,7,1580906940.646764,10700.445688,0,23.05688,96.93557
1580906987.981231,145,0,1580906986.998054,41.20960427437978,29.07526655540382,156.9241,-1,-1,15.07179069519043,48.00724964208526,-9999,10703.770519875,0.9708251953125,0.087646484375,-0.1395263671875,10703.765453875,1.347473713902846,1.430530087495522,-0.09388073984992656,-0.000446319580078125,0.005148421972990036,-0.005935543216764927,-0.01814538240432739,-0.006497234106063843,0.0004244446754455566,2,0.4364039110450885,-0.4898531168800438,-0.4464345225816237,-0.6085160644325545,0.9858185052871704,0.09374289959669113,-0.1391911059617996,46.75356292724609,-11.32737922668457,0.56475830078125,2,10701.64990825,2,0,1580906985.891075,1580903939.50652,2106,0.4568741,0,0,2639.329,9,7,1580906940.646764,10700.445688,0,23.05688,96.93557
1580906987.991184,146,0,1580906986.998054,41.20960427437978,29.07526655540382,156.9241,-1,-1,15.07179069519043,48.00724964208526,-9999,10703.780559875,0.9676666259765625,0.0878143310546875,-0.1395263671875,10703.775493875,1.347487298188914,1.430600242283003,-0.09391910826982047,-0.0006276806816458702,0.006950583308935165,-0.002586085349321365,-0.01735818386077881,-0.006428778171539307,-0.002178549766540527,2,0.4364338940259068,-0.4898619709526571,-0.4464130647665607,-0.6085029947950652,0.9858245253562927,0.09378109872341156,-0.139121413230896,46.84302520751953,-11.34156227111816,0.69207763671875,2,10701.64990825,2,0,1580906985.891075,1580903939.50652,2106,0.4568741,0,0,2639.329,9,7,1580906940.646764,10700.445688,0,23.05688,96.93557
1580906988.011784,147,0,1580906986.998054,41.20960427437978,29.07526655540382,156.9241,-1,-1,15.07179069519043,48.00724964208526,-9999,10703.790600875,0.967376708984375,0.0892486572265625,-0.1372833251953125,10703.785564875,1.347489293978755,1.430646835355833,-0.0939600413666231,-0.001058293506503105,0.003280786797404289,-0.003710688557475805,-0.01945137977600098,-0.006576418876647949,-0.003171205520629883,2,0.4364564294362865,-0.4898656036201381,-0.4463925860144131,-0.6084989927438745,0.9858272671699524,0.09382184594869614,-0.1390749514102936,46.84302520751953,-11.34156227111816,0.69207763671875,2,10701.64990825,2,0,1580906985.891075,1580903939.50652,2106,0.4568741,0,0,2639.329,9,7,1580906940.646764,10700.445688,0,23.05688,96.93557
1580906988.013114,148,0,1580906986.998054,41.20960427437978,29.07526655540382,156.9241,-1,-1,15.07179069519043,48.00724964208526,-9999,10703.800640875,0.9654083251953125,0.088714599609375,-0.1399383544921875,10703.795604875,1.347487615783065,1.430701024435088,-0.09398648300999303,0.001044538803398609,0.005620906129479408,-0.002226509153842926,-0.02079939842224121,-0.005092233419418335,-0.0006310343742370605,2,0.4364756055484823,-0.4898759477910352,-0.4463732153661807,-0.6084912539146878,0.9858325123786926,0.09384817630052567,-0.1390212029218674,46.87694549560547,-11.10027122497559,0.597625732421875,2,10701.64990825,2,0,1580906985.891075,1580903939.50652,2106,0.4568741,0,0,2639.329,9,7,1580906940.646764,10701.390966,0,23.05688,96.93558
1580906988.021346,149,0,1580906986.998054,41.20960427437978,29.07526655540382,156.9241,-1,-1,15.07179069519043,48.00724964208526,-9999,10703.810680875,0.9681549072265625,0.08953857421875,-0.137481689453125,10703.805645875,1.347483374386792,1.430754001630069,-0.0940052342907278,-0.0002035396173596382,0.005068050697445869,-0.002075919881463051,-0.0226207971572876,-0.005339771509170532,-0.00275886058807373,2,0.4364917576458313,-0.4898883396702771,-0.4463553410370447,-0.608482733296779,0.9858380556106567,0.09386684000492096,-0.1389687210321426,46.87694549560547,-11.10027122497559,0.597625732421875,2,10701.64990825,2,0,1580906985.891075,1580903939.50652,2106,0.4568741,0,0,2639.329,9,7,1580906940.646764,10701.390966,0,23.05688,96.93558
1580906988.03157,150,0,1580906986.998054,41.20960427437978,29.07526655540382,156.9241,-1,-1,15.07179069519043,48.00724964208526,-9999,10703.820720875,0.96954345703125,0.0876922607421875,-0.1376800537109375,10703.815685875,1.347493667837015,1.430792262953597,-0.0939994316068152,4.09390777349472e-05,0.004234746098518372,0.0009190710261464119,-0.02100932598114014,-0.004616886377334595,-0.00140833854675293,2,0.4365012027306078,-0.4898991429149011,-0.4463516481339216,-0.6084698518482742,0.9858437776565552,0.09386106580495834,-0.1389310657978058,46.88317108154297,-11.36032295227051,0.5599365234375,2,10701.64990825,2,0,1580906985.891075,1580903939.50652,2106,0.4568741,0,0,2639.329,9,7,1580906940.646764,10701.390966,0,23.05688,96.93558
1580906988.041391,151,0,1580906986.998054,41.20960427437978,29.07526655540382,156.9241,-1,-1,15.07179069519043,48.00724964208526,-9999,10703.830761875,0.97021484375,0.0874176025390625,-0.137603759765625,10703.825725875,1.34748883371065,1.430827019093629,-0.0939906775730692,0.001432845368981361,0.004024526104331017,0.0007750419899821281,-0.0189397931098938,-0.0057373046875,-0.0009084939956665039,2,0.4365052766671512,-0.4899129388306668,-0.4463449321206815,-0.6084607591859394,0.9858494400978088,0.09385234862565994,-0.1388969123363495,46.88317108154297,-11.36032295227051,0.5599365234375,2,10701.64990825,2,0,1580906985.891075,1580903939.50652,2106,0.4568741,0,0,2639.329,9,7,1580906940.646764,10701.390966,0,23.05688,96.93558
1580906988.051609,152,0,1580906986.998054,41.20960427437978,29.07526655540382,156.9241,-1,-1,15.07179069519043,48.00724964208526,-9999,10703.840831875,0.9701385498046875,0.0875701904296875,-0.138336181640625,10703.835766875,1.34750786967034,1.430842004376004,-0.09400391244766973,-0.0009176610037684441,0.001432206481695175,-0.002029798924922943,-0.01823866367340088,-0.006879627704620361,-0.000801384449005127,2,0.4365170571700958,-0.489910069851488,-0.4463439172136346,-0.6084553584425728,0.9858502745628357,0.0938655287027359,-0.1388819664716721,46.97064971923828,-11.2943058013916,0.48748779296875,2,10701.64990825,2,0,1580906985.891075,1580903939.50652,2106,0.4568741,0,0,2639.329,9,7,1580906940.646764,10701.390966,0,23.05688,96.93558
1580906988.076584,153,0,1580906986.998054,41.20960427437978,29.07526655540382,156.9241,-1,-1,15.07179069519043,48.00724964208526,-9999,10703.850872875,0.96990966796875,0.0870361328125,-0.1384429931640625,10703.845806875,1.347500220150617,1.430842132534904,-0.09402825758253963,0.001534353010356426,-6.281211972236633e-05,-0.002354074735194445,-0.01811432838439941,-0.006461411714553833,-0.001396656036376953,2,0.4365220930070038,-0.4899057969250207,-0.4463350953050322,-0.6084618314926941,0.9858481884002686,0.09388976544141769,-0.1388815492391586,46.97064971923828,-11.2943058013916,0.48748779296875,2,10701.64990825,2,0,1580906985.891075,1580903939.50652,2106,0.4568741,0,0,2639.329,9,7,1580906940.646764,10701.390966,0,23.05688,96.93558
1580906988.077903,154,0,1580906986.998054,41.20960427437978,29.07526655540382,156.9241,-1,-1,15.07179069519043,48.00724964208526,-9999,10703.860912875,0.9685821533203125,0.08758544921875,-0.138153076171875,10703.855846875,1.347527239699294,1.430852369880409,-0.09405687347175966,-0.003099814057350159,0.00165971927344799,-0.002152473200112581,-0.01809775829315186,-0.007024019956588745,-0.001483559608459473,2,0.4365391782953736,-0.4898959205754775,-0.4463334214528292,-0.6084586720989049,0.9858468770980835,0.09391824901103973,-0.1388710588216782,46.76564788818359,-11.34322547912598,0.66461181640625,2,10701.64990825,2,0,1580906985.891075,1580903939.50652,2106,0.4568741,0,0,2639.329,9,7,1580906940.646764,10701.390966,0,23.05688,96.93558
1580906988.081801,155,0,1580906986.998054,41.20960427437978,29.07526655540382,156.9241,-1,-1,15.07179069519043,48.00724964208526,-9999,10703.870952875,0.9690704345703125,0.088348388671875,-0.1376953125,10703.865917875,1.347537040523789,1.430847991915929,-0.09407770911619197,-0.000260302796959877,-0.000700090080499649,-0.002171793486922979,-0.01954472064971924,-0.006999015808105469,-0.001708328723907471,2,0.4365465666286635,-0.4898872797020256,-0.4463317772143908,-0.6084614531693724,0.9858442544937134,0.09393899887800217,-0.1388750970363617,46.76564788818359,-11.34322547912598,0.66461181640625,2,10701.64990825,2,0,1580906985.891075,1580903939.50652,2106,0.4568741,0,0,2639.329,9,7,1580906940.646764,10701.390966,0,23.05688,96.93558
1580906988.091636,156,0,1580906986.998054,41.20960427437978,29.07526655540382,156.9241,-1,-1,15.07179069519043,48.00724964208526,-9999,10703.880993875,0.9671478271484375,0.0886993408203125,-0.1381683349609375,10703.875957875,1.347554459123582,1.430826126773664,-0.09410824110653006,-0.0005146348848938942,-0.002846864983439445,-0.004116167314350605,-0.0191725492477417,-0.006052941083908081,-0.001015424728393555,2,0.4365545959428365,-0.4898693148247086,-0.4463337308072409,-0.6084689016026075,0.9858385920524597,0.09396938979625702,-0.1388962715864182,46.64827728271484,-11.43773460388184,0.634674072265625,2,10701.64990825,2,0,1580906985.891075,1580903939.50652,2106,0.4568741,0,0,2639.329,9,7,1580906940.646764,10701.390966,0,23.05688,96.93558
1580906988.102027,157,0,1580906986.998054,41.20960427437978,29.07526655540382,156.9241,-1,-1,15.07179069519043,48.00724964208526,-9999,10703.891033875,0.9675750732421875,0.088348388671875,-0.1390380859375,10703.885997875,1.347562115988118,1.430815754776398,-0.09413288833260447,-0.00127843115478754,-0.001021556556224823,-0.002674699760973454,-0.02048110961914062,-0.00534510612487793,-0.001219391822814941,2,0.4365612240005119,-0.4898583644715913,-0.4463317145177286,-0.6084743095328087,0.9858347177505493,0.09399393200874329,-0.1389061659574509,46.64827728271484,-11.43773460388184,0.634674072265625,2,10701.64990825,2,0,1580906985.891075,1580903939.50652,2106,0.4568741,0,0,2639.329,9,7,1580906940.646764,10701.390966,0,23.05688,96.93558
1580906988.112456,158,0,1580906986.998054,41.20960427437978,29.07526655540382,156.9241,-1,-1,15.07179069519043,48.00724964208526,-9999,10703.90109475,0.968109130859375,0.088592529296875,-0.1387481689453125,10703.89605975,1.347572705212082,1.430844122665337,-0.09415565458293125,0.0002984264865517616,0.004022469744086266,-0.003040085546672344,-0.02121549844741821,-0.006115555763244629,-0.002041161060333252,2,0.4365765915712687,-0.4898590834227081,-0.4463226908344917,-0.6084694593019708,0.9858366847038269,0.09401659667491913,-0.1388779133558273,46.77523040771484,-11.46722984313965,0.539520263671875,2,10701.64990825,2,0,1580906985.891075,1580903939.50652,2106,0.4568741,0,0,2639.329,9,7,1580906940.646764,10701.390966,0,23.05688,96.93558
1580906988.139108,159,0,1580906986.998054,41.20960427437978,29.07526655540382,156.9241,-1,-1,15.07179069519043,48.00724964208526,-9999,10703.91113475,0.969696044921875,0.0879058837890625,-0.1371002197265625,10703.90609975,1.347572012912605,1.430850548391868,-0.09417089722744781,-0.001260825432837009,-0.0002158749848604202,-0.001901702024042606,-0.02036052942276001,-0.005688339471817017,-0.002566814422607422,2,0.4365822684453349,-0.489857374593385,-0.4463169637524526,-0.6084707539307626,0.9858359098434448,0.09403177350759506,-0.138871356844902,46.77523040771484,-11.46722984313965,0.539520263671875,2,10701.64990825,2,0,1580906985.891075,1580903939.50652,2106,0.4568741,0,0,2639.329,9,7,1580906940.646764,10701.390966,0,23.05688,96.93558
1580906988.140485,160,0,1580906986.998054,41.20960427437978,29.07526655540382,156.9241,-1,-1,15.07179069519043,48.00724964208526,-9999,10703.92120575,0.9677886962890625,0.08856201171875,-0.1385955810546875,10703.91613975,1.347581359973061,1.430844646115537,-0.09417908826164528,-0.0003172671422362328,-0.0008989758789539337,-0.0004092669114470482,-0.01884835958480835,-0.006200015544891357,-0.000577390193939209,2,0.4365855802309426,-0.4898515094225455,-0.4463189047627351,-0.6084716594255838,0.9858343005180359,0.0940399244427681,-0.1388770639896393,46.79618072509766,-11.26964378356934,0.50164794921875,2,10701.64990825,2,0,1580906985.891075,1580903939.50652,2106,0.4568741,0,0,2639.329,9,7,1580906940.646764,10701.390966,0,23.05688,96.93558
