loggingTime,loggingSample,identifierForVendor,locationTimestamp_since1970,locationLatitude,locationLongitude,locationAltitude,locationSpeed,locationCourse,locationVerticalAccuracy,locationHorizontalAccuracy,locationFloor,accelerometerTimestamp_sinceReboot,accelerometerAccelerationX,accelerometerAccelerationY,accelerometerAccelerationZ,motionTimestamp_sinceReboot,motionYaw,motionRoll,motionPitch,motionRotationRateX,motionRotationRateY,motionRotationRateZ,motionUserAccelerationX,motionUserAccelerationY,motionUserAccelerationZ,motionAttitudeReferenceFrame,motionQuaternionX,motionQuaternionY,motionQuaternionZ,motionQuaternionW,motionGravityX,motionGravityY,motionGravityZ,motionMagneticFieldX,motionMagneticFieldY,motionMagneticFieldZ,motionMagneticFieldCalibrationAccuracy,activityTimestamp_sinceReboot,activity,activityActivityConfidence,activityActivityStartDate,pedometerStartDate,pedometerNumberofSteps,pedometerAverageActivePace,pedometerCurrentPace,pedometerCurrentCadence,pedometerDistance,pedometerFloorAscended,pedometerFloorDescended,pedometerEndDate,altimeterTimestamp_sinceReboot,altimeterReset,altimeterRelativeAltitude,altimeterPressure
1582550281.470835,1,0,1582550277.367315,41.20729940256221,29.07240360978655,161.2945,-1,-1,17.20949935913086,65,-9999,103169.28744725,0.9049072265625,0.0681304931640625,-0.300933837890625,103169.28241225,1.974481348182786,1.260179589814017,-0.05033800216296395,-0.003287347732111812,0.1498418152332306,-0.04379850625991821,-0.06686574220657349,0.02943828701972961,0.009612798690795898,2,0.5027550779475255,-0.3075840518080893,-0.6658779659124044,-0.4574231587728653,0.9509391784667969,0.05031674727797508,-0.3052587509155273,27.45707702636719,9.026813507080078,-41.00103759765625,2,103168.0226541667,4,1,1582550280.181151,0,0,0,0,0,0,0,0,0,103166.479098,0,-3.178711,99.13481
1582550281.496412,2,0,1582550277.367315,41.20729940256221,29.07240360978655,161.2945,-1,-1,17.20949935913086,65,-9999,103169.29748825,0.892547607421875,0.066253662109375,-0.3209075927734375,103169.29245225,1.974662575732883,1.262021980950405,-0.05062765343766715,-0.02259206958115101,0.1822530329227448,-0.02736706845462322,-0.05104005336761475,0.02135173976421356,0.009351015090942383,2,0.5034587745991752,-0.307860939676184,-0.6654064550154691,-0.4571489907996981,0.9514860510826111,0.05060602724552155,-0.3035018146038055,27.61941528320312,9.030345916748047,-40.9244384765625,2,103168.0226541667,4,1,1582550280.181151,0,0,0,0,0,0,0,0,0,103166.479098,0,-3.178711,99.13481
1582550281.497776,3,0,1582550277.367315,41.20729940256221,29.07240360978655,161.2945,-1,-1,17.20949935913086,65,-9999,103169.30752825,0.9122161865234375,0.074310302734375,-0.309295654296875,103169.30249225,1.9748762195636,1.264252457195555,-0.05085649692907844,-0.02610315755009651,0.2205630242824554,-0.01554305292665958,-0.05800539255142212,0.01385998725891113,-0.01787632703781128,2,0.5042829087919486,-0.3082387322085831,-0.6648541371976056,-0.4567893954362783,0.952149510383606,0.05083457753062248,-0.3013752698898315,27.61941528320312,9.030345916748047,-40.9244384765625,2,103168.0226541667,4,1,1582550280.181151,0,0,0,0,0,0,0,0,0,103166.479098,0,-3.178711,99.13481
1582550281.498829,4,0,1582550277.367315,41.20729940256221,29.07240360978655,161.2945,-1,-1,17.20949935913086,65,-9999,103169.31756825,0.9452667236328125,0.0735015869140625,-0.29901123046875,103169.31253325,1.975086105112654,1.266578223619644,-0.05107005689883848,-0.02483735792338848,0.2366021722555161,-0.01456221006810665,-0.04637962579727173,0.02255783230066299,-0.01327413320541382,2,0.5051341036562046,-0.3086440546500869,-0.664278637069685,-0.45641262453597,0.9528376460075378,0.05104786157608032,-0.2991567552089691,28.01472473144531,9.209110260009766,-40.87298583984375,2,103168.0226541667,4,1,1582550280.181151,0,0,0,0,0,0,0,0,0,103166.479098,0,-3.178711,99.13481
1582550281.499863,5,0,1582550277.367315,41.20729940256221,29.07240360978655,161.2945,-1,-1,17.20949935913086,65,-9999,103169.32760825,0.9836273193359375,0.079498291015625,-0.2821502685546875,103169.32257325,1.9752773819406,1.268596722226773,-0.05123843728740214,-0.02358213998377323,0.2017005681991577,-0.009363399818539619,-0.01605904102325439,0.02208450436592102,-0.00403141975402832,2,0.5058701242274791,-0.3089988396279674,-0.6637831468302742,-0.4560779954791319,0.953431248664856,0.05121602118015289,-0.2972302734851837,28.01472473144531,9.209110260009766,-40.87298583984375,2,103168.0226541667,4,1,1582550280.181151,0,0,0,0,0,0,0,0,0,103166.479098,0,-3.178711,99.13481
1582550281.500966,6,0,1582550277.367315,41.20729940256221,29.07240360978655,161.2945,-1,-1,17.20949935913086,65,-9999,103169.33767925,0.9995880126953125,0.0872955322265625,-0.275115966796875,103169.33261325,1.975416227133137,1.269974431832899,-0.05132559455981085,-0.01484404131770134,0.1384800374507904,-0.001856481190770864,0.02313333749771118,0.02649878710508347,0.01056820154190063,2,0.506367528986746,-0.3092481057191688,-0.6634511086381639,-0.4558399123400029,0.9538354277610779,0.05130306258797646,-0.2959150671958923,28.26699829101562,9.263446807861328,-40.94268798828125,2,103168.0226541667,4,1,1582550280.181151,0,0,0,0,0,0,0,0,0,103166.479098,0,-3.178711,99.13481
1582550281.507918,7,0,1582550277.367315,41.20729940256221,29.07240360978655,161.2945,-1,-1,17.20949935913086,65,-9999,103169.34771925,0.9869384765625,0.084320068359375,-0.276885986328125,103169.34265425,1.975502805769032,1.270718983741176,-0.0513312599594579,-0.008084174245595932,0.07400269061326981,0.003817656543105841,0.04456573724746704,0.0352669358253479,0.0195472240447998,2,0.5066290939172176,-0.3093939246209934,-0.663281307006728,-0.4556974123379134,0.9540552496910095,0.05130872130393982,-0.2952047288417816,28.26699829101562,9.263446807861328,-40.94268798828125,2,103168.0226541667,4,1,1582550280.181151,0,0,0,0,0,0,0,0,0,103166.479098,0,-3.178711,99.13481
1582550281.519228,8,0,1582550277.367315,41.20729940256221,29.07240360978655,161.2945,-1,-1,17.20949935913086,65,-9999,103169.35776025,0.957733154296875,0.076263427734375,-0.2889251708984375,103169.35269425,1.975545972541371,1.271121405347076,-0.05133123356583598,-0.002845736220479012,0.03961275517940521,0.00225145136937499,0.03739756345748901,0.03422937542200089,0.01916342973709106,2,0.5067691688656971,-0.3094747223624738,-0.663189275483789,-0.4556209775983876,0.9541741013526917,0.05130869522690773,-0.2948208153247833,28.28205871582031,9.305629730224609,-40.8255615234375,2,103168.0226541667,4,1,1582550280.181151,0,0,0,0,0,0,0,0,0,103166.479098,0,-3.178711,99.13481
1582550281.537679,9,0,1582550277.367315,41.20729940256221,29.07240360978655,161.2945,-1,-1,17.20949935913086,65,-9999,103169.36780025,0.9404754638671875,0.07354736328125,-0.29376220703125,103169.36273425,1.975576720218962,1.271475175350387,-0.05132892014667566,-0.002306557958945632,0.03631114214658737,0.003136411774903536,0.009125411510467529,0.02646494656801224,0.008144557476043701,2,0.506890781333918,-0.3095482598806325,-0.6631069398368272,-0.4555553186007927,0.954278290271759,0.05130638554692268,-0.2944832146167755,28.28205871582031,9.305629730224609,-40.8255615234375,2,103168.0226541667,4,1,1582550280.181151,0,0,0,0,0,0,0,0,0,103166.479098,0,-3.178711,99.13481
1582550281.538882,10,0,1582550277.367315,41.20729940256221,29.07240360978655,161.2945,-1,-1,17.20949935913086,65,-9999,103169.37784025,0.93280029296875,0.0712127685546875,-0.2941741943359375,103169.37277425,1.97561794485918,1.271837952038014,-0.05134335021949676,-0.003706848248839378,0.03566798567771912,0.0008096080273389816,-0.01223605871200562,0.02216283231973648,0.000367283821105957,2,0.5070204839893598,-0.3096155780511244,-0.6630219832569216,-0.4554891557160577,0.9543845057487488,0.05132079496979713,-0.2941368520259857,28.18307495117188,9.271221160888672,-40.62689208984375,2,103168.0226541667,4,1,1582550280.181151,0,0,0,0,0,0,0,0,0,103166.479098,0,-3.178711,99.13481
1582550281.547592,11,0,1582550277.367315,41.20729940256221,29.07240360978655,161.2945,-1,-1,17.20949935913086,65,-9999,103169.38788125,0.924774169921875,0.0723114013671875,-0.298675537109375,103169.38284525,1.975714956270866,1.272296273892146,-0.05133253316683202,-0.009904263541102409,0.04896099865436554,0.005535486154258251,-0.02004659175872803,0.02075454592704773,0.0002502202987670898,2,0.5071851622254114,-0.3096989773969051,-0.6629296322010148,-0.455383245718639,0.9545195698738098,0.05130999162793159,-0.2936995029449463,28.18307495117188,9.271221160888672,-40.62689208984375,2,103168.0226541667,4,1,1582550280.181151,0,0,0,0,0,0,0,0,0,103166.479098,0,-3.178711,99.13481
1582550281.557841,12,0,1582550277.367315,41.20729940256221,29.07240360978655,161.2945,-1,-1,17.20949935913086,65,-9999,103169.39792125,0.927642822265625,0.07501220703125,-0.29388427734375,103169.39288525,1.975844953317398,1.272841322221246,-0.05125434259447272,-0.00942516140639782,0.05701413750648499,0.01428237278014421,-0.0292588472366333,0.01984079927206039,-0.005411148071289062,2,0.5073691353254383,-0.3098166649965712,-0.6628344487392447,-0.4552368178911703,0.9546833634376526,0.05123190581798553,-0.293180376291275,28.19479370117188,9.296550750732422,-40.687255859375,2,103168.0226541667,4,1,1582550280.181151,0,0,0,0,0,0,0,0,0,103166.479098,0,-3.178711,99.13481
1582550281.5678,13,0,1582550277.367315,41.20729940256221,29.07240360978655,161.2945,-1,-1,17.20949935913086,65,-9999,103169.40796125,0.936187744140625,0.074432373046875,-0.290191650390625,103169.40292625,1.975992875129326,1.27339622056366,-0.05117131731943656,-0.01259085908532143,0.05696995556354523,0.01289238408207893,-0.02800649404525757,0.02419620007276535,-0.002537131309509277,2,0.5075580974446345,-0.309933631429312,-0.6627416197550763,-0.455081718074763,0.9548500180244446,0.05114898830652237,-0.2926518321037292,28.19479370117188,9.296550750732422,-40.687255859375,2,103168.0226541667,4,1,1582550280.181151,0,0,0,0,0,0,0,0,0,103166.479098,0,-3.178711,99.13481
1582550281.579004,14,0,1582550277.367315,41.20729940256221,29.07240360978655,161.2945,-1,-1,17.20949935913086,65,-9999,103169.41800125,0.9478302001953125,0.0753936767578125,-0.2845306396484375,103169.41296625,1.976118594211512,1.273833144827122,-0.05108194138801584,-0.009098922833800316,0.04246132075786591,0.01436378061771393,-0.02127230167388916,0.0228511318564415,0.001105606555938721,2,0.5077031709288408,-0.3100314789408137,-0.6626746908678002,-0.4549506330025106,0.9549821019172668,0.05105973035097122,-0.292235940694809,28.34989929199219,9.337528228759766,-40.64239501953125,2,103168.0226541667,4,1,1582550280.181151,0,0,0,0,0,0,0,0,0,103166.479098,0,-3.178711,99.13481
1582550281.602415,15,0,1582550277.367315,41.20729940256221,29.07240360978655,161.2945,-1,-1,17.20949935913086,65,-9999,103169.42804225,0.944793701171875,0.0714263916015625,-0.2867889404296875,103169.42300625,1.976217543666757,1.274139892076571,-0.05105634331640156,-0.008238678798079491,0.0271101463586092,0.007651799824088812,-0.00872880220413208,0.02508924901485443,0.006748974323272705,2,0.5078146034485549,-0.3100848606803514,-0.6626238010813389,-0.4548642155013078,0.9550731182098389,0.05103416368365288,-0.2919434010982513,28.34989929199219,9.337528228759766,-40.64239501953125,2,103168.0226541667,4,1,1582550280.181151,0,0,0,0,0,0,0,0,0,103166.479098,0,-3.178711,99.13481
1582550281.60369,16,0,1582550277.367315,41.20729940256221,29.07240360978655,161.2945,-1,-1,17.20949935913086,65,-9999,103169.43808225,0.9392852783203125,0.070220947265625,-0.287353515625,103169.43304725,1.976260732253811,1.274378851441311,-0.05110680413720137,-0.002954168478026986,0.02144001238048077,-0.001423987094312906,-0.008750200271606445,0.02084268629550934,0.005787432193756104,2,0.5079113319631551,-0.3101110731658496,-0.6625642035479961,-0.4548250085048364,0.9551402926445007,0.05108455941081047,-0.2917144000530243,28.48423767089844,9.262966156005859,-40.90771484375,2,103168.0226541667,4,1,1582550280.181151,0,0,0,0,0,0,0,0,0,103166.479098,0,-3.178711,99.13481
1582550281.608174,17,0,1582550277.367315,41.20729940256221,29.07240360978655,161.2945,-1,-1,17.20949935913086,65,-9999,103169.44812225,0.928680419921875,0.0715179443359375,-0.2900390625,103169.44308725,1.976297422610197,1.274592931250714,-0.0512380155687745,-0.007162307389080524,0.01864815689623356,-0.009761882945895195,-0.01478767395019531,0.01929256319999695,0.003963649272918701,2,0.5080160986205251,-0.3101058825214068,-0.6624955951367242,-0.4548115332103218,0.9551963210105896,0.05121560022234917,-0.2915079593658447,28.48423767089844,9.262966156005859,-40.90771484375,2,103168.0226541667,4,1,1582550280.181151,0,0,0,0,0,0,0,0,0,103166.479098,0,-3.178711,99.13481
1582550281.618082,18,0,1582550277.367315,41.20729940256221,29.07240360978655,161.2945,-1,-1,17.20949935913086,65,-9999,103169.45819325,0.9358367919921875,0.0759735107421875,-0.292999267578125,103169.45312725,1.976302747394809,1.274912382929047,-0.05137742414388517,-0.003324159421026707,0.03373416513204575,-0.01220746338367462,-0.0246090292930603,0.01944323629140854,0.002283096313476562,2,0.5081526665388771,-0.3101298204329952,-0.6623916215452137,-0.4547940450513097,0.9552825093269348,0.05135482549667358,-0.29120072722435,28.40451049804688,9.183872222900391,-40.55511474609375,2,103168.0226541667,4,1,1582550280.181151,0,0,0,0,0,0,0,0,0,103166.479098,0,-3.178711,99.13481
1582550281.62805,19,0,1582550277.367315,41.20729940256221,29.07240360978655,161.2945,-1,-1,17.20949935913086,65,-9999,103169.46823325,0.95440673828125,0.07891845703125,-0.2859649658203125,103169.46316725,1.976296982390715,1.275162543720939,-0.05151115072143042,-0.003250622889026999,0.02493076957762241,-0.01271302625536919,-0.02314925193786621,0.02330750972032547,-0.002413332462310791,2,0.5082633036036163,-0.310142770961841,-0.6623037254591424,-0.4547896688526292,0.955348789691925,0.05148837342858315,-0.2909597456455231,28.40451049804688,9.183872222900391,-40.55511474609375,2,103168.0226541667,4,1,1582550280.181151,0,0,0,0,0,0,0,0,0,103166.479098,0,-3.178711,99.13481
1582550281.639451,20,0,1582550277.367315,41.20729940256221,29.07240360978655,161.2945,-1,-1,17.20949935913086,65,-9999,103169.47827425,0.963226318359375,0.07763671875,-0.2837982177734375,103169.47320825,1.976266647676197,1.275219018830421,-0.05163472389849968,-0.001091598183847964,0.006473464891314507,-0.01194124203175306,-0.003994584083557129,0.02718187123537064,0.003496885299682617,2,0.5083038392320172,-0.3101213407546857,-0.6622611384230824,-0.4548208879714221,0.9553591012954712,0.05161178112030029,-0.2909039258956909,28.42449951171875,9.325107574462891,-40.90826416015625,2,103168.0226541667,4,1,1582550280.181151,0,0,0,0,0,0,0,0,0,103166.479098,0,-3.178711,99.13481
1582550281.664927,21,0,1582550277.367315,41.20729940256221,29.07240360978655,161.2945,-1,-1,17.20949935913086,65,-9999,103169.48831425,0.974029541015625,0.081573486328125,-0.2781219482421875,103169.48324825,1.976189667732286,1.274969615489817,-0.05173506625586145,0.005814603064209223,-0.02265210822224617,-0.01050572004169226,0.006611406803131104,0.0257846787571907,0.007105827331542969,2,0.5082308367865805,-0.3100501163361104,-0.6622897376489406,-0.4549094407397798,0.9552815556526184,0.05171199142932892,-0.2911406755447388,28.42449951171875,9.325107574462891,-40.90826416015625,2,103168.0226541667,4,1,1582550280.181151,0,0,0,0,0,0,0,0,0,103166.479098,0,-3.178711,99.13481
1582550281.666647,22,0,1582550277.367315,41.20729940256221,29.07240360978655,161.2945,-1,-1,17.20949935913086,65,-9999,103169.49835425,0.9701690673828125,0.078582763671875,-0.2772369384765625,103169.49328825,1.976064488514965,1.274308379989892,-0.05183465972570474,0.009824258275330067,-0.06429622322320938,-0.01165087893605232,0.0163305401802063,0.02917946130037308,0.0121610164642334,2,0.5080138231964358,-0.3098976664744857,-0.6624120943060573,-0.4550775534391774,0.955083966255188,0.05181144922971725,-0.2917707860469818,28.44877624511719,9.127170562744141,-40.7518310546875,2,103168.0226541667,4,1,1582550280.181151,0,0,0,0,0,0,0,0,0,103166.479098,0,-3.178711,99.13481
1582550281.668294,23,0,1582550277.367315,41.20729940256221,29.07240360978655,161.2945,-1,-1,17.20949935913086,65,-9999,103169.50839525,0.945343017578125,0.0734405517578125,-0.283233642578125,103169.50335925,1.975899275416581,1.273377910676149,-0.05194129626826481,0.01319986768066883,-0.09207457304000854,-0.01265167072415352,0.01840811967849731,0.02785225957632065,0.01622158288955688,2,0.5077029190402993,-0.3096916115572131,-0.6625923749899278,-0.4553022323921344,0.9548067450523376,0.05191794410347939,-0.2926577031612396,28.44877624511719,9.127170562744141,-40.7518310546875,2,103168.0226541667,4,1,1582550280.181151,0,0,0,0,0,0,0,0,0,103166.479098,0,-3.178711,99.13481
1582550281.678346,24,0,1582550277.367315,41.20729940256221,29.07240360978655,161.2945,-1,-1,17.20949935913086,65,-9999,103169.51843525,0.9134674072265625,0.0700225830078125,-0.28973388671875,103169.51339925,1.97572507794306,1.272411011032583,-0.05209481455628306,0.01160037331283092,-0.0972038209438324,-0.01839877106249332,-0.003716051578521729,0.02232785522937775,0.01169502735137939,2,0.5073885392283384,-0.3094634870500227,-0.662771670972917,-0.4555468676935087,0.9545157551765442,0.05207125470042229,-0.2935784459114075,28.31723022460938,9.108158111572266,-40.7120361328125,2,103168.0226541667,4,1,1582550280.181151,0,0,0,0,0,0,0,0,0,103166.479098,0,-3.178711,99.13481
1582550281.688354,25,0,1582550277.367315,41.20729940256221,29.07240360978655,161.2945,-1,-1,17.20949935913086,65,-9999,103169.52847525,0.8839874267578125,0.067962646484375,-0.2996063232421875,103169.52344025,1.97553585821049,1.271689942113531,-0.05228940800660579,0.01481923647224903,-0.07115516811609268,-0.02492771483957767,-0.03408831357955933,0.01822724193334579,0.005956470966339111,2,0.5071620797576233,-0.309281078986845,-0.6628780002586835,-0.4557683311714997,0.9542942047119141,0.05226558446884155,-0.2942636907100677,28.31723022460938,9.108158111572266,-40.7120361328125,2,103168.0226541667,4,1,1582550280.181151,0,0,0,0,0,0,0,0,0,103166.479098,0,-3.178711,99.13481
1582550281.69918,26,0,1582550277.367315,41.20729940256221,29.07240360978655,161.2945,-1,-1,17.20949935913086,65,-9999,103169.53851525,0.8758544921875,0.07257080078125,-0.3058319091796875,103169.53348025,1.975431375089705,1.271411632113421,-0.05242921818376242,0.005521874409168959,-0.02541537769138813,-0.01495231315493584,-0.06558519601821899,0.01596663147211075,-0.002661049365997314,2,0.50708378913128,-0.3091965552298497,-0.6629005797735813,-0.4558796426482825,0.9542050957679749,0.05240520089864731,-0.2945270538330078,28.21885681152344,9.250621795654297,-40.683349609375,2,103168.0226541667,4,1,1582550280.181151,0,0,0,0,0,0,0,0,0,103166.479098,0,-3.178711,99.13481
1582550281.716981,27,0,1582550277.367315,41.20729940256221,29.07240360978655,161.2945,-1,-1,17.20949935913086,65,-9999,103169.54855625,0.873046875,0.069580078125,-0.3077392578125,103169.54352025,1.975398597405746,1.271623301907717,-0.05253405780390252,-0.000631113420240581,0.02020830847322941,-0.009874017909169197,-0.07835286855697632,0.01871532201766968,-0.01151639223098755,2,0.5071714233223735,-0.3092174559767944,-0.6628213560634368,-0.4558831025347249,0.9542621374130249,0.05250989645719528,-0.2943234145641327,28.21885681152344,9.250621795654297,-40.683349609375,2,103168.0226541667,4,1,1582550280.181151,0,0,0,0,0,0,0,0,0,103166.479098,0,-3.178711,99.13481
1582550281.718406,28,0,1582550277.367315,41.20729940256221,29.07240360978655,161.2945,-1,-1,17.20949935913086,65,-9999,103169.55859625,0.875335693359375,0.0665283203125,-0.3123016357421875,103169.55356125,1.97543096830769,1.272487718398344,-0.05265995420822852,-0.006378481164574623,0.0863063707947731,-0.009276671335101128,-0.08040106296539307,0.01831496506929398,-0.01333498954772949,2,0.5074898533348877,-0.30936350465754,-0.6625878623181882,-0.4557693348020965,0.9545100331306458,0.05263561755418777,-0.2934965491294861,28.15577697753906,9.065181732177734,-40.7264404296875,2,103168.0226541667,4,1,1582550280.181151,0,0,0,0,0,0,0,0,0,103166.479098,0,-3.178711,99.13481
1582550281.728354,29,0,1582550277.367315,41.20729940256221,29.07240360978655,161.2945,-1,-1,17.20949935913086,65,-9999,103169.56866725,0.8925628662109375,0.06689453125,-0.3072052001953125,103169.56360125,1.975517377492526,1.273956923347208,-0.05285590218985179,-0.01430843491107225,0.1469772458076477,-0.01478772424161434,-0.08162993192672729,0.01361793279647827,-0.01979142427444458,2,0.5080319260614898,-0.309609687735816,-0.6622007102365575,-0.4555607444277862,0.9549302458763123,0.05283129587769508,-0.2920908033847809,28.15577697753906,9.065181732177734,-40.7264404296875,2,103168.0226541667,4,1,1582550280.181151,0,0,0,0,0,0,0,0,0,103166.479098,0,-3.178711,99.13481
1582550281.738376,30,0,1582550277.367315,41.20729940256221,29.07240360978655,161.2945,-1,-1,17.20949935913086,65,-9999,103169.57870725,0.926513671875,0.07427978515625,-0.294097900390625,103169.57364125,1.975611285222592,1.275770660141396,-0.05308733838143484,-0.015037608332932,0.1837770640850067,-0.01892681047320366,-0.06745219230651855,0.0135393813252449,-0.01893353462219238,2,0.5086964583020273,-0.309920209824968,-0.6617210845206388,-0.4553048024545929,0.9554466605186462,0.05306240543723106,-0.2903547585010529,28.23442077636719,9.107807159423828,-40.50933837890625,2,103168.0226541667,4,1,1582550280.181151,0,0,0,0,0,0,0,0,0,103166.479098,0,-3.178711,99.13481
1582550281.748418,31,0,1582550277.367315,41.20729940256221,29.07240360978655,161.2945,-1,-1,17.20949935913086,65,-9999,103169.58874725,0.953094482421875,0.0832977294921875,-0.2827301025390625,103169.58368125,1.975687843457758,1.277518030058277,-0.05328418074819921,-0.01262025162577629,0.1723743677139282,-0.01553232595324516,-0.03700309991836548,0.01859183609485626,-0.008033156394958496,2,0.5093284318452396,-0.3102316109970337,-0.661259809751667,-0.4550564364456933,0.9559426307678223,0.05325897037982941,-0.2886818051338196,28.23442077636719,9.107807159423828,-40.50933837890625,2,103168.0226541667,4,1,1582550280.181151,0,0,0,0,0,0,0,0,0,103166.479098,0,-3.178711,99.13481
1582550281.766637,32,0,1582550277.367315,41.20729940256221,29.07240360978655,161.2945,-1,-1,17.20949935913086,65,-9999,103169.59878825,0.955291748046875,0.0821380615234375,-0.278533935546875,103169.59372225,1.975728107819303,1.279084335651907,-0.05343065636806257,-0.008395146578550339,0.1544068306684494,-0.01136687584221363,-0.00691378116607666,0.02895887196063995,0.002490639686584473,2,0.5098837881883271,-0.3105279208970383,-0.6608444687307706,-0.4548355585582798,0.9563860297203064,0.05340523645281792,-0.2871818542480469,28.64915466308594,9.459400177001953,-40.60418701171875,2,103168.0226541667,4,1,1582550280.181151,0,0,0,0,0,0,0,0,0,103166.479098,0,-3.178711,99.13481
1582550281.7686,33,0,1582550277.367315,41.20729940256221,29.07240360978655,161.2945,-1,-1,17.20949935913086,65,-9999,103169.60882825,0.9477081298828125,0.081939697265625,-0.2767486572265625,103169.60376225,1.975711950746923,1.280436189970598,-0.05353109964512202,0.0004366892389953136,0.1331550180912018,-0.01013287343084812,-0.0006275177001953125,0.02911800146102905,0.007101595401763916,2,0.5103492855460232,-0.3108053996882794,-0.6604786817976029,-0.4546554992355228,0.9567683935165405,0.05350553616881371,-0.285887211561203,28.64915466308594,9.459400177001953,-40.60418701171875,2,103168.0226541667,4,1,1582550280.181151,0,0,0,0,0,0,0,0,0,103166.479098,0,-3.178711,99.13481
1582550281.778602,34,0,1582550277.367315,41.20729940256221,29.07240360978655,161.2945,-1,-1,17.20949935913086,65,-9999,103169.61886825,0.9275360107421875,0.07781982421875,-0.28436279296875,103169.61380225,1.975681206969873,1.281749089868476,-0.05361321036001378,0.0003884860780090094,0.1285733133554459,-0.008198886178433895,-0.006994664669036865,0.02847141027450562,0.007796645164489746,2,0.5107955827943811,-0.3110837664339143,-0.6601221909959927,-0.4544813429903933,0.9571385383605957,0.05358752980828285,-0.2846295237541199,28.63587951660156,9.254131317138672,-40.3809814453125,2,103168.0226541667,4,1,1582550280.181151,0,0,0,0,0,0,0,0,0,103166.479098,0,-3.178711,99.13481
1582550281.788817,35,0,1582550277.367315,41.20729940256221,29.07240360978655,161.2945,-1,-1,17.20949935913086,65,-9999,103169.62890825,0.8998870849609375,0.06640625,-0.2962493896484375,103169.62387325,1.975628274509858,1.283435114951177,-0.05377642918659423,0.000597046222537756,0.1696190237998962,-0.01574930176138878,-0.02498197555541992,0.02540923655033112,0.001220881938934326,2,0.51137851199597,-0.3114250610644326,-0.6596510134438293,-0.454276252266812,0.957608699798584,0.05375051498413086,-0.2830128967761993,28.63587951660156,9.254131317138672,-40.3809814453125,2,103168.0226541667,4,1,1582550280.181151,0,0,0,0,0,0,0,0,0,103166.479098,0,-3.178711,99.13481
1582550281.798708,36,0,1582550277.367315,41.20729940256221,29.07240360978655,161.2945,-1,-1,17.20949935913086,65,-9999,103169.63894925,0.8923187255859375,0.0668182373046875,-0.296112060546875,103169.63391325,1.97561715438086,1.285617458898045,-0.05405092102365536,-0.006537828594446182,0.2190837562084198,-0.02615373954176903,-0.05367463827133179,0.01431666314601898,-0.01445430517196655,2,0.5121548529169014,-0.3118305352824181,-0.659042376111314,-0.4540069060554077,0.9582099318504333,0.05402460694313049,-0.2809182405471802,28.74652099609375,9.230792999267578,-40.30938720703125,2,103169.62951925,4,1,1582550281.788016,0,0,0,0,0,0,0,0,0,103166.479098,0,-3.178711,99.13481
1582550281.808811,37,0,1582550277.367315,41.20729940256221,29.07240360978655,161.2945,-1,-1,17.20949935913086,65,-9999,103169.64898925,0.910430908203125,0.071075439453125,-0.2886962890625,103169.64395425,1.975650355306843,1.28824303325375,-0.05437467471156401,-0.01073932461440563,0.2665597796440125,-0.02957481145858765,-0.06751465797424316,0.01138410717248917,-0.01808995008468628,2,0.5130938129971871,-0.3123082920409914,-0.6583205654693587,-0.4536654074158717,0.95892733335495,0.05434788390994072,-0.2783965468406677,28.74652099609375,9.230792999267578,-40.30938720703125,2,103169.62951925,4,1,1582550281.788016,0,0,0,0,0,0,0,0,0,103166.479098,0,-3.178711,99.13481
1582550281.827174,38,0,1582550277.367315,41.20729940256221,29.07240360978655,161.2945,-1,-1,17.20949935913086,65,-9999,103169.65902925,0.925537109375,0.0719451904296875,-0.2808380126953125,103169.65399425,1.975736168729606,1.291103992529851,-0.05474773235278012,-0.01815063506364822,0.2876543998718262,-0.03263744711875916,-0.05394464731216431,0.01604697853326797,-0.01510328054428101,2,0.5141278727586244,-0.3128088373967918,-0.6575401989440588,-0.4532813548289057,0.9597002863883972,0.05472038686275482,-0.2756463289260864,29.13737487792969,9.496883392333984,-40.261962890625,2,103169.62951925,4,1,1582550281.788016,0,0,0,0,0,0,0,0,0,103166.479098,0,-3.178711,99.13481
1582550281.828841,39,0,1582550277.367315,41.20729940256221,29.07240360978655,161.2945,-1,-1,17.20949935913086,65,-9999,103169.66907025,0.924560546875,0.0770263671875,-0.2764739990234375,103169.66403425,1.975868783081268,1.294128847485641,-0.05512146071437881,-0.02266637422144413,0.3017017841339111,-0.0327811986207962,-0.03639793395996094,0.01675716787576675,-0.009056270122528076,2,0.5152220282529337,-0.3133337214957154,-0.6567264395692005,-0.4528558608845433,0.9605098962783813,0.05509355291724205,-0.2727364897727966,29.33367919921875,9.330654144287109,-40.0970458984375,2,103169.62951925,4,1,1582550281.788016,0,0,0,0,0,0,0,0,0,103166.479098,0,-3.178711,99.13481
1582550281.839056,40,0,1582550277.367315,41.20729940256221,29.07240360978655,161.2945,-1,-1,17.20949935913086,65,-9999,103169.67911025,0.91656494140625,0.079345703125,-0.27642822265625,103169.67407425,1.976039699927768,1.29735196225949,-0.05541010222542753,-0.02211936190724373,0.3207425773143768,-0.02095143683254719,-0.03615796566009521,0.01987168192863464,-0.007580220699310303,2,0.5163677873645635,-0.3139217006105536,-0.6558833471786022,-0.4523653444536905,0.9613686800003052,0.05538175255060196,-0.2696349620819092,29.33367919921875,9.330654144287109,-40.0970458984375,2,103169.62951925,4,1,1582550281.788016,0,0,0,0,0,0,0,0,0,103166.479098,0,-3.178711,99.13481
1582550281.84887,41,0,1582550277.367315,41.20729940256221,29.07240360978655,161.2945,-1,-1,17.20949935913086,65,-9999,103169.68918125,0.8993377685546875,0.069488525390625,-0.281036376953125,103169.68411525,1.976308423874783,1.300947059641556,-0.05572429679968572,-0.03493044897913933,0.3551119565963745,-0.02288764342665672,-0.04316222667694092,0.02497479319572449,-0.01009702682495117,2,0.5176547561232032,-0.3145590116433726,-0.6549595973305632,-0.4517898694002485,0.9623150229454041,0.05569546297192574,-0.2661723494529724,29.51162719726562,9.313861846923828,-39.9375,2,103169.62951925,4,1,1582550281.788016,0,0,0,0,0,0,0,0,0,103166.479098,0,-3.178711,99.13481
1582550281.85906,42,0,1582550277.367315,41.20729940256221,29.07240360978655,161.2945,-1,-1,17.20949935913086,65,-9999,103169.69922125,0.8901214599609375,0.070068359375,-0.279693603515625,103169.69415525,1.976657623602229,1.305096420826184,-0.05605401504200904,-0.0407278835773468,0.4119701981544495,-0.02207884192466736,-0.06064397096633911,0.01475789397954941,-0.01774424314498901,2,0.5191372165479828,-0.3152941676668074,-0.6539049208368968,-0.451103741082239,0.96339350938797,0.05602466687560081,-0.2621722817420959,29.51162719726562,9.313861846923828,-39.9375,2,103169.62951925,4,1,1582550281.788016,0,0,0,0,0,0,0,0,0,103166.479098,0,-3.178711,99.13481
1582550281.86897,43,0,1582550277.367315,41.20729940256221,29.07240360978655,161.2945,-1,-1,17.20949935913086,65,-9999,103169.70926125,0.894256591796875,0.070709228515625,-0.2740631103515625,103169.70419525,1.977107793501869,1.309793831528876,-0.05639309191637724,-0.05099901556968689,0.4656656980514526,-0.02023025043308735,-0.07397723197937012,0.0133054330945015,-0.02299493551254272,2,0.5208143198721592,-0.3161217196711688,-0.6527252062430418,-0.4502990970815638,0.9645959138870239,0.05636320635676384,-0.2576389908790588,29.91140747070312,9.177082061767578,-39.56378173828125,2,103169.62951925,4,1,1582550281.788016,0,0,0,0,0,0,0,0,0,103166.479098,0,-3.178711,99.13481
1582550281.886765,44,0,1582550277.367315,41.20729940256221,29.07240360978655,161.2945,-1,-1,17.20949935913086,65,-9999,103169.71930225,0.902252197265625,0.07208251953125,-0.26959228515625,103169.71423625,1.977648918753484,1.31505618826751,-0.05672950615997091,-0.06034724414348602,0.5249972343444824,-0.01697107404470444,-0.07289063930511475,0.01394609361886978,-0.0226934552192688,2,0.522686520574271,-0.3170512668498293,-0.6514145243201274,-0.4493732521886722,0.9659199118614197,0.05669908225536346,-0.2525545954704285,29.91140747070312,9.177082061767578,-39.56378173828125,2,103169.62951925,4,1,1582550281.788016,0,0,0,0,0,0,0,0,0,103166.479098,0,-3.178711,99.13481
1582550281.889288,45,0,1582550277.367315,41.20729940256221,29.07240360978655,161.2945,-1,-1,17.20949935913086,65,-9999,103169.72934225,0.91009521484375,0.0702972412109375,-0.263671875,103169.72427625,1.978267621741642,1.320783223474409,-0.05710313861495352,-0.06675068289041519,0.5671956539154053,-0.0186730045825243,-0.06664073467254639,0.01470218598842621,-0.02391666173934937,2,0.5247264600873608,-0.3180494573554787,-0.6499874043405668,-0.448355885007824,0.9673298597335815,0.05707211047410965,-0.2470133751630783,30.24754333496094,9.573184967041016,-39.27008056640625,2,103169.62951925,4,1,1582550281.788016,0,0,0,0,0,0,0,0,0,103166.479098,0,-3.178711,99.13481
1582550281.899079,46,0,1582550277.367315,41.20729940256221,29.07240360978655,161.2945,-1,-1,17.20949935913086,65,-9999,103169.73938225,0.9108428955078125,0.0667877197265625,-0.2554168701171875,103169.73434725,1.978945443458839,1.327082380777977,-0.05763735086369198,-0.0759337916970253,0.6259348392486572,-0.03428685292601585,-0.06070166826248169,0.01351270824670792,-0.02358335256576538,2,0.5269908221286813,-0.319103098694887,-0.648387780713708,-0.4472663695796142,0.9688369631767273,0.05760544538497925,-0.2409077733755112,30.24754333496094,9.573184967041016,-39.27008056640625,2,103169.62951925,4,1,1582550281.788016,0,0,0,0,0,0,0,0,0,103166.479098,0,-3.178711,99.13481
1582550281.909704,47,0,1582550277.367315,41.20729940256221,29.07240360978655,161.2945,-1,-1,17.20949935913086,65,-9999,103169.74942225,0.9083099365234375,0.0687103271484375,-0.2509307861328125,103169.74438725,1.979670339131854,1.333949544220664,-0.05830376564434733,-0.08694096654653549,0.6818893551826477,-0.05003848299384117,-0.05863356590270996,0.009505704045295715,-0.02274423837661743,2,0.5294688119303982,-0.3202230723806701,-0.6466167440104246,-0.4461017619663809,0.9704309701919556,0.05827073752880096,-0.2342399209737778,30.88978576660156,9.640254974365234,-38.90643310546875,2,103169.62951925,4,1,1582550281.788016,0,0,0,0,0,0,0,0,0,103166.479098,0,-3.178711,99.13481
1582550281.919203,48,0,1582550277.367315,41.20729940256221,29.07240360978655,161.2945,-1,-1,17.20949935913086,65,-9999,103169.75946325,0.9250946044921875,0.0865478515625,-0.2350616455078125,103169.75442725,1.980482703145981,1.341282026832666,-0.05871258902803335,-0.08758385479450226,0.7308595180511475,-0.02007286064326763,-0.06474226713180542,0.007983662188053131,-0.02482146024703979,2,0.5320512743858056,-0.3215045065655219,-0.6447783541948254,-0.4447664903909356,0.9720991253852844,0.05867886170744896,-0.2271125912666321,30.88978576660156,9.640254974365234,-38.90643310546875,2,103169.62951925,4,1,1582550281.788016,0,0,0,0,0,0,0,0,0,103166.479098,0,-3.178711,99.13481
1582550281.92919,49,0,1582550277.367315,41.20729940256221,29.07240360978655,161.2945,-1,-1,17.20949935913086,65,-9999,103169.76950325,0.9232330322265625,0.0872802734375,-0.220733642578125,103169.76446825,1.981403204357438,1.348742934334203,-0.05881667695486716,-0.09177054464817047,0.7374579310417175,0.01333579421043396,-0.05183160305023193,0.02426766604185104,-0.01967692375183105,2,0.5346230671304801,-0.3228808867091707,-0.6429742977292229,-0.4432945592660823,0.9737604856491089,0.05878277122974396,-0.2198522239923477,31.49229431152344,9.849529266357422,-38.53656005859375,2,103169.62951925,4,1,1582550281.788016,0,0,0,0,0,0,0,0,0,103166.479098,0,-3.178711,99.13481
1582550281.94758,50,0,1582550277.367315,41.20729940256221,29.07240360978655,161.2945,-1,-1,17.20949935913086,65,-9999,103169.77954325,0.9256439208984375,0.0770263671875,-0.2232513427734375,103169.77450825,1.982353739914327,1.356565826569658,-0.05883242393442303,-0.09333781898021698,0.7766087651252747,0.01964269205927849,-0.05031657218933105,0.03061486035585403,-0.009143948554992676,2,0.5372913893717484,-0.3243518020670685,-0.6410853756153189,-0.4417276117965259,0.9754496216773987,0.05879849195480347,-0.2122277468442917,31.49229431152344,9.849529266357422,-38.53656005859375,2,103169.62951925,4,1,1582550281.788016,0,0,0,0,0,0,0,0,0,103166.479098,0,-3.178711,99.13481
1582550281.9494,51,0,1582550277.367315,41.20729940256221,29.07240360978655,161.2945,-1,-1,17.20949935913086,65,-9999,103169.78958325,0.9445648193359375,0.080352783203125,-0.2075653076171875,103169.78454825,1.98329939771739,1.364694548986312,-0.058804195420618,-0.09201101213693619,0.8083333969116211,0.02333498373627663,-0.05413192510604858,0.01939734071493149,-0.01910930871963501,2,0.5400409330832697,-0.3258984426166234,-0.6391096260586273,-0.4400962460272547,0.9771440625190735,0.0587703101336956,-0.2042919844388962,32.11642456054688,9.907901763916016,-38.1097412109375,2,103169.62951925,4,1,1582550281.788016,0,0,0,0,0,0,0,0,0,103166.479098,0,-3.178711,99.13481
1582550281.959418,52,0,1582550277.367315,41.20729940256221,29.07240360978655,161.2945,-1,-1,17.20949935913086,65,-9999,103169.79962425,0.94940185546875,0.079559326171875,-0.19415283203125,103169.79458825,1.984226014938013,1.372918456110201,-0.05880161075826679,-0.08944691717624664,0.8154075145721436,0.01918258517980576,-0.0378652811050415,0.02042226493358612,-0.01560133695602417,2,0.542815555729905,-0.327454771350329,-0.6370873608586344,-0.4384567815485695,0.9787914156913757,0.05876773223280907,-0.1962492913007736,32.11642456054688,9.907901763916016,-38.1097412109375,2,103169.62951925,4,1,1582550281.788016,0,0,0,0,0,0,0,0,0,103166.479098,0,-3.178711,99.13481
1582550281.969405,53,0,1582550277.367315,41.20729940256221,29.07240360978655,161.2945,-1,-1,17.20949935913086,65,-9999,103169.80969525,0.95318603515625,0.0803070068359375,-0.1905670166015625,103169.80462925,1.985141037819471,1.381295996761201,-0.0587881561665949,-0.08690942078828812,0.8333258032798767,0.01761673390865326,-0.03083956241607666,0.02173268049955368,-0.006917059421539307,2,0.5456272836225415,-0.3290432823077899,-0.6350103886810236,-0.4367872713346646,0.9804018139839172,0.05875429883599281,-0.1880427747964859,32.8203125,9.960742950439453,-37.7442626953125,2,103169.62951925,4,1,1582550281.788016,0,0,0,0,0,0,0,0,0,103166.479098,0,-3.178711,99.13481
1582550281.979422,54,0,1582550277.367315,41.20729940256221,29.07240360978655,161.2945,-1,-1,17.20949935913086,65,-9999,103169.81973525,0.960479736328125,0.0825958251953125,-0.179290771484375,103169.81466925,1.986100240761666,1.389761834168277,-0.05859589436423997,-0.0898657962679863,0.8429405689239502,0.03876862674951553,-0.03042387962341309,0.02082598209381104,-0.01206344366073608,2,0.5484301543555113,-0.3306890383906754,-0.6329392985167813,-0.4350367508142139,0.9819697737693787,0.05856236815452576,-0.1797382533550262,32.8203125,9.960742950439453,-37.7442626953125,2,103169.62951925,4,1,1582550281.788016,0,0,0,0,0,0,0,0,0,103166.479098,0,-3.178711,99.13481
1582550281.989657,55,0,1582550277.367315,41.20729940256221,29.07240360978655,161.2945,-1,-1,17.20949935913086,65,-9999,103169.82977525,0.951324462890625,0.079559326171875,-0.170989990234375,103169.82470925,1.987107013518799,1.398228039969307,-0.05835152239826562,-0.09551768004894257,0.8360610604286194,0.04139050096273422,-0.02348655462265015,0.0245489627122879,-0.01092112064361572,2,0.5512227780295827,-0.332329735887366,-0.6308754274606386,-0.4332510936831975,0.9834702610969543,0.05831841379404068,-0.1714207977056503,33.52267456054688,9.884639739990234,-37.1724853515625,2,103169.62951925,4,1,1582550281.788016,0,0,0,0,0,0,0,0,0,103167.420724,0,-3.147003,99.13444
1582550282.007727,56,0,1582550277.367315,41.20729940256221,29.07240360978655,161.2945,-1,-1,17.20949935913086,65,-9999,103169.83981525,0.946533203125,0.0794219970703125,-0.17181396484375,103169.83475025,1.988111910626715,1.407008293783387,-0.05809794261979158,-0.09479809552431107,0.8735314607620239,0.04224218055605888,-0.03105676174163818,0.02200976014137268,-0.008345484733581543,2,0.5541042294231698,-0.334032493875681,-0.6287133834975469,-0.4314049937806173,0.9849520325660706,0.058065265417099,-0.1627815961837769,33.52267456054688,9.884639739990234,-37.1724853515625,2,103169.62951925,4,1,1582550281.788016,0,0,0,0,0,0,0,0,0,103167.420724,0,-3.147003,99.13444
1582550282.00964,57,0,1582550277.367315,41.20729940256221,29.07240360978655,161.2945,-1,-1,17.20949935913086,65,-9999,103169.84985625,1.026138305664062,0.0869293212890625,-0.1570587158203125,103169.84479025,1.989009615755715,1.415963847224467,-0.05792760423866016,-0.09169386327266693,0.8965921998023987,0.03027151525020599,-0.04142647981643677,0.02129480242729187,-0.01892650127410889,2,0.5570307629600249,-0.335765955051602,-0.6264505472328425,-0.429578379702255,0.9863800406455994,0.05789521336555481,-0.1539559066295624,34.159912109375,9.952320098876953,-36.6434326171875,2,103169.62951925,4,1,1582550281.788016,0,0,0,0,0,0,0,0,0,103167.420724,0,-3.147003,99.13444
1582550282.020045,58,0,1582550277.367315,41.20729940256221,29.07240360978655,161.2945,-1,-1,17.20949935913086,65,-9999,103169.85989625,1.135452270507812,0.0983123779296875,-0.1121978759765625,103169.85486125,1.989538579805088,1.424015719996059,-0.05790964660795032,-0.04580093547701836,0.8039959669113159,0.008522544056177139,0.01046544313430786,0.02602771669626236,-0.01547545194625854,2,0.5596339722374789,-0.3373504758437218,-0.6243195056449004,-0.4280532218281242,0.9875887036323547,0.05787728354334831,-0.1460089534521103,34.159912109375,9.952320098876953,-36.6434326171875,2,103169.62951925,4,1,1582550281.788016,0,0,0,0,0,0,0,0,0,103167.420724,0,-3.147003,99.13444
1582550282.029634,59,0,1582550277.367315,41.20729940256221,29.07240360978655,161.2945,-1,-1,17.20949935913086,65,-9999,103169.86993625,1.08807373046875,0.091705322265625,-0.090576171875,103169.86490125,1.989936995672102,1.430424520761179,-0.05805981937943758,-0.0443296954035759,0.6366033554077148,-0.009683156386017799,0.1406773328781128,0.04008370637893677,0.01694804430007935,2,0.5617287816283814,-0.3385602112747142,-0.6225798878872588,-0.4268864066898603,0.9884955883026123,0.05802720412611961,-0.1396755129098892,34.83015441894531,9.945072174072266,-36.11395263671875,2,103169.62951925,4,1,1582550281.788016,0,0,0,0,0,0,0,0,0,103167.420724,0,-3.147003,99.13444
1582550282.039693,60,0,1582550277.367315,41.20729940256221,29.07240360978655,161.2945,-1,-1,17.20949935913086,65,-9999,103169.87997725,1.06207275390625,0.094696044921875,-0.0937652587890625,103169.87494125,1.990140164886982,1.435523361258674,-0.05830991785285045,-0.02323932386934757,0.5074887871742249,-0.0212727002799511,0.1085745096206665,0.03441715240478516,0.04390150308609009,2,0.5633979378970027,-0.3395099046392798,-0.6211419813957233,-0.4260262224822417,0.9891804456710815,0.05827688053250313,-0.1346315741539001,34.83015441894531,9.945072174072266,-36.11395263671875,2,103169.62951925,4,1,1582550281.788016,0,0,0,0,0,0,0,0,0,103167.420724,0,-3.147003,99.13444
1582550282.050153,61,0,1582550277.367315,41.20729940256221,29.07240360978655,161.2945,-1,-1,17.20949935913086,65,-9999,103169.89001725,1.02081298828125,0.0897369384765625,-0.108734130859375,103169.88498125,1.990205079158549,1.439777621456788,-0.05863129519516006,-0.009395626373589039,0.4234319627285004,-0.03149240463972092,0.07804560661315918,0.03554586321115494,0.03762918710708618,2,0.5647921300033949,-0.3402940090042318,-0.6198953045873109,-0.4253697954173842,0.9897255897521973,0.05859770998358727,-0.1304196715354919,35.30899047851562,10.07550430297852,-35.81573486328125,2,103169.62951925,4,1,1582550281.788016,0,0,0,0,0,0,0,0,0,103167.420724,0,-3.147003,99.13444
1582550282.068683,62,0,1582550277.367315,41.20729940256221,29.07240360978655,161.2945,-1,-1,17.20949935913086,65,-9999,103169.90005725,0.9907379150390625,0.0886688232421875,-0.1159515380859375,103169.89502225,1.990223148122259,1.443640238271087,-0.05888288802032851,-0.006433392409235239,0.3853458166122437,-0.02297321893274784,0.03900468349456787,0.03225818276405334,0.02153497934341431,2,0.5660406929205541,-0.3410292920326561,-0.6187596580002986,-0.4247744108693431,0.990207314491272,0.05884886905550957,-0.1265939176082611,35.30899047851562,10.07550430297852,-35.81573486328125,2,103169.62951925,4,1,1582550281.788016,0,0,0,0,0,0,0,0,0,103167.420724,0,-3.147003,99.13444
1582550282.069883,63,0,1582550277.367315,41.20729940256221,29.07240360978655,161.2945,-1,-1,17.20949935913086,65,-9999,103169.91009725,0.979888916015625,0.0890655517578125,-0.1146392822265625,103169.90506225,1.990187596298461,1.447290879813512,-0.05905130356213101,0.002861067652702332,0.3666018545627594,-0.01690599136054516,0.004135191440582275,0.02922142297029495,0.006992816925048828,2,0.5671960318987241,-0.3417603980763526,-0.6176860624802869,-0.4242080625356989,0.9906532168388367,0.05901699140667915,-0.1229769811034203,35.46627807617188,10.25442123413086,-35.479736328125,2,103169.62951925,4,1,1582550281.788016,0,0,0,0,0,0,0,0,0,103167.420724,0,-3.147003,99.13444
1582550282.079848,64,0,1582550277.367315,41.20729940256221,29.07240360978655,161.2945,-1,-1,17.20949935913086,65,-9999,103169.92013825,1.006072998046875,0.090728759765625,-0.10595703125,103169.91510225,1.990046077587299,1.450729669413526,-0.05914982981471052,0.01434408500790596,0.35251185297966,-0.01169045642018318,-0.01040565967559814,0.03016065061092377,0.004866242408752441,2,0.5682522840702767,-0.3424980154853902,-0.6166611773347125,-0.4236901610425446,0.9910643100738525,0.05911534279584885,-0.1195688992738724,35.46627807617188,10.25442123413086,-35.479736328125,2,103169.62951925,4,1,1582550281.788016,0,0,0,0,0,0,0,0,0,103167.420724,0,-3.147003,99.13444
1582550282.090114,65,0,1582550277.367315,41.20729940256221,29.07240360978655,161.2945,-1,-1,17.20949935913086,65,-9999,103169.93020825,1.00469970703125,0.0841827392578125,-0.097076416015625,103169.92514325,1.989873606805076,1.453565201388736,-0.0592537358574922,0.01284153200685978,0.2783969938755035,-0.01033376716077328,0.007697999477386475,0.03121659904718399,0.006647646427154541,2,0.5691166671452752,-0.3431143536530244,-0.6157986870074379,-0.4232856225630536,0.9913933277130127,0.05921906977891922,-0.1167575195431709,35.79466247558594,10.10381698608398,-35.3704833984375,2,103169.62951925,4,1,1582550281.788016,0,0,0,0,0,0,0,0,0,103167.420724,0,-3.147003,99.13444
1582550282.100056,66,0,1582550277.367315,41.20729940256221,29.07240360978655,161.2945,-1,-1,17.20949935913086,65,-9999,103169.94024925,0.98272705078125,0.07855224609375,-0.1110076904296875,103169.93518325,1.989649678003798,1.456224264904795,-0.05949832625674352,0.02026935294270515,0.2690378427505493,-0.02651406824588776,0.01736962795257568,0.0266389399766922,0.01845937967300415,2,0.5699440849998035,-0.3436627802354923,-0.6149475393619036,-0.42296464056262,0.9916858077049255,0.05946322903037071,-0.1141192689538002,35.79466247558594,10.10381698608398,-35.3704833984375,2,103169.62951925,4,1,1582550281.788016,0,0,0,0,0,0,0,0,0,103167.420724,0,-3.147003,99.13444
1582550282.110073,67,0,1582550277.367315,41.20729940256221,29.07240360978655,161.2945,-1,-1,17.20949935913086,65,-9999,103169.95028925,0.97650146484375,0.0838165283203125,-0.1121826171875,103169.94522325,1.98940292877532,1.45892297717727,-0.05975166524300803,0.02301228232681751,0.2711692452430725,-0.02660905010998249,-0.006082355976104736,0.01922967284917831,0.002338171005249023,2,0.5707801892859725,-0.3442230802954393,-0.6140774567950197,-0.4226455238258945,0.9919751882553101,0.0597161166369915,-0.1114408895373344,36.05326843261719,9.998447418212891,-35.2823486328125,2,103169.62951925,4,1,1582550281.788016,0,0,0,0,0,0,0,0,0,103167.420724,0,-3.147003,99.13444
1582550282.132575,68,0,1582550277.367315,41.20729940256221,29.07240360978655,161.2945,-1,-1,17.20949935913086,65,-9999,103169.96032925,0.9831085205078125,0.08514404296875,-0.1040496826171875,103169.95526325,1.989151741655205,1.461574097847506,-0.05995387374675767,0.02376089617609978,0.2636492848396301,-0.02087446674704552,-0.0161278247833252,0.02229320257902145,-0.004245519638061523,2,0.5715896843318617,-0.344790606225024,-0.6132286488559191,-0.4223212311085407,0.9922551512718201,0.05991796404123306,-0.1088093444705009,36.05326843261719,9.998447418212891,-35.2823486328125,2,103169.62951925,4,1,1582550281.788016,0,0,0,0,0,0,0,0,0,103167.420724,0,-3.147003,99.13444
1582550282.1334,69,0,1582550277.367315,41.20729940256221,29.07240360978655,161.2945,-1,-1,17.20949935913086,65,-9999,103169.97037025,0.9830322265625,0.080047607421875,-0.1039581298828125,103169.96530425,1.988880715638392,1.464149916929028,-0.06024126259294386,0.02343553490936756,0.2576424777507782,-0.03084694221615791,-0.01048249006271362,0.0258057564496994,0.0008408427238464355,2,0.5723880093435104,-0.345320624190124,-0.6123797563910676,-0.422038499001155,0.9925148487091064,0.06020483374595642,-0.1062512695789337,36.1182861328125,9.873561859130859,-34.9810791015625,2,103169.62951925,4,1,1582550281.788016,0,0,0,0,0,0,0,0,0,103167.420724,0,-3.147003,99.13444
1582550282.140484,70,0,1582550277.367315,41.20729940256221,29.07240360978655,161.2945,-1,-1,17.20949935913086,65,-9999,103169.98041025,0.986297607421875,0.0856781005859375,-0.0980072021484375,103169.97537525,1.988555181939083,1.466659765189813,-0.0605552306374536,0.02935201488435268,0.2524344027042389,-0.03158916532993317,-0.009536921977996826,0.0199228972196579,0.0003769993782043457,2,0.5731606090052038,-0.3458438350401515,-0.6115321933569096,-0.4217905933657136,0.9927597045898438,0.06051822751760483,-0.103757917881012,36.1182861328125,9.873561859130859,-34.9810791015625,2,103169.62951925,4,1,1582550281.788016,0,0,0,0,0,0,0,0,0,103167.420724,0,-3.147003,99.13444
1582550282.150214,71,0,1582550277.367315,41.20729940256221,29.07240360978655,161.2945,-1,-1,17.20949935913086,65,-9999,103169.99045025,0.9813690185546875,0.0881195068359375,-0.0948028564453125,103169.98541525,1.988248619106053,1.468933751687134,-0.06076515675795002,0.0268593467772007,0.2262975722551346,-0.02101064659655094,-0.008140206336975098,0.02378743886947632,0.00103229284286499,2,0.5738431153043502,-0.3463447134979586,-0.6107752162623552,-0.4215484079301977,0.992980420589447,0.06072776764631271,-0.1014988347887993,36.30665588378906,9.942478179931641,-34.72052001953125,2,103169.62951925,4,1,1582550281.788016,0,0,0,0,0,0,0,0,0,103167.420724,0,-3.147003,99.13444
1582550282.160721,72,0,1582550277.367315,41.20729940256221,29.07240360978655,161.2945,-1,-1,17.20949935913086,65,-9999,103170.00049025,0.9726104736328125,0.088836669921875,-0.095458984375,103169.99545525,1.987927358194103,1.471117886562638,-0.06084165625018086,0.03159364685416222,0.2219220101833344,-0.008053835481405258,-0.009300947189331055,0.02677809447050095,0.004966259002685547,2,0.5744688741542281,-0.346872956304217,-0.610065797664522,-0.4212889524514375,0.993195116519928,0.06080412864685059,-0.09932933002710342,36.30665588378906,9.942478179931641,-34.72052001953125,2,103169.62951925,4,1,1582550281.788016,0,0,0,0,0,0,0,0,0,103167.420724,0,-3.147003,99.13444
1582550282.170294,73,0,1582550277.367315,41.20729940256221,29.07240360978655,161.2945,-1,-1,17.20949935913086,65,-9999,103170.01053125,0.973297119140625,0.081695556640625,-0.0949249267578125,103170.00549525,1.98754398938611,1.473277143779187,-0.06093820202329452,0.03729470074176788,0.2169114053249359,-0.01267041452229023,-0.02041715383529663,0.02866537123918533,0.001386642456054688,2,0.5750792578740018,-0.3474073447716358,-0.6093459580597004,-0.4210576279358961,0.9934014678001404,0.0609004944562912,-0.0971839651465416,36.54508972167969,10.12776565551758,-34.74749755859375,2,103169.62951925,4,1,1582550281.788016,0,0,0,0,0,0,0,0,0,103167.420724,0,-3.147003,99.13444
1582550282.197505,74,0,1582550277.367315,41.20729940256221,29.07240360978655,161.2945,-1,-1,17.20949935913086,65,-9999,103170.02057125,0.975006103515625,0.0853729248046875,-0.094085693359375,103170.01553625,1.987103664875214,1.475488930323003,-0.06106526559477753,0.0418095551431179,0.2232438623905182,-0.01721350103616714,-0.02031677961349487,0.0217636376619339,0.0002564191818237305,2,0.5757007255310482,-0.3479594414176384,-0.60859247072522,-0.4208421943788555,0.9936062693595886,0.06102732196450233,-0.09498580545186996,36.54508972167969,10.12776565551758,-34.74749755859375,2,103169.62951925,4,1,1582550281.788016,0,0,0,0,0,0,0,0,0,103167.420724,0,-3.147003,99.13444
1582550282.198476,75,0,1582550277.367315,41.20729940256221,29.07240360978655,161.2945,-1,-1,17.20949935913086,65,-9999,103170.03061125,0.9808807373046875,0.0840606689453125,-0.08856201171875,103170.02557625,1.986626368789964,1.47765881556786,-0.06118962993870568,0.04723589867353439,0.2216193228960037,-0.01331352721899748,-0.01956701278686523,0.02267707884311676,-0.002419769763946533,2,0.5763015663713215,-0.3485141077343632,-0.6078430226639885,-0.4206436514139126,0.9938022494316101,0.06115145236253738,-0.09282884001731873,36.68402099609375,9.906963348388672,-34.69989013671875,2,103169.62951925,4,1,1582550281.788016,0,0,0,0,0,0,0,0,0,103167.420724,0,-3.147003,99.13444
1582550282.200501,76,0,1582550277.367315,41.20729940256221,29.07240360978655,161.2945,-1,-1,17.20949935913086,65,-9999,103170.04068225,0.98681640625,0.0792388916015625,-0.08697509765625,103170.03561625,1.986153355070927,1.47968150686355,-0.06143313988597333,0.04485263675451279,0.2060339599847794,-0.02806397713720798,-0.01482462882995605,0.02412775903940201,0.001351594924926758,2,0.5768804194096189,-0.3489991474298335,-0.6071133992267208,-0.4205018982627452,0.9939732551574707,0.06139450520277023,-0.0908171534538269,36.68402099609375,9.906963348388672,-34.69989013671875,2,103169.62951925,4,1,1582550281.788016,0,0,0,0,0,0,0,0,0,103167.420724,0,-3.147003,99.13444
1582550282.210588,77,0,1582550277.367315,41.20729940256221,29.07240360978655,161.2945,-1,-1,17.20949935913086,65,-9999,103170.050750875,0.9833221435546875,0.084564208984375,-0.084320068359375,103170.045684875,1.985719192856467,1.481521399698145,-0.06167168830864167,0.04196466878056526,0.188106581568718,-0.02691398188471794,-0.008093774318695068,0.01754197478294373,0.001825332641601562,2,0.5774088088742423,-0.3494361484168446,-0.6064450100677392,-0.4203782586244672,0.9941241145133972,0.06163260340690613,-0.08898688852787018,36.82614135742188,9.910831451416016,-34.4910888671875,2,103169.62951925,4,1,1582550281.788016,0,0,0,0,0,0,0,0,0,103167.420724,0,-3.147003,99.13444
1582550282.220629,78,0,1582550277.367315,41.20729940256221,29.07240360978655,161.2945,-1,-1,17.20949935913086,65,-9999,103170.060791875,0.9771728515625,0.0882415771484375,-0.081298828125,103170.055725875,1.985376788109014,1.483109093766782,-0.06179650787939307,0.03194212913513184,0.1597178131341934,-0.01300642266869545,-0.009858965873718262,0.02162881195545197,0.002168774604797363,2,0.577854187332666,-0.3498294776516653,-0.6058903471952259,-0.4202390515449498,0.9942565560340881,0.06175718456506729,-0.08740775287151337,36.82614135742188,9.910831451416016,-34.4910888671875,2,103169.62951925,4,1,1582550281.788016,0,0,0,0,0,0,0,0,0,103167.420724,0,-3.147003,99.13444
1582550282.23062,79,0,1582550277.367315,41.20729940256221,29.07240360978655,161.2945,-1,-1,17.20949935913086,65,-9999,103170.070831875,0.971649169921875,0.0819091796875,-0.08392333984375,103170.065765875,1.985043585980926,1.484602154409899,-0.06192107933655656,0.03155996650457382,0.151402622461319,-0.01288551464676857,-0.01606887578964233,0.02628049254417419,0.004482805728912354,2,0.5782719876303334,-0.3502003094671087,-0.6053646184199055,-0.4201130963426511,0.9943782687187195,0.06188151612877846,-0.08592250198125839,36.89100646972656,9.766208648681641,-34.18359375,2,103169.62951925,4,1,1582550281.788016,0,0,0,0,0,0,0,0,0,103167.420724,0,-3.147003,99.13444
1582550282.263362,80,0,1582550277.367315,41.20729940256221,29.07240360978655,161.2945,-1,-1,17.20949935913086,65,-9999,103170.080871875,0.97259521484375,0.0763092041015625,-0.083404541015625,103170.075805875,1.984668790287358,1.486096691332046,-0.06217726238461552,0.0358567088842392,0.1523568332195282,-0.02670918591320515,-0.02222287654876709,0.02144712954759598,0.0009197592735290527,2,0.578707842940524,-0.3505421197354894,-0.604803727160954,-0.420035406585353,0.9944895505905151,0.06213720887899399,-0.08443491160869598,36.89100646972656,9.766208648681641,-34.18359375,2,103169.62951925,4,1,1582550281.788016,0,0,0,0,0,0,0,0,0,103167.420724,0,-3.147003,99.13444
1582550282.26462,81,0,1582550277.367315,41.20729940256221,29.07240360978655,161.2945,-1,-1,17.20949935913086,65,-9999,103170.090912875,0.97137451171875,0.0801239013671875,-0.0865936279296875,103170.085876875,1.984310962089591,1.487631145280193,-0.06254506887760883,0.03122343122959137,0.1545306295156479,-0.03772906959056854,-0.02229779958724976,0.01442719250917435,-0.0004554986953735352,2,0.579179598062272,-0.3508525775902207,-0.604212923462634,-0.4199764835536462,0.9945952892303467,0.06250429898500443,-0.08290692418813705,36.96044921875,10.06884384155273,-34.21710205078125,2,103169.62951925,4,1,1582550281.788016,0,0,0,0,0,0,0,0,0,103167.420724,0,-3.147003,99.13444
1582550282.265913,82,0,1582550277.367315,41.20729940256221,29.07240360978655,161.2945,-1,-1,17.20949935913086,65,-9999,103170.100952875,0.96881103515625,0.0861358642578125,-0.083709716796875,103170.095916875,1.983945430754583,1.489281519365375,-0.06291567013111529,0.03356914222240448,0.1692219525575638,-0.0383828729391098,-0.02277660369873047,0.01553740352392197,-0.004861176013946533,2,0.5796850121097142,-0.3511887765364637,-0.6035857991872104,-0.4198998400054336,0.9947075247764587,0.06287416815757751,-0.0812634602189064,36.96044921875,10.06884384155273,-34.21710205078125,2,103169.62951925,4,1,1582550281.788016,0,0,0,0,0,0,0,0,0,103167.420724,0,-3.147003,99.13444
1582550282.270837,83,0,1582550277.367315,41.20729940256221,29.07240360978655,161.2945,-1,-1,17.20949935913086,65,-9999,103170.110992875,0.972930908203125,0.0858612060546875,-0.0781097412109375,103170.105957875,1.983570277969068,1.490923626756578,-0.06327470433128562,0.03526841849088669,0.1662838459014893,-0.03722680732607841,-0.02610576152801514,0.02268637716770172,-0.005092740058898926,2,0.5801833584763895,-0.3515298052902763,-0.6029608696162939,-0.4198241106212043,0.9948170781135559,0.06323248893022537,-0.07962813228368759,37.18431091308594,9.864360809326172,-34.14117431640625,2,103169.62951925,4,1,1582550281.788016,0,0,0,0,0,0,0,0,0,103167.420724,0,-3.147003,99.13444
1582550282.280833,84,0,1582550277.367315,41.20729940256221,29.07240360978655,161.2945,-1,-1,17.20949935913086,65,-9999,103170.121032875,0.965911865234375,0.0890655517578125,-0.0821380615234375,103170.115997875,1.983220725907257,1.492624414716803,-0.06360602608248749,0.03113705478608608,0.1726647764444351,-0.0344746969640255,-0.02278560400009155,0.02235569804906845,-0.0008355379104614258,2,0.5806979338838192,-0.3518845044676993,-0.6023292034805772,-0.419722323892905,0.9949302077293396,0.06356314569711685,-0.07793440669775009,37.18431091308594,9.864360809326172,-34.14117431640625,2,103169.62951925,4,1,1582550281.788016,0,0,0,0,0,0,0,0,0,103167.420724,0,-3.147003,99.13444
1582550282.291031,85,0,1582550277.367315,41.20729940256221,29.07240360978655,161.2945,-1,-1,17.20949935913086,65,-9999,103170.131073875,0.96624755859375,0.08404541015625,-0.082305908203125,103170.126037875,1.982871901843283,1.494451218416182,-0.0639318258582814,0.03111217170953751,0.1826319992542267,-0.03338900953531265,-0.02730029821395874,0.024395652115345,-0.005417048931121826,2,0.5812488691530796,-0.3522671970306459,-0.6016615723144272,-0.4195961323367801,0.9950501322746277,0.06388828158378601,-0.07611514627933502,37.2138671875,9.927272796630859,-33.88177490234375,2,103169.62951925,4,1,1582550281.788016,0,0,0,0,0,0,0,0,0,103167.420724,0,-3.147003,99.13444
1582550282.322657,86,0,1582550277.367315,41.20729940256221,29.07240360978655,161.2945,-1,-1,17.20949935913086,65,-9999,103170.141113875,0.9696807861328125,0.0765533447265625,-0.0798187255859375,103170.136078875,1.98252664625777,1.496437032239585,-0.06439917281452535,0.0313824824988842,0.203007310628891,-0.04809205234050751,-0.02992230653762817,0.02193032205104828,-0.008143484592437744,2,0.5818745666407481,-0.352638052585031,-0.6009201339069914,-0.419479822894169,0.9951694011688232,0.06435466557741165,-0.07413678616285324,37.2138671875,9.927272796630859,-33.88177490234375,2,103169.62951925,4,1,1582550281.788016,0,0,0,0,0,0,0,0,0,103167.420724,0,-3.147003,99.13444
1582550282.32439,87,0,1582550277.367315,41.20729940256221,29.07240360978655,161.2945,-1,-1,17.20949935913086,65,-9999,103170.151153875,0.972198486328125,0.0841217041015625,-0.0742034912109375,103170.146118875,1.982213204022891,1.498456424404192,-0.06499105013684701,0.02758313342928886,0.2012397348880768,-0.06273532658815384,-0.02635490894317627,0.01203175634145737,-0.009057939052581787,2,0.5825388771213333,-0.3529679081056619,-0.6001503620701628,-0.4193822616449256,0.9952787756919861,0.06494531035423279,-0.07212422788143158,37.55038452148438,10.0960578918457,-33.87261962890625,2,103169.62951925,4,1,1582550281.788016,0,0,0,0,0,0,0,0,0,103167.420724,0,-3.147003,99.13444
1582550282.325488,88,0,1582550277.367315,41.20729940256221,29.07240360978655,161.2945,-1,-1,17.20949935913086,65,-9999,103170.161224875,0.95867919921875,0.09844970703125,-0.075714111328125,103170.156158875,1.98191310008491,1.500642311043292,-0.06544558703803942,0.02694530598819256,0.2190618813037872,-0.04590973630547523,-0.02240645885467529,0.01583536714315414,-0.004582822322845459,2,0.5832281898190318,-0.3533718528257477,-0.5993611322773006,-0.4192129209662033,0.9954047203063965,0.06539887934923172,-0.06994642317295074,37.75244140625,10.03035354614258,-33.650146484375,2,103169.62951925,4,1,1582550281.788016,0,0,0,0,0,0,0,0,0,103167.420724,0,-3.147003,99.13444
1582550282.331074,89,0,1582550277.367315,41.20729940256221,29.07240360978655,161.2945,-1,-1,17.20949935913086,65,-9999,103170.171264875,0.9582061767578125,0.0975494384765625,-0.0732574462890625,103170.166198875,1.981590020095546,1.503026669134392,-0.0657220369597727,0.03092381171882153,0.2403098344802856,-0.02786446735262871,-0.03445422649383545,0.03075723350048065,-0.008270144462585449,2,0.5839378971851016,-0.3538795494838587,-0.5985432330391562,-0.4189650609268567,0.9955505132675171,0.06567473709583282,-0.06757159531116486,37.75244140625,10.03035354614258,-33.650146484375,2,103169.62951925,4,1,1582550281.788016,0,0,0,0,0,0,0,0,0,103167.420724,0,-3.147003,99.13444
1582550282.34147,90,0,1582550277.367315,41.20729940256221,29.07240360978655,161.2945,-1,-1,17.20949935913086,65,-9999,103170.181305875,0.9713592529296875,0.09259033203125,-0.069854736328125,103170.176239875,1.981277869969843,1.505582588283272,-0.06593752990071054,0.02820206061005592,0.2583431601524353,-0.02109364792704582,-0.03895825147628784,0.03261741995811462,-0.008862733840942383,2,0.5846880509885024,-0.3544388923898191,-0.5976886748145391,-0.4186659734026386,0.9957058429718018,0.06588976085186005,-0.06502591073513031,37.87994384765625,10.09526443481445,-33.497802734375,2,103169.62951925,4,1,1582550281.788016,0,0,0,0,0,0,0,0,0,103167.420724,0,-3.147003,99.13444
1582550282.351142,91,0,1582550277.367315,41.20729940256221,29.07240360978655,161.2945,-1,-1,17.20949935913086,65,-9999,103170.191345875,0.98223876953125,0.081085205078125,-0.05938720703125,103170.186279875,1.9809389715761,1.508126199512635,-0.06628659230194768,0.03238646686077118,0.2587211430072784,-0.0369134359061718,-0.02737867832183838,0.02787456661462784,-0.008360683917999268,2,0.5854539689222609,-0.3549617791975264,-0.5968047308506406,-0.4184135937684821,0.9958450794219971,0.06623806059360504,-0.06249156966805458,37.87994384765625,10.09526443481445,-33.497802734375,2,103169.62951925,4,1,1582550281.788016,0,0,0,0,0,0,0,0,0,103167.420724,0,-3.147003,99.13444
1582550282.38439,92,0,1582550277.367315,41.20729940256221,29.07240360978655,161.2945,-1,-1,17.20949935913086,65,-9999,103170.201385875,0.98577880859375,0.088165283203125,-0.0550537109375,103170.196319875,1.980658957870948,1.510432656271756,-0.06670790176633316,0.02390296757221222,0.2311172187328339,-0.04373912140727043,-0.01552927494049072,0.01620843261480331,-0.001260042190551758,2,0.5861721273446826,-0.3553952958115633,-0.5959872152066646,-0.4182052683776443,0.9959585666656494,0.06665843725204468,-0.06019284203648567,38.04484558105469,9.809032440185547,-33.4434814453125,2,103169.62951925,4,1,1582550281.788016,0,0,0,0,0,0,0,0,0,103167.420724,0,-3.147003,99.13444
1582550282.385728,93,0,1582550277.367315,41.20729940256221,29.07240360978655,161.2945,-1,-1,17.20949935913086,65,-9999,103170.211425875,0.9827423095703125,0.091888427734375,-0.0580596923828125,103170.206390875,1.980407898889504,1.512716018539249,-0.06714320516506307,0.02003659307956696,0.2250489741563797,-0.03455662354826927,-0.009943544864654541,0.01824601739645004,0.00271981954574585,2,0.5868900958409144,-0.3558111620117267,-0.5951788554149822,-0.4179959169821334,0.9960643649101257,0.06709276884794235,-0.05791686475276947,38.04484558105469,9.809032440185547,-33.4434814453125,2,103169.62951925,4,1,1582550281.788016,0,0,0,0,0,0,0,0,0,103167.420724,0,-3.147003,99.13444
1582550282.386727,94,0,1582550277.367315,41.20729940256221,29.07240360978655,161.2945,-1,-1,17.20949935913086,65,-9999,103170.221466875,0.972320556640625,0.089385986328125,-0.0584716796875,103170.216430875,1.980177225113702,1.515086370717072,-0.06759587956438166,0.02070611156523228,0.2385892868041992,-0.04062224179506302,-0.01454901695251465,0.02521011978387833,-0.002282857894897461,2,0.5876397600408506,-0.3562338001302335,-0.594344798464907,-0.4177694060646556,0.9961684346199036,0.06754441559314728,-0.05555398389697075,38.33251953125,9.903148651123047,-33.23590087890625,2,103169.62951925,4,1,1582550281.788016,0,0,0,0,0,0,0,0,0,103167.420724,0,-3.147003,99.13444
1582550282.391966,95,0,1582550277.367315,41.20729940256221,29.07240360978655,161.2945,-1,-1,17.20949935913086,65,-9999,103170.231506875,0.971710205078125,0.0975341796875,-0.050994873046875,103170.226471875,1.980036440481821,1.517351552574831,-0.06786026028774859,0.01409829780459404,0.2299106568098068,-0.02578986808657646,-0.02004081010818481,0.02026184648275375,-0.005242764949798584,2,0.5883374945350117,-0.3566662382538315,-0.5935968067388836,-0.4174815255878881,0.9962736368179321,0.06780818849802017,-0.05329637229442596,38.33251953125,9.903148651123047,-33.23590087890625,2,103169.62951925,4,1,1582550281.788016,0,0,0,0,0,0,0,0,0,103167.420724,0,-3.147003,99.13444
1582550282.401552,96,0,1582550277.367315,41.20729940256221,29.07240360978655,161.2945,-1,-1,17.20949935913086,65,-9999,103170.241546875,0.98101806640625,0.09100341796875,-0.0446929931640625,103170.236511875,1.97995234867994,1.519385015527601,-0.0680478213208968,0.007534404285252094,0.202604740858078,-0.01768267340958118,-0.02733665704727173,0.02918421477079391,-0.002157807350158691,2,0.5889611337796564,-0.3570573021017466,-0.5929434863396846,-0.4171963924114304,0.9963673949241638,0.06799531728029251,-0.05126973241567612,38.369140625,10.1451530456543,-33.13482666015625,2,103169.62951925,4,1,1582550281.788016,0,0,0,0,0,0,0,0,0,103167.420724,0,-3.147003,99.13444
1582550282.411589,97,0,1582550277.367315,41.20729940256221,29.07240360978655,161.2945,-1,-1,17.20949935913086,65,-9999,103170.251587875,0.9781341552734375,0.0882568359375,-0.0482025146484375,103170.246551875,1.979876965942712,1.521281329503452,-0.06826154308376506,0.008214928209781647,0.1913026720285416,-0.01957999169826508,-0.01603466272354126,0.02413395047187805,0.00463402271270752,2,0.5895499307672113,-0.3574089094749657,-0.5923265272465179,-0.4169401722737942,0.9964483976364136,0.06820854544639587,-0.04937950149178505,38.369140625,10.1451530456543,-33.13482666015625,2,103169.62951925,4,1,1582550281.788016,0,0,0,0,0,0,0,0,0,103167.420724,0,-3.147003,99.13444
1582550282.444609,98,0,1582550277.367315,41.20729940256221,29.07240360978655,161.2945,-1,-1,17.20949935913086,65,-9999,103170.261627875,0.9846343994140625,0.0883941650390625,-0.0421142578125,103170.256591875,1.979807001853162,1.523087203500317,-0.06857117304045182,0.004807412624359131,0.1807448267936707,-0.02926377952098846,-0.0175202488899231,0.02028495818376541,-0.000340580940246582,2,0.5901304166701573,-0.3577102411048433,-0.5917175694038956,-0.4167251031341406,0.9965147376060486,0.06851744651794434,-0.04757894948124886,38.47738647460938,9.831295013427734,-33.06097412109375,2,103169.62951925,4,1,1582550281.788016,0,0,0,0,0,0,0,0,0,103167.420724,0,-3.147003,99.13444
1582550282.445845,99,0,1582550277.367315,41.20729940256221,29.07240360978655,161.2945,-1,-1,17.20949935913086,65,-9999,103170.271698875,0.9768218994140625,0.094482421875,-0.0427093505859375,103170.266632875,1.979763891106906,1.524792796210007,-0.06884717131712784,0.0004501326475292444,0.1699391007423401,-0.02415928989648819,-0.01413244009017944,0.01895675808191299,0.002048134803771973,2,0.5906791130760036,-0.357993025895428,-0.5911499413277689,-0.4165103330421886,0.9965754151344299,0.06879279762506485,-0.04587835818529129,38.47738647460938,9.831295013427734,-33.06097412109375,2,103169.62951925,4,1,1582550281.788016,0,0,0,0,0,0,0,0,0,103167.420724,0,-3.147003,99.13444
1582550282.446985,100,0,1582550277.367315,41.20729940256221,29.07240360978655,161.2945,-1,-1,17.20949935913086,65,-9999,103170.281738875,0.976043701171875,0.0940399169921875,-0.0455474853515625,103170.276672875,1.979765190789791,1.526444547393461,-0.06903404774136594,-0.002168287523090839,0.1624580323696136,-0.01742975041270256,-0.01748991012573242,0.02449236065149307,0.001973211765289307,2,0.5912024869889433,-0.3582789400226529,-0.5906249170010963,-0.4162669960592225,0.996637225151062,0.06897922605276108,-0.04423164203763008,38.5579833984375,9.738544464111328,-33.00323486328125,2,103169.62951925,4,1,1582550281.788016,0,0,0,0,0,0,0,0,0,103167.420724,0,-3.147003,99.13444
1582550282.451733,101,0,1582550277.367315,41.20729940256221,29.07240360978655,161.2945,-1,-1,17.20949935913086,65,-9999,103170.291778875,0.9731903076171875,0.0939483642578125,-0.047515869140625,103170.286712875,1.979840455315297,1.528229854698395,-0.06913759562015646,-0.009866978041827679,0.1818077713251114,-0.01135942526161671,-0.02084082365036011,0.02567078173160553,-0.00230938196182251,2,0.5917624895582317,-0.3585961239836294,-0.5900917489234974,-0.4159538376347831,0.9967072010040283,0.06908252835273743,-0.04245195165276527,38.5579833984375,9.738544464111328,-33.00323486328125,2,103169.62951925,4,1,1582550281.788016,0,0,0,0,0,0,0,0,0,103167.420724,0,-3.147003,99.13444
1582550282.461704,102,0,1582550277.367315,41.20729940256221,29.07240360978655,161.2945,-1,-1,17.20949935913086,65,-9999,103170.301819875,0.9789581298828125,0.0941925048828125,-0.0314178466796875,103170.296753875,1.979970487655977,1.529828513265567,-0.06905996948628021,-0.01355572231113911,0.1575506329536438,0.0122124794870615,-0.022774338722229,0.02435968071222305,-0.007793545722961426,2,0.592242722144139,-0.3589139106030842,-0.5896611460292163,-0.4156068496000264,0.996779203414917,0.069005087018013,-0.04085872694849968,38.79298400878906,9.857997894287109,-32.71221923828125,2,103169.62951925,4,1,1582550281.788016,0,0,0,0,0,0,0,0,0,103167.420724,0,-3.147003,99.13444
1582550282.472109,103,0,1582550277.367315,41.20729940256221,29.07240360978655,161.2945,-1,-1,17.20949935913086,65,-9999,103170.311859875,0.9881134033203125,0.091094970703125,-0.0259857177734375,103170.306793875,1.980093645251319,1.531113959890578,-0.06892089494261561,-0.01220334507524967,0.1291077733039856,0.01515322737395763,-0.02047038078308105,0.02617690712213516,0.005039989948272705,2,0.5926175916740158,-0.3591872848810115,-0.5893338490177609,-0.4153005257048475,0.9968405365943909,0.06886634230613708,-0.03957776725292206,38.79298400878906,9.857997894287109,-32.71221923828125,2,103169.62951925,4,1,1582550281.788016,0,0,0,0,0,0,0,0,0,103167.420724,0,-3.147003,99.13444
1582550282.501298,104,0,1582550277.367315,41.20729940256221,29.07240360978655,161.2945,-1,-1,17.20949935913086,65,-9999,103170.321899875,0.9800262451171875,0.095458984375,-0.0306243896484375,103170.316833875,1.98019903505255,1.532126237625086,-0.0687006471445912,-0.009617681615054607,0.09759779274463654,0.02509267628192902,-0.009279310703277588,0.02207840234041214,0.01210331916809082,2,0.5928934285236163,-0.359433937944053,-0.5890998288063561,-0.4150253121917184,0.9968951940536499,0.0686466172337532,-0.03856925293803215,38.8636474609375,10.10670852661133,-32.66064453125,2,103169.62951925,4,1,1582550281.788016,0,0,0,0,0,0,0,0,0,103167.420724,0,-3.147003,99.13444
1582550282.502707,105,0,1582550277.367315,41.20729940256221,29.07240360978655,161.2945,-1,-1,17.20949935913086,65,-9999,103170.331939875,0.9798736572265625,0.0842132568359375,-0.0347442626953125,103170.326904875,1.980277431418725,1.533048326467677,-0.06850166673468749,-0.00617567403241992,0.09367673844099045,0.02204645797610283,-0.01450073719024658,0.02706818282604218,0.009124636650085449,2,0.593141745415166,-0.3596631845691564,-0.5888825800502039,-0.4147801748048013,0.9969440102577209,0.06844810396432877,-0.03765052556991577,38.8636474609375,10.10670852661133,-32.66064453125,2,103169.62951925,4,1,1582550281.788016,0,0,0,0,0,0,0,0,0,103167.420724,0,-3.147003,99.13444
1582550282.503798,106,0,1582550277.367315,41.20729940256221,29.07240360978655,161.2945,-1,-1,17.20949935913086,65,-9999,103170.341980875,0.99517822265625,0.081512451171875,-0.022613525390625,103170.336944875,1.980350914472889,1.5336866321166,-0.06841755592741514,-0.008168516680598259,0.06288713216781616,0.009790056385099888,-0.01944369077682495,0.01880554854869843,0.0009047389030456543,2,0.5933271259985106,-0.3597995750568119,-0.5887253094064856,-0.4146198635594491,0.9969735145568848,0.06836418807506561,-0.03701437637209892,38.98052978515625,10.03782272338867,-32.5555419921875,2,103169.62951925,4,1,1582550281.788016,0,0,0,0,0,0,0,0,0,103167.420724,0,-3.147003,99.13444
1582550282.511754,107,0,1582550277.367315,41.20729940256221,29.07240360978655,161.2945,-1,-1,17.20949935913086,65,-9999,103170.352020875,0.9980926513671875,0.08740234375,-0.0226593017578125,103170.346985875,1.980372449719205,1.534026640324871,-0.06842773411399923,-0.001110341399908066,0.03422539681196213,0.001664752140641212,-0.004089891910552979,0.01153221726417542,0.01208603382110596,2,0.5934329853407665,-0.3598605396106671,-0.5886268566233733,-0.4145552360487192,0.9969853162765503,0.06837434321641922,-0.03667536750435829,38.98052978515625,10.03782272338867,-32.5555419921875,2,103169.62951925,4,1,1582550281.788016,0,0,0,0,0,0,0,0,0,103167.420724,0,-3.147003,99.13444
1582550282.522138,108,0,1582550277.367315,41.20729940256221,29.07240360978655,161.2945,-1,-1,17.20949935913086,65,-9999,103170.362060875,1.001724243164062,0.0804595947265625,-0.022735595703125,103170.357025875,1.980370072950866,1.534041646046325,-0.06861371912551627,9.021162986755371e-05,0.0008855517953634262,-0.01746659725904465,0.0007745027542114258,0.01934227347373962,0.01481717824935913,2,0.5934718233321372,-0.3598072046097806,-0.5885846304208622,-0.4146059311066206,0.9969732165336609,0.06855989247560501,-0.03665994107723236,38.84249877929688,9.883617401123047,-32.50537109375,2,103169.62951925,4,1,1582550281.788016,0,0,0,0,0,0,0,0,0,103167.420724,0,-3.147003,99.13444
1582550282.53239,109,0,1582550277.367315,41.20729940256221,29.07240360978655,161.2945,-1,-1,17.20949935913086,65,-9999,103170.372101875,0.9888763427734375,0.092864990234375,-0.0295562744140625,103170.367065875,1.980349610284288,1.533824533022645,-0.06885430919510512,0.0006717666983604431,-0.02291533909738064,-0.02319718338549137,0.004461050033569336,0.01196113228797913,0.0139039158821106,2,0.5934493215239686,-0.3596943273661545,-0.5885965846250263,-0.4147191714743237,0.996948778629303,0.06879992038011551,-0.03687578812241554,38.84249877929688,9.883617401123047,-32.50537109375,2,103169.62951925,4,1,1582550281.788016,0,0,0,0,0,0,0,0,0,103167.420724,0,-3.147003,99.13444
1582550282.564961,110,0,1582550277.367315,41.20729940256221,29.07240360978655,161.2945,-1,-1,17.20949935913086,65,-9999,103170.382141875,0.9766693115234375,0.0931396484375,-0.0376739501953125,103170.377105875,1.980307462689137,1.533605798127199,-0.06904883767443062,0.002828660886734724,-0.02154727280139923,-0.01579945348203182,-0.004565894603729248,0.02099858224391937,0.009421586990356445,2,0.5934138578185267,-0.3596016120089351,-0.5886136403708424,-0.4148258456398451,0.9969270825386047,0.06899398565292358,-0.03709334880113602,39.02490234375,10.17940139770508,-32.75836181640625,2,103169.62951925,4,1,1582550281.788016,0,0,0,0,0,0,0,0,0,103167.420724,0,-3.147003,99.13444
1582550282.566623,111,0,1582550277.367315,41.20729940256221,29.07240360978655,161.2945,-1,-1,17.20949935913086,65,-9999,103170.392212875,0.975860595703125,0.087554931640625,-0.041534423828125,103170.387146875,1.980248870193445,1.533539701428351,-0.06933758848104044,0.005954170133918524,-0.006583251990377903,-0.02803419530391693,-0.0189020037651062,0.0254865437746048,0.0008047223091125488,2,0.5934379412149007,-0.3595165606107374,-0.5885632561753936,-0.414936831375592,0.9969048500061035,0.06928203999996185,-0.03715850412845612,39.02490234375,10.17940139770508,-32.75836181640625,2,103169.62951925,4,1,1582550281.788016,0,0,0,0,0,0,0,0,0,103167.420724,0,-3.147003,99.13444
1582550282.567658,112,0,1582550277.367315,41.20729940256221,29.07240360978655,161.2945,-1,-1,17.20949935913086,65,-9999,103170.402252875,0.97509765625,0.094207763671875,-0.040618896484375,103170.397186875,1.980198867830119,1.533692206907947,-0.06963594216500557,0.003773840144276619,0.01531751826405525,-0.02917935699224472,-0.02129781246185303,0.01792570203542709,-0.004322469234466553,2,0.5935297210702588,-0.3594713045846049,-0.5884477578899822,-0.4150085710804187,0.9968898296356201,0.06957967579364777,-0.0370057038962841,38.88882446289062,10.03181076049805,-32.664794921875,2,103169.62951925,4,1,1582550281.788016,0,0,0,0,0,0,0,0,0,103167.420724,0,-3.147003,99.13444
1582550282.572156,113,0,1582550277.367315,41.20729940256221,29.07240360978655,161.2945,-1,-1,17.20949935913086,65,-9999,103170.412292875,0.9691925048828125,0.0962982177734375,-0.042816162109375,103170.407226875,1.980130789186759,1.534075328068509,-0.0699063867157908,0.005546156782656908,0.0397191196680069,-0.02587641961872578,-0.0211862325668335,0.02278286218643188,-0.004155814647674561,2,0.5936808480103437,-0.3594878475569797,-0.588265608169666,-0.4150362431286773,0.9968850016593933,0.06984946131706238,-0.03662307560443878,38.88882446289062,10.03181076049805,-32.664794921875,2,103169.62951925,4,1,1582550281.788016,0,0,0,0,0,0,0,0,0,103167.420724,0,-3.147003,99.13444
1582550282.582198,114,0,1582550277.367315,41.20729940256221,29.07240360978655,161.2945,-1,-1,17.20949935913086,65,-9999,103170.422332875,0.9650421142578125,0.0957489013671875,-0.0431671142578125,103170.417267875,1.98002404557035,1.534710059493564,-0.0701762346398568,0.01011347770690918,0.06343483924865723,-0.02669481001794338,-0.02682095766067505,0.02651145309209824,-0.006605088710784912,2,0.5938988226604125,-0.3595683123663933,-0.5880008247970891,-0.4150299335231022,0.9968892335891724,0.07011865079402924,-0.03598963469266891,38.85057067871094,10.02540969848633,-32.7464599609375,2,103169.62951925,4,1,1582550281.788016,0,0,0,0,0,0,0,0,0,103167.420724,0,-3.147003,99.13444
1582550282.592248,115,0,1582550277.367315,41.20729940256221,29.07240360978655,161.2945,-1,-1,17.20949935913086,65,-9999,103170.432373875,0.96038818359375,0.095916748046875,-0.04595947265625,103170.427307875,1.979881385366427,1.535707652705295,-0.07043365701320045,0.0126750823110342,0.100246325135231,-0.02503369189798832,-0.03108018636703491,0.02495764195919037,-0.007859647274017334,2,0.5942145391359626,-0.3597385664894771,-0.5876231534943713,-0.4149653239719296,0.9969065189361572,0.07037543505430222,-0.03499449044466019,38.85057067871094,10.02540969848633,-32.7464599609375,2,103169.62951925,4,1,1582550281.788016,0,0,0,0,0,0,0,0,0,103167.420724,0,-3.147003,99.13444
1582550282.625644,116,0,1582550277.367315,41.20729940256221,29.07240360978655,161.2945,-1,-1,17.20949935913086,65,-9999,103170.442413875,0.9668731689453125,0.0904998779296875,-0.0422821044921875,103170.437378875,1.979700247462414,1.537027308325649,-0.07072685550675839,0.0165110994130373,0.1338905692100525,-0.02711655013263226,-0.0362318754196167,0.02599266916513443,-0.01181596517562866,2,0.5946243433973946,-0.3599761056558871,-0.5871343627952609,-0.4148641007935306,0.9969310760498047,0.07066790759563446,-0.03367818892002106,39.07318115234375,10.16987228393555,-32.62298583984375,2,103169.62951925,4,1,1582550281.788016,0,0,0,0,0,0,0,0,0,103167.420724,0,-3.147003,99.13444
1582550282.626995,117,0,1582550277.367315,41.20729940256221,29.07240360978655,161.2945,-1,-1,17.20949935913086,65,-9999,103170.452453875,0.97418212890625,0.0898895263671875,-0.0332183837890625,103170.447418875,1.979498000516684,1.538469898901534,-0.07109527373836536,0.0183650329709053,0.1454022824764252,-0.03691424056887627,-0.03211820125579834,0.02045243233442307,-0.01189714670181274,2,0.5950800587328454,-0.3602223640233129,-0.5865891550002504,-0.414768108580358,0.9969525337219238,0.07103540003299713,-0.03223914280533791,39.07318115234375,10.16987228393555,-32.62298583984375,2,103169.62951925,4,1,1582550281.788016,0,0,0,0,0,0,0,0,0,103167.420724,0,-3.147003,99.13444
1582550282.62793,118,0,1582550277.367315,41.20729940256221,29.07240360978655,161.2945,-1,-1,17.20949935913086,65,-9999,103170.462494875,0.9730682373046875,0.0946502685546875,-0.0324859619140625,103170.457458875,1.979264209261819,1.53999145341109,-0.07149587087730155,0.02115975506603718,0.1533973664045334,-0.03997128456830978,-0.02347064018249512,0.01785554736852646,-0.003435790538787842,2,0.5955587400630327,-0.3604845787374693,-0.586007024237032,-0.4146761128080708,0.9969719052314758,0.07143497467041016,-0.03072131052613258,39.10675048828125,9.874454498291016,-32.45758056640625,2,103169.62951925,4,1,1582550281.788016,0,0,0,0,0,0,0,0,0,103167.420724,0,-3.147003,99.13444
1582550282.632389,119,0,1582550277.367315,41.20729940256221,29.07240360978655,161.2945,-1,-1,17.20949935913086,65,-9999,103170.472534875,0.974334716796875,0.0927276611328125,-0.02984619140625,103170.467498875,1.978983320473579,1.54157882699937,-0.07192302385659412,0.02696298994123936,0.1615069806575775,-0.0417533814907074,-0.0235181450843811,0.02200710028409958,-0.003249287605285645,2,0.5960525848651756,-0.3607664188122222,-0.5853897316866962,-0.4145934083431243,0.9969888925552368,0.07186102867126465,-0.02913781441748142,39.10675048828125,9.874454498291016,-32.45758056640625,2,103169.62951925,4,1,1582550281.788016,0,0,0,0,0,0,0,0,0,103167.420724,0,-3.147003,99.13444
1582550282.642753,120,0,1582550277.367315,41.20729940256221,29.07240360978655,161.2945,-1,-1,17.20949935913086,65,-9999,103170.482574875,0.9771881103515625,0.093841552734375,-0.0245361328125,103170.477539875,1.978691727911963,1.5431057873152,-0.07235795986831794,0.02803491242229939,0.1547401547431946,-0.04353849589824677,-0.02322500944137573,0.02126810699701309,-0.003292500972747803,2,0.5965276687072869,-0.3610366515829212,-0.5847861951567006,-0.4145267365361436,0.9970009922981262,0.07229483872652054,-0.02761455252766609,39.29130554199219,10.02463150024414,-32.4788818359375,2,103169.62951925,4,1,1582550281.788016,0,0,0,0,0,0,0,0,0,103167.420724,0,-3.147003,99.13444
1582550282.652401,121,0,1582550277.367315,41.20729940256221,29.07240360978655,161.2945,-1,-1,17.20949935913086,65,-9999,103170.492614875,0.9846038818359375,0.0930633544921875,-0.0177154541015625,103170.487579875,1.978395333740035,1.544469001475871,-0.07277585998598994,0.02835955284535885,0.1403188705444336,-0.04050862044095993,-0.02024078369140625,0.02005782723426819,0.0007489919662475586,2,0.5969503244265404,-0.3612796805732049,-0.5842334911196749,-0.4144859246014844,0.997007429599762,0.07271163910627365,-0.02625460550189018,39.29130554199219,10.02463150024414,-32.4788818359375,2,103169.62951925,4,1,1582550281.788016,0,0,0,0,0,0,0,0,0,103167.420724,0,-3.147003,99.13444
1582550282.690668,122,0,1582550277.367315,41.20729940256221,29.07240360978655,161.2945,-1,-1,17.20949935913086,65,-9999,103170.502655875,0.9921417236328125,0.0908966064453125,-0.0121002197265625,103170.497619875,1.978113217953798,1.545490849735588,-0.07324393177675398,0.02672703377902508,0.1029070615768433,-0.04648394882678986,-0.01493805646896362,0.02111685276031494,0.005741238594055176,2,0.597284797742716,-0.3614324320310002,-0.5837751065506439,-0.414516639260197,0.9969995021820068,0.07317846268415451,-0.02523493580520153,39.53529357910156,10.04780960083008,-32.4010009765625,2,103169.62951925,4,1,1582550281.788016,0,0,0,0,0,0,0,0,0,103167.420724,0,-3.147003,99.13444
1582550282.691987,123,0,1582550277.367315,41.20729940256221,29.07240360978655,161.2945,-1,-1,17.20949935913086,65,-9999,103170.512726875,0.98846435546875,0.094970703125,-0.015655517578125,103170.507660875,1.977872882181402,1.546204100513494,-0.07371905803551636,0.0236606989055872,0.07261215150356293,-0.04702366143465042,-0.005094468593597412,0.0163247361779213,0.01227700710296631,2,0.5975377835885542,-0.3615067313714047,-0.5834159377924003,-0.4145929313228402,0.9969823956489563,0.07365230470895767,-0.02452296018600464,39.53529357910156,10.04780960083008,-32.4010009765625,2,103169.62951925,4,1,1582550281.788016,0,0,0,0,0,0,0,0,0,103167.420724,0,-3.147003,99.13444
1582550282.693157,124,0,1582550277.367315,41.20729940256221,29.07240360978655,161.2945,-1,-1,17.20949935913086,65,-9999,103170.522766875,0.986663818359375,0.0925140380859375,-0.0153656005859375,103170.517700875,1.977663341259179,1.546657651058825,-0.07419089908908547,0.02083828113973141,0.04746498912572861,-0.04530991986393929,-0.007954597473144531,0.02072171121835709,0.008955299854278564,2,0.5977198135426868,-0.3615190951514548,-0.5831412824955768,-0.4147062409573683,0.9969586730003357,0.07412285357713699,-0.02406993694603443,39.64730834960938,9.993511199951172,-32.2130126953125,2,103169.62951925,4,1,1582550281.788016,0,0,0,0,0,0,0,0,0,103167.420724,0,-3.147003,99.13444
1582550282.694186,125,0,1582550277.367315,41.20729940256221,29.07240360978655,161.2945,-1,-1,17.20949935913086,65,-9999,103170.532806875,0.984405517578125,0.0951995849609375,-0.0167236328125,103170.527740875,1.977482216275641,1.546909982151111,-0.0746758963789686,0.01686428487300873,0.02713080123066902,-0.04716918617486954,-0.009923636913299561,0.0181628093123436,0.007909059524536133,2,0.5978507211613453,-0.3614771944331529,-0.582929767847457,-0.414851172161118,0.9969284534454346,0.0746065080165863,-0.0238175056874752,39.64730834960938,9.993511199951172,-32.2130126953125,2,103169.62951925,4,1,1582550281.788016,0,0,0,0,0,0,0,0,0,103167.420724,0,-3.147003,99.13444
1582550282.703137,126,0,1582550277.367315,41.20729940256221,29.07240360978655,161.2945,-1,-1,17.20949935913086,65,-9999,103170.542846875,0.98345947265625,0.0953216552734375,-0.0191497802734375,103170.537780875,1.977341455584772,1.54703922471869,-0.07515047616926238,0.01196406781673431,0.01425415277481079,-0.04465622454881668,-0.0119054913520813,0.0195053294301033,0.007596254348754883,2,0.5979510150283058,-0.3614009878390024,-0.5827655862087588,-0.4150037914247748,0.9968960881233215,0.07507976144552231,-0.02368781901896,39.63519287109375,10.12234115600586,-32.14947509765625,2,103169.62951925,4,1,1582550281.788016,0,0,0,0,0,0,0,0,0,103167.420724,0,-3.147003,99.13444
1582550282.712747,127,0,1582550277.367315,41.20729940256221,29.07240360978655,161.2945,-1,-1,17.20949935913086,65,-9999,103170.552887875,0.9825592041015625,0.100006103515625,-0.0155792236328125,103170.547821875,1.977175290561221,1.547044154501957,-0.07562176234020226,0.0161676574498415,0.0027286596596241,-0.04606404155492783,-0.01380807161331177,0.01999664306640625,0.004462242126464844,2,0.5980098946131709,-0.3613075367516568,-0.5826338238466837,-0.4151851793089383,0.9968606233596802,0.07554970681667328,-0.02368205972015858,39.63519287109375,10.12234115600586,-32.14947509765625,2,103169.62951925,4,1,1582550281.788016,0,0,0,0,0,0,0,0,0,103167.420724,0,-3.147003,99.13444
1582550282.739907,128,0,1582550277.367315,41.20729940256221,29.07240360978655,161.2945,-1,-1,17.20949935913086,65,-9999,103170.562927875,0.9781646728515625,0.1033477783203125,-0.0183563232421875,103170.557892875,1.976980758318941,1.546909893819538,-0.07598412585752921,0.01845051907002926,-0.01261674053966999,-0.03481245040893555,-0.01350277662277222,0.02274809032678604,0.007754027843475342,2,0.5980028746259806,-0.3612269928558752,-0.5825599142134253,-0.4153690418129907,0.9968300461769104,0.0759110301733017,-0.02381524257361889,39.56655883789062,10.33344650268555,-32.16619873046875,2,103169.62951925,4,1,1582550281.788016,0,0,0,0,0,0,0,0,0,103167.420724,0,-3.147003,99.13444
1582550282.744349,129,0,1582550277.367315,41.20729940256221,29.07240360978655,161.2945,-1,-1,17.20949935913086,65,-9999,103170.572967875,0.97540283203125,0.1024932861328125,-0.02301025390625,103170.567932875,1.9767658242896,1.546762815816022,-0.07625585405054452,0.02102356962859631,-0.01233784761279821,-0.02622108533978462,-0.01770555973052979,0.02688691020011902,0.006480753421783447,2,0.5979716441770506,-0.3611775665904146,-0.5825039577968576,-0.4155353354323046,0.9968057870864868,0.07618197053670883,-0.02396135590970516,39.56655883789062,10.33344650268555,-32.16619873046875,2,103169.62951925,4,1,1582550281.788016,0,0,0,0,0,0,0,0,0,103167.420724,0,-3.147003,99.13444
1582550282.745745,130,0,1582550277.367315,41.20729940256221,29.07240360978655,161.2945,-1,-1,17.20949935913086,65,-9999,103170.583007875,0.978912353515625,0.0991058349609375,-0.0224761962890625,103170.577972875,1.976558215354862,1.546599488748267,-0.07649692986583562,0.01972927153110504,-0.01503190025687218,-0.02321064472198486,-0.02126908302307129,0.02655495703220367,0.001684129238128662,2,0.5979312980142759,-0.3611319752176277,-0.5824606542676612,-0.4156938090238373,0.9967835545539856,0.07642234116792679,-0.02412371896207333,39.63833618164062,10.26303482055664,-32.1998291015625,2,103169.62951925,4,1,1582550281.788016,0,0,0,0,0,0,0,0,0,103167.420724,0,-3.147003,99.13444
1582550282.752923,131,0,1582550277.367315,41.20729940256221,29.07240360978655,161.2945,-1,-1,17.20949935913086,65,-9999,103170.593048875,0.98138427734375,0.095367431640625,-0.021820068359375,103170.588012875,1.976360981541054,1.546379744779688,-0.07672920555902445,0.01950041577219963,-0.02039764635264874,-0.02283970452845097,-0.01885038614273071,0.0231037512421608,0.00150609016418457,2,0.5978747773182044,-0.3610742154758388,-0.582438124051105,-0.4158569111043065,0.9967605471611023,0.07665394246578217,-0.02434232272207737,39.63833618164062,10.26303482055664,-32.1998291015625,2,103169.62951925,4,1,1582550281.788016,0,0,0,0,0,0,0,0,0,103167.420724,0,-3.147003,99.13444
1582550282.763028,132,0,1582550277.367315,41.20729940256221,29.07240360978655,161.2945,-1,-1,17.20949935913086,65,-9999,103170.603088875,0.9780120849609375,0.097137451171875,-0.0227813720703125,103170.598053875,1.976189773323985,1.54609051730714,-0.07698003132273888,0.01670596189796925,-0.02907262742519379,-0.02396276034414768,-0.01548248529434204,0.01888635754585266,0.002464950084686279,2,0.5978062168393712,-0.360988449444898,-0.5824378687258192,-0.4160300582718964,0.9967340230941772,0.07690402120351791,-0.02463013306260109,39.56645202636719,10.24014663696289,-32.2230224609375,2,103169.62951925,4,1,1582550281.788016,0,0,0,0,0,0,0,0,0,103167.420724,0,-3.147003,99.13444
1582550282.773068,133,0,1582550277.367315,41.20729940256221,29.07240360978655,161.2945,-1,-1,17.20949935913086,65,-9999,103170.613128875,0.9731597900390625,0.0987548828125,-0.028656005859375,103170.608093875,1.976024781075923,1.545885086992866,-0.07725577558416194,0.01617736928164959,-0.02012187801301479,-0.02669745683670044,-0.01728719472885132,0.01934385299682617,0.00282210111618042,2,0.5977677517929743,-0.3609106966868857,-0.5824089133438721,-0.4161935473800198,0.9967079162597656,0.0771789476275444,-0.02483436837792397,39.56645202636719,10.24014663696289,-32.2230224609375,2,103169.62951925,4,1,1582550281.788016,0,0,0,0,0,0,0,0,0,103167.420724,0,-3.147003,99.13444
1582550282.801575,134,0,1582550277.367315,41.20729940256221,29.07240360978655,161.2945,-1,-1,17.20949935913086,65,-9999,103170.623199875,0.973846435546875,0.103607177734375,-0.0282745361328125,103170.618133875,1.975886028046244,1.545849573112545,-0.07750399577511534,0.01285241357982159,-0.003012131899595261,-0.0239794347435236,-0.02311110496520996,0.02120207995176315,-0.002987086772918701,2,0.597778453473618,-0.3608687830935924,-0.5823400824203593,-0.4163107061100652,0.9966877698898315,0.07742642611265182,-0.0248692836612463,39.53486633300781,9.974224090576172,-32.20196533203125,2,103169.62951925,4,1,1582550281.788016,0,0,0,0,0,0,0,0,0,103167.420724,0,-3.147003,99.13444
1582550282.803175,135,0,1582550277.367315,41.20729940256221,29.07240360978655,161.2945,-1,-1,17.20949935913086,65,-9999,103170.633239875,0.97381591796875,0.104766845703125,-0.02880859375,103170.628174875,1.975774319260246,1.545990637393687,-0.0776799748367594,0.01170331984758377,0.01472581550478935,-0.01653546094894409,-0.02326899766921997,0.024505615234375,-0.0042724609375,2,0.5978319944989362,-0.3608777221145163,-0.5822388961214319,-0.4163677869617874,0.9966778159141541,0.07760187238454819,-0.02472835220396519,39.5299072265625,10.12083053588867,-32.37713623046875,2,103169.62951925,4,1,1582550281.788016,0,0,0,0,0,0,0,0,0,103167.420724,0,-3.147003,99.13444
1582550282.804226,136,0,1582550277.367315,41.20729940256221,29.07240360978655,161.2945,-1,-1,17.20949935913086,65,-9999,103170.643280875,0.9768524169921875,0.1014404296875,-0.0234222412109375,103170.638214875,1.975701493904491,1.546239235644222,-0.07778717813459267,0.00721429567784071,0.02704639732837677,-0.009003773331642151,-0.02282446622848511,0.02790825068950653,-0.003956198692321777,2,0.5979111242188478,-0.3609184137823815,-0.5821275466782201,-0.4163744717800405,0.9966754913330078,0.07770875841379166,-0.02448037266731262,39.5299072265625,10.12083053588867,-32.37713623046875,2,103169.62951925,4,1,1582550281.788016,0,0,0,0,0,0,0,0,0,103167.420724,0,-3.147003,99.13444
1582550282.813682,137,0,1582550277.367315,41.20729940256221,29.07240360978655,161.2945,-1,-1,17.20949935913086,65,-9999,103170.653320875,0.97509765625,0.099456787109375,-0.023712158203125,103170.648254875,1.975660791539089,1.546444657573984,-0.07786322553545162,0.003564311191439629,0.01746735163033009,-0.004807510413229465,-0.02058041095733643,0.02391091734170914,-0.001002490520477295,2,0.5979776866300089,-0.3609500559430394,-0.5820421317474285,-0.4163707642316591,0.9966745376586914,0.07778457552194595,-0.02427548728883266,39.53720092773438,10.30437088012695,-32.39923095703125,2,103169.62951925,4,1,1582550281.788016,0,0,0,0,0,0,0,0,0,103167.420724,0,-3.147003,99.13444
1582550282.823335,138,0,1582550277.367315,41.20729940256221,29.07240360978655,161.2945,-1,-1,17.20949935913086,65,-9999,103170.663360875,0.9750213623046875,0.0980682373046875,-0.02947998046875,103170.658294875,1.975637779506232,1.546827363863053,-0.07798450938971135,0.001871606102213264,0.04192422330379486,-0.01051333267241716,-0.02051937580108643,0.02212677150964737,0.002033591270446777,2,0.598107387335522,-0.3609995021209366,-0.5818981949331525,-0.4163427976251612,0.9966742992401123,0.07790549099445343,-0.02389382570981979,39.53720092773438,10.30437088012695,-32.39923095703125,2,103169.62951925,4,1,1582550281.788016,0,0,0,0,0,0,0,0,0,103167.420724,0,-3.147003,99.13444
1582550282.833271,139,0,1582550277.367315,41.20729940256221,29.07240360978655,161.2945,-1,-1,17.20949935913086,65,-9999,103170.673401875,0.98663330078125,0.095062255859375,-0.0168914794921875,103170.668335875,1.975645138559288,1.547156160749929,-0.07814565232779115,-0.002078625373542309,0.03360288962721825,-0.01515034213662148,-0.02318501472473145,0.02025711536407471,-0.006869852542877197,2,0.5982342190185281,-0.3610164894189264,-0.5817686085006041,-0.4163271226063689,0.9966697096824646,0.0780661404132843,-0.02356582693755627,39.5130615234375,10.43674087524414,-32.36578369140625,2,103169.62951925,4,1,1582550281.788016,0,0,0,0,0,0,0,0,0,103167.420724,0,-3.147003,99.13444
1582550282.856386,140,0,1582550277.367315,41.20729940256221,29.07240360978655,161.2945,-1,-1,17.20949935913086,65,-9999,103170.683441875,0.986053466796875,0.09576416015625,-0.0162811279296875,103170.678405875,1.97564588815141,1.547288722037894,-0.07832599721304796,-0.0004841908812522888,0.01190478354692459,-0.01640415750443935,-0.01195889711380005,0.01723917573690414,0.004365503787994385,2,0.5983063351136099,-0.3609886994513162,-0.5816923582032741,-0.4163541654500407,0.9966587424278259,0.07824593037366867,-0.0234333761036396,39.5130615234375,10.43674087524414,-32.36578369140625,2,103169.62951925,4,1,1582550281.788016,0,0,0,0,0,0,0,0,0,103167.420724,0,-3.147003,99.13444
1582550282.857158,141,0,1582550277.367315,41.20729940256221,29.07240360978655,161.2945,-1,-1,17.20949935913086,65,-9999,103170.693481875,0.983154296875,0.10064697265625,-0.017364501953125,103170.688446875,1.975629291213804,1.547317925467741,-0.07852320435040569,0.0007894784212112427,0.004007888957858086,-0.01852013915777206,-0.009960472583770752,0.01661531627178192,0.007753968238830566,2,0.5983483809936594,-0.3609394147016811,-0.5816399544992866,-0.416409670564773,0.9966439604759216,0.0784425362944603,-0.02340390719473362,39.47468566894531,10.33212661743164,-32.2406005859375,2,103169.62951925,4,1,1582550281.788016,0,0,0,0,0,0,0,0,0,103167.420724,0,-3.147003,99.13444
1582550282.863248,142,0,1582550277.367315,41.20729940256221,29.07240360978655,161.2945,-1,-1,17.20949935913086,65,-9999,103170.703521875,0.980682373046875,0.1024932861328125,-0.0190887451171875,103170.698486875,1.975608983148445,1.547264980647023,-0.07869608803868265,0.0003596444148570299,-0.003538178279995918,-0.01534458622336388,-0.01322633028030396,0.02118841558694839,0.005791902542114258,2,0.5983614063371332,-0.3608814946051284,-0.5816161867504293,-0.4164739879429001,0.9966288805007935,0.07861488312482834,-0.02345634810626507,39.47468566894531,10.33212661743164,-32.2406005859375,2,103169.62951925,4,1,1582550281.788016,0,0,0,0,0,0,0,0,0,103167.420724,0,-3.147003,99.13444
1582550282.874232,143,0,1582550277.367315,41.20729940256221,29.07240360978655,161.2945,-1,-1,17.20949935913086,65,-9999,103170.713562875,0.981231689453125,0.1029510498046875,-0.019744873046875,103170.708526875,1.975573346029339,1.547155532536342,-0.07883921042225268,0.002346495166420937,-0.008726364001631737,-0.01362188253551722,-0.01559269428253174,0.02354820072650909,0.004848241806030273,2,0.5983496386612585,-0.3608256190542661,-0.5816123888237089,-0.416544802271984,0.9966151714324951,0.07875756174325943,-0.02356516569852829,39.51858520507812,10.30998611450195,-32.15765380859375,2,103169.62951925,4,1,1582550281.788016,0,0,0,0,0,0,0,0,0,103167.420724,0,-3.147003,99.13444
1582550282.883303,144,0,1582550277.367315,41.20729940256221,29.07240360978655,161.2945,-1,-1,17.20949935913086,65,-9999,103170.723602875,0.9821624755859375,0.101898193359375,-0.0187835693359375,103170.718567875,1.975508939819889,1.546944568699061,-0.07892418931684325,0.006779060699045658,-0.01991590112447739,-0.007473176345229149,-0.01582527160644531,0.02398228645324707,0.003883421421051025,2,0.5982923864634508,-0.3607749867814178,-0.5816448214220706,-0.4166257960199972,0.9966036677360535,0.07884227484464645,-0.0237752590328455,39.51858520507812,10.30998611450195,-32.15765380859375,2,103169.62951925,4,1,1582550281.788016,0,0,0,0,0,0,0,0,0,103167.420724,0,-3.147003,99.13444
1582550282.893375,145,0,1582550277.367315,41.20729940256221,29.07240360978655,161.2945,-1,-1,17.20949935913086,65,-9999,103170.733642875,0.982147216796875,0.10174560546875,-0.019012451171875,103170.728607875,1.975429071266965,1.546624503820481,-0.07896124517639072,0.00835605151951313,-0.03163772448897362,-0.002830659039318562,-0.01442629098892212,0.02318238466978073,0.005392134189605713,2,0.5981917886746424,-0.3607208113293631,-0.5817162937942622,-0.4167171589624217,0.9965929388999939,0.078879214823246,-0.02409416064620018,39.39488220214844,10.38264846801758,-32.19464111328125,2,103169.62951925,4,1,1582550281.788016,0,0,0,0,0,0,0,0,0,103167.420724,0,-3.147003,99.13444
1582550282.905614,146,0,1582550277.367315,41.20729940256221,29.07240360978655,161.2945,-1,-1,17.20949935913086,65,-9999,103170.743713875,0.9780731201171875,0.1055450439453125,-0.021392822265625,103170.738647875,1.975338258865488,1.546259515595979,-0.07893956900197605,0.009218117222189903,-0.03477706015110016,0.002589406911283731,-0.0143885612487793,0.02260889112949371,0.005481302738189697,2,0.5980652437399196,-0.3606785173047729,-0.5818108986862016,-0.4168031829342063,0.9965856671333313,0.07885760813951492,-0.02445794269442558,39.39488220214844,10.38264846801758,-32.19464111328125,2,103169.62951925,4,1,1582550281.788016,0,0,0,0,0,0,0,0,0,103167.420724,0,-3.147003,99.13444
1582550282.913449,147,0,1582550277.367315,41.20729940256221,29.07240360978655,161.2945,-1,-1,17.20949935913086,65,-9999,103170.753753875,0.9721221923828125,0.107208251953125,-0.025421142578125,103170.748687875,1.975252592673239,1.545936911834995,-0.0788427592700338,0.008414072915911674,-0.03211264312267303,0.01070905849337578,-0.01728737354278564,0.02571140229701996,0.004109621047973633,2,0.5979379496582385,-0.3606665896918826,-0.5819093356982294,-0.4168589840287983,0.9965855479240417,0.07876110076904297,-0.02477963827550411,39.35939025878906,10.14483261108398,-32.25579833984375,2,103169.62951925,4,1,1582550281.788016,0,0,0,0,0,0,0,0,0,103167.420724,0,-3.147003,99.13444
1582550282.923746,148,0,1582550277.367315,41.20729940256221,29.07240360978655,161.2945,-1,-1,17.20949935913086,65,-9999,103170.763794875,0.969635009765625,0.104248046875,-0.0287017822265625,103170.758728875,1.975165243372938,1.54576056210574,-0.07868194330680922,0.008615408092737198,-0.01742877066135406,0.01703486405313015,-0.02362805604934692,0.02895399183034897,0.0002419352531433105,2,0.5978410879821739,-0.3607051211585753,-0.5819765546755796,-0.4168705038204552,0.9965936541557312,0.07860078662633896,-0.02495569735765457,39.35939025878906,10.14483261108398,-32.25579833984375,2,103169.62951925,4,1,1582550281.788016,0,0,0,0,0,0,0,0,0,103167.420724,0,-3.147003,99.13444
1582550282.933528,149,0,1582550277.367315,41.20729940256221,29.07240360978655,161.2945,-1,-1,17.20949935913086,65,-9999,103170.773834875,0.9693450927734375,0.1076507568359375,-0.0306549072265625,103170.768768875,1.97507400564606,1.545722877211983,-0.07840998391828068,0.009721806272864342,-0.003262961283326149,0.02776028588414192,-0.02665460109710693,0.02612758427858353,-0.002909064292907715,2,0.5977631672589826,-0.3608078414094132,-0.5820243268564499,-0.4168269075545786,0.9966142177581787,0.0783296599984169,-0.02499379403889179,39.35079956054688,10.22956466674805,-32.2987060546875,2,103169.62951925,4,1,1582550281.788016,0,0,0,0,0,0,0,0,0,103168.362463,0,-3.144363,99.13442
1582550282.943785,150,0,1582550277.367315,41.20729940256221,29.07240360978655,161.2945,-1,-1,17.20949935913086,65,-9999,103170.783874875,0.973541259765625,0.105377197265625,-0.028961181640625,103170.778808875,1.975017653038077,1.545814428029235,-0.07801780868585446,0.005231716670095921,0.01111358217895031,0.0394025593996048,-0.02772516012191772,0.0290210098028183,-0.00557863712310791,2,0.5977068888673516,-0.3609637347047803,-0.5820650661763923,-0.4167154972763093,0.9966469407081604,0.07793868333101273,-0.02490331418812275,39.35079956054688,10.22956466674805,-32.2987060546875,2,103169.62951925,4,1,1582550281.788016,0,0,0,0,0,0,0,0,0,103168.362463,0,-3.144363,99.13442
1582550282.95356,151,0,1582550277.367315,41.20729940256221,29.07240360978655,161.2945,-1,-1,17.20949935913086,65,-9999,103170.793914875,0.9787445068359375,0.1019439697265625,-0.02508544921875,103170.788879875,1.975006165716288,1.545942875429019,-0.07750031014733909,0.001646604156121612,0.01417858898639679,0.05312112346291542,-0.02432018518447876,0.02886559069156647,-0.005141019821166992,2,0.5976460974821785,-0.3611523118925259,-0.5821297818603967,-0.4165490136727195,0.9966904520988464,0.07742275297641754,-0.02477630041539669,39.47872924804688,10.17594528198242,-32.1138916015625,2,103169.62951925,4,1,1582550281.788016,0,0,0,0,0,0,0,0,0,103168.362463,0,-3.144363,99.13442
1582550282.966,152,0,1582550277.367315,41.20729940256221,29.07240360978655,161.2945,-1,-1,17.20949935913086,65,-9999,103170.803955875,0.98260498046875,0.1017303466796875,-0.0223846435546875,103170.798919875,1.975043375249863,1.546018778316115,-0.07687390932133338,-0.002573707140982151,0.006212277337908745,0.0638350173830986,-0.01886194944381714,0.02553814649581909,-0.00121772289276123,2,0.5975585653675333,-0.3613486384853462,-0.5822424400264213,-0.4163468409821665,0.9967406392097473,0.076798215508461,-0.02470184490084648,39.47872924804688,10.17594528198242,-32.1138916015625,2,103169.62951925,4,1,1582550281.788016,0,0,0,0,0,0,0,0,0,103168.362463,0,-3.144363,99.13442
1582550282.973807,153,0,1582550277.367315,41.20729940256221,29.07240360978655,161.2945,-1,-1,17.20949935913086,65,-9999,103170.813995875,0.987945556640625,0.096282958984375,-0.0208282470703125,103170.808960875,1.97510887304778,1.546030343041097,-0.07619193956516028,-0.005296763032674789,-0.0006251409649848938,0.07160034775733948,-0.01493185758590698,0.02560779452323914,0.001701772212982178,2,0.5974470454333982,-0.3615400716961223,-0.582391449697287,-0.4161322240428149,0.9967930316925049,0.07611824572086334,-0.02469160966575146,39.51382446289062,10.21120834350586,-32.1165771484375,2,103169.62951925,4,1,1582550281.788016,0,0,0,0,0,0,0,0,0,103168.362463,0,-3.144363,99.13442
1582550282.984007,154,0,1582550277.367315,41.20729940256221,29.07240360978655,161.2945,-1,-1,17.20949935913086,65,-9999,103170.824035875,1.007720947265625,0.082672119140625,-0.0127716064453125,103170.819000875,1.975208972784792,1.545829106797123,-0.07565503573406207,-0.009423330426216125,-0.01651276089251041,0.05463601648807526,-0.01064950227737427,0.0229388102889061,0.003703713417053223,2,0.5973067341025617,-0.361632490939307,-0.5825815870772078,-0.4159870616788257,0.9968286752700806,0.07558288425207138,-0.02489321306347847,39.51382446289062,10.21120834350586,-32.1165771484375,2,103169.62951925,4,1,1582550281.788016,0,0,0,0,0,0,0,0,0,103168.362463,0,-3.144363,99.13442
1582550282.993928,155,0,1582550277.367315,41.20729940256221,29.07240360978655,161.2945,-1,-1,17.20949935913086,65,-9999,103170.834076875,1.022781372070312,0.0823974609375,-0.009002685546875,103170.829040875,1.9753146838884,1.545130852157728,-0.07532201309730359,-0.006666719447821379,-0.0749046802520752,0.03689448162913322,0.006264925003051758,0.009797409176826477,0.01029032468795776,2,0.5970604333596135,-0.3615575903023105,-0.5828798402309449,-0.4159881013941602,0.9968363046646118,0.07525081187486649,-0.02558989636600018,39.44827270507812,9.993694305419922,-32.3262939453125,2,103169.62951925,4,1,1582550281.788016,0,0,0,0,0,0,0,0,0,103168.362463,0,-3.144363,99.13442
1582550283.003841,156,0,1582550277.367315,41.20729940256221,29.07240360978655,161.2945,-1,-1,17.20949935913086,65,-9999,103170.844116875,1.022918701171875,0.089141845703125,-0.0126800537109375,103170.839080875,1.975475470105074,1.544063383297464,-0.07524374977624651,-0.01440879516303539,-0.1100600063800812,0.0119348056614399,0.0237734317779541,0.005877643823623657,0.01831263303756714,2,0.596763715454263,-0.3613115032137205,-0.583247804755099,-0.416111971035284,0.9968143105506897,0.07517276704311371,-0.02665413171052933,39.44827270507812,9.993694305419922,-32.3262939453125,2,103169.62951925,4,1,1582550281.788016,0,0,0,0,0,0,0,0,0,103168.362463,0,-3.144363,99.13442
1582550283.014288,157,0,1582550277.367315,41.20729940256221,29.07240360978655,161.2945,-1,-1,17.20949935913086,65,-9999,103170.854156875,1.03118896484375,0.0897674560546875,-0.01409912109375,103170.849121875,1.975687262164826,1.542600067244184,-0.07545463755329368,-0.01969952695071697,-0.1455432772636414,-0.0195096842944622,0.02585887908935547,0.01285423338413239,0.01571202278137207,2,0.596414336482777,-0.3608791846349444,-0.5836855203001632,-0.4163741026288931,0.9967583417892456,0.07538305968046188,-0.02811230719089508,39.13554382324219,10.30559158325195,-32.221435546875,2,103169.62951925,4,1,1582550281.788016,0,0,0,0,0,0,0,0,0,103168.362463,0,-3.144363,99.13442
1582550283.026153,158,0,1582550277.367315,41.20729940256221,29.07240360978655,161.2945,-1,-1,17.20949935913086,65,-9999,103170.864227875,1.033462524414062,0.10284423828125,-0.0049285888671875,103170.859161875,1.975954304386612,1.540650565805652,-0.07595961606357218,-0.03229042142629623,-0.1944634020328522,-0.04494740068912506,0.03387296199798584,0.01370870321989059,0.01641792058944702,2,0.595987360569049,-0.3602387080005059,-0.5842197513070141,-0.416790489783408,0.9966633319854736,0.07588659226894379,-0.03005427867174149,39.13554382324219,10.30559158325195,-32.221435546875,2,103169.62951925,4,1,1582550281.788016,0,0,0,0,0,0,0,0,0,103168.362463,0,-3.144363,99.13442
1582550283.033934,159,0,1582550277.367315,41.20729940256221,29.07240360978655,161.2945,-1,-1,17.20949935913086,65,-9999,103170.874267875,1.036407470703125,0.1183624267578125,0.0160369873046875,103170.869201875,1.976024442968519,1.537896590946622,-0.0767791401052173,-0.004695568233728409,-0.2778147459030151,-0.08089536428451538,0.03524273633956909,0.0210244357585907,0.02277708053588867,2,0.5953478150806045,-0.359391895617126,-0.5848883926197297,-0.4174971420659569,0.9965142607688904,0.07670372724533081,-0.03279688954353333,38.885986328125,10.14426803588867,-32.3975830078125,2,103169.62951925,4,1,1582550281.788016,0,0,0,0,0,0,0,0,0,103168.362463,0,-3.144363,99.13442
1582550283.043966,160,0,1582550277.367315,41.20729940256221,29.07240360978655,161.2945,-1,-1,17.20949935913086,65,-9999,103170.884308875,1.02294921875,0.127960205078125,0.0192718505859375,103170.879242875,1.975972480159224,1.534200774105645,-0.07772413201773096,0.00257832370698452,-0.3683440983295441,-0.08758256584405899,0.04221844673156738,0.04010174423456192,0.05132901668548584,2,0.5944331500893609,-0.3583444815779636,-0.5857853910726228,-0.4184421951925699,0.9963133931159973,0.07764589786529541,-0.03647692501544952,38.885986328125,10.14426803588867,-32.3975830078125,2,103169.62951925,4,1,1582550281.788016,0,0,0,0,0,0,0,0,0,103168.362463,0,-3.144363,99.13442
1582550283.05401,161,0,1582550277.367315,41.20729940256221,29.07240360978655,161.2945,-1,-1,17.20949935913086,65,-9999,103170.894348875,1.028350830078125,0.1504669189453125,0.04156494140625,103170.889282875,1.975607098937147,1.529557286109419,-0.0789352567662386,0.03661084920167923,-0.4648321866989136,-0.1227822154760361,0.02772283554077148,0.04394492506980896,0.05733990669250488,2,0.593232870338297,-0.3571068100738657,-0.5868423759000692,-0.4197206136457491,0.996038556098938,0.0788533091545105,-0.04109897464513779,38.64982604980469,10.05849838256836,-32.81402587890625,2,103169.62951925,4,1,1582550281.788016,0,0,0,0,0,0,0,0,0,103168.362463,0,-3.144363,99.13442
1582550283.064041,162,0,1582550277.367315,41.20729940256221,29.07240360978655,161.2945,-1,-1,17.20949935913086,65,-9999,103170.904388875,0.991455078125,0.1665802001953125,0.042694091796875,103170.899322875,1.974842906696031,1.524235204886777,-0.08013825556337793,0.07171743363142014,-0.5258747935295105,-0.1211121529340744,0.03432261943817139,0.0683957040309906,0.08430403470993042,2,0.5917587545605661,-0.355842818567538,-0.5880152182050071,-0.4212311925744163,0.9957104921340942,0.08005250990390778,-0.04639492928981781,38.64982604980469,10.05849838256836,-32.81402587890625,2,103169.62951925,4,1,1582550281.788016,0,0,0,0,0,0,0,0,0,103168.362463,0,-3.144363,99.13442
1582550283.074101,163,0,1582550277.367315,41.20729940256221,29.07240360978655,161.2945,-1,-1,17.20949935913086,65,-9999,103170.914428875,1.091339111328125,0.1958770751953125,0.0401153564453125,103170.909393875,1.973379789469163,1.518331076245387,-0.08120747237158288,0.1313723772764206,-0.5624032020568848,-0.1052096635103226,-0.000975191593170166,0.08101700246334076,0.09798991680145264,2,0.5899621122338075,-0.354697797783339,-0.5892345586207403,-0.423009068066257,0.9953328967094421,0.08111824840307236,-0.05226835608482361,38.36296081542969,10.3618278503418,-33.17254638671875,2,103169.62951925,4,1,1582550281.788016,0,0,0,0,0,0,0,0,0,103168.362463,0,-3.144363,99.13442
1582550283.086869,164,0,1582550277.367315,41.20729940256221,29.07240360978655,161.2945,-1,-1,17.20949935913086,65,-9999,103170.924469875,1.0450439453125,0.466888427734375,0.4053192138671875,103170.919433875,1.969711681398514,1.513519271657925,-0.08276970652539378,0.2956036627292633,-0.5015393495559692,-0.1810234636068344,0.05958098173141479,0.1025922745466232,0.09195315837860107,2,0.5881885791571454,-0.3542729403653848,-0.5895581750066363,-0.425377392719328,0.9949421882629395,0.08267523348331451,-0.05704975873231888,38.36296081542969,10.3618278503418,-33.17254638671875,2,103169.62951925,4,1,1582550281.788016,0,0,0,0,0,0,0,0,0,103168.362463,0,-3.144363,99.13442
1582550283.094213,165,0,1582550277.367315,41.20729940256221,29.07240360978655,161.2945,-1,-1,17.20949935913086,65,-9999,103170.934509875,0.5309295654296875,1.094589233398438,1.123001098632812,103170.929474875,1.957757627645305,1.5143062467974,-0.08397390563021075,1.176773071289062,0.1914641559123993,-0.18320432305336,0.1297351121902466,0.2800573110580444,0.321236252784729,2,0.5865211542874226,-0.3575785111235212,-0.5865288658545973,-0.4290855342051808,0.9948866963386536,0.08387524634599686,-0.0562610886991024,37.99978637695312,10.41975021362305,-33.29656982421875,2,103169.62951925,4,1,1582550281.788016,0,0,0,0,0,0,0,0,0,103168.362463,0,-3.144363,99.13442
1582550283.104076,166,0,1582550277.367315,41.20729940256221,29.07240360978655,161.2945,-1,-1,17.20949935913086,65,-9999,103170.944549875,1.039138793945312,1.006118774414062,0.85540771484375,103170.939514875,1.935950050079544,1.518982691397676,-0.08524475946954584,2.192905426025391,0.6926771998405457,-0.2299079149961472,-0.4164913296699524,0.919736385345459,1.089892745018005,2,0.5841920245542759,-0.3645798718598143,-0.5801876997896114,-0.4349520784204416,0.9950315952301025,0.08514155447483063,-0.05160238966345787,37.99978637695312,10.41975021362305,-33.29656982421875,2,103169.62951925,4,1,1582550281.788016,0,0,0,0,0,0,0,0,0,103168.362463,0,-3.144363,99.13442
1582550283.114165,167,0,1582550277.367315,41.20729940256221,29.07240360978655,161.2945,-1,-1,17.20949935913086,65,-9999,103170.954590875,1.209121704101562,0.87890625,0.5709991455078125,103170.949554875,1.908652589977969,1.523712100360903,-0.08801868727486546,2.712291479110718,0.6704558134078979,-0.4077005386352539,-0.1072803735733032,0.9751544594764709,1.009140372276306,2,0.5810637042214486,-0.3727232964354185,-0.572237770720665,-0.4427034187559657,0.9950249791145325,0.08790507912635803,-0.04688463360071182,38.15525817871094,9.287693023681641,-33.38970947265625,2,103169.62951925,4,1,1582550281.788016,0,0,0,0,0,0,0,0,0,103168.362463,0,-3.144363,99.13442
1582550283.124429,168,0,1582550277.367315,41.20729940256221,29.07240360978655,161.2945,-1,-1,17.20949935913086,65,-9999,103170.964630875,0.9595947265625,0.793304443359375,0.52154541015625,103170.959594875,1.878508336058738,1.530479535835505,-0.090729586256763,2.98608136177063,0.9799662828445435,-0.4306378364562988,0.2689332962036133,0.7871056795120239,0.6269069314002991,2,0.5778331085097594,-0.3821503034843057,-0.5629613419251853,-0.4507156532753643,0.9950776696205139,0.09060516208410263,-0.04014008864760399,38.15525817871094,9.287693023681641,-33.38970947265625,2,103169.62951925,4,1,1582550281.788016,0,0,0,0,0,0,0,0,0,103168.362463,0,-3.144363,99.13442
1582550283.13427,169,0,1582550277.367315,41.20729940256221,29.07240360978655,161.2945,-1,-1,17.20949935913086,65,-9999,103170.974701875,1.286880493164062,0.5388946533203125,0.249053955078125,103170.969635875,1.84750432599676,1.535704847713956,-0.0905697905158221,3.071664810180664,0.812499463558197,-0.08530040085315704,-0.03770428895950317,0.7474088668823242,0.5810117721557617,2,0.5732576949103853,-0.3923077598806583,-0.5544464896815532,-0.4583220987222997,0.995288074016571,0.09044601768255234,-0.03494047373533249,38.6177978515625,7.640102386474609,-32.96295166015625,2,103169.62951925,4,1,1582550281.788016,0,0,0,0,0,0,0,0,0,103168.362463,0,-3.144363,99.13442
1582550283.147161,170,0,1582550277.367315,41.20729940256221,29.07240360978655,161.2945,-1,-1,17.20949935913086,65,-9999,103170.984741875,1.516555786132812,0.527496337890625,-0.0064239501953125,103170.979675875,1.816742310660539,1.535234629965226,-0.08893328460721998,3.059969663619995,0.2394953221082687,0.07667917758226395,0.214378297328949,0.4860079288482666,0.3505434989929199,2,0.566685644844179,-0.40144804593408,-0.5478350605889565,-0.4664585507841209,0.9954182505607605,0.08881609886884689,-0.03541369363665581,38.6177978515625,7.640102386474609,-32.96295166015625,2,103169.62951925,4,1,1582550281.788016,0,0,0,0,0,0,0,0,0,103168.362463,0,-3.144363,99.13442
1582550283.154602,171,0,1582550277.367315,41.20729940256221,29.07240360978655,161.2945,-1,-1,17.20949935913086,65,-9999,103170.994781875,1.46856689453125,0.582275390625,-0.03271484375,103170.989715875,1.785834074164192,1.528130317335579,-0.08843551480564407,3.058524370193481,-0.4519550204277039,-0.06804737448692322,0.4977529048919678,0.4272386133670807,0.06937789916992188,2,0.5583838745017726,-0.4086126018181877,-0.5426625607382441,-0.4761937374304048,0.9951855540275574,0.0883202850818634,-0.04248638078570366,38.307861328125,5.914585113525391,-32.99725341796875,2,103170.986969875,4,1,1582550283.145466,0,0,0,0,0,0,0,0,0,103168.362463,0,-3.144363,99.13442
1582550283.164546,172,0,1582550277.367315,41.20729940256221,29.07240360978655,161.2945,-1,-1,17.20949935913086,65,-9999,103171.004821875,1.166961669921875,0.5474395751953125,0.0575408935546875,103170.999756875,1.753726285463134,1.516318677467139,-0.08955421219325402,3.173014402389526,-0.9204928874969482,-0.2729600369930267,0.5069683194160461,0.4866864085197449,0.01194125413894653,2,0.5488298207138589,-0.414330275149862,-0.5379377686095078,-0.4875849888809196,0.9945150017738342,0.08943455666303635,-0.05423250049352646,38.307861328125,5.914585113525391,-32.99725341796875,2,103170.986969875,4,1,1582550283.145466,0,0,0,0,0,0,0,0,0,103168.362463,0,-3.144363,99.13442
1582550283.174645,173,0,1582550277.367315,41.20729940256221,29.07240360978655,161.2945,-1,-1,17.20949935913086,65,-9999,103171.014862875,0.8209075927734375,0.39300537109375,0.115234375,103171.009796875,1.719803745196394,1.503700123198179,-0.09124724843103606,3.350744247436523,-0.9665092825889587,-0.3841874301433563,0.2458911538124084,0.473571389913559,0.1051347255706787,2,0.5387547704188473,-0.4199521637011701,-0.5326000506181873,-0.499720648710983,0.9935991764068604,0.09112068265676498,-0.06676695495843887,37.51655578613281,3.966602325439453,-33.71881103515625,2,103170.986969875,4,1,1582550283.145466,0,0,0,0,0,0,0,0,0,103168.362463,0,-3.144363,99.13442
1582550283.185038,174,0,1582550277.367315,41.20729940256221,29.07240360978655,161.2945,-1,-1,17.20949935913086,65,-9999,103171.024902875,0.6456451416015625,0.1973876953125,0.079437255859375,103171.019836875,1.684369865081742,1.492781328881797,-0.09235747817877774,3.504884004592896,-0.7629441618919373,-0.3674012720584869,-0.1114041209220886,0.3382036685943604,0.1879323124885559,2,0.5286217266203922,-0.4263299266056605,-0.5262911129118668,-0.5116830333854366,0.9927093982696533,0.09222623705863953,-0.07760372757911682,37.51655578613281,3.966602325439453,-33.71881103515625,2,103170.986969875,4,1,1582550283.145466,0,0,0,0,0,0,0,0,0,103168.362463,0,-3.144363,99.13442
1582550283.194605,175,0,1582550277.367315,41.20729940256221,29.07240360978655,161.2945,-1,-1,17.20949935913086,65,-9999,103171.034942875,0.6505584716796875,0.0120391845703125,-0.0470123291015625,103171.029907875,1.648526461739029,1.48398932257702,-0.0928255353115687,3.539829254150391,-0.5367449522018433,-0.33901247382164,-0.3287798762321472,0.143340602517128,0.1811051964759827,2,0.5187304210117711,-0.433308625944619,-0.519208569402507,-0.5230533701924189,0.9919456243515015,0.09269228577613831,-0.08632476627826691,36.76332092285156,1.926559448242188,-34.27032470703125,2,103170.986969875,4,1,1582550283.145466,0,0,0,0,0,0,0,0,0,103168.362463,0,-3.144363,99.13442
1582550283.207888,176,0,1582550277.367315,41.20729940256221,29.07240360978655,161.2945,-1,-1,17.20949935913086,65,-9999,103171.044983875,0.731597900390625,-0.1464385986328125,-0.198638916015625,103171.039947875,1.614188202088024,1.476569403735689,-0.09292882673777446,3.401072978973389,-0.4129377603530884,-0.3185013234615326,-0.3507465124130249,-0.04543717205524445,0.07687485218048096,2,0.5093438993833664,-0.4401454387431199,-0.512019857953922,-0.5335506553022049,0.9912681579589844,0.09279513359069824,-0.09368156641721725,36.76332092285156,1.926559448242188,-34.27032470703125,2,103170.986969875,4,1,1582550283.145466,0,0,0,0,0,0,0,0,0,103168.362463,0,-3.144363,99.13442
