loggingTime,loggingSample,identifierForVendor,locationTimestamp_since1970,locationLatitude,locationLongitude,locationAltitude,locationSpeed,locationCourse,locationVerticalAccuracy,locationHorizontalAccuracy,locationFloor,accelerometerTimestamp_sinceReboot,accelerometerAccelerationX,accelerometerAccelerationY,accelerometerAccelerationZ,motionTimestamp_sinceReboot,motionYaw,motionRoll,motionPitch,motionRotationRateX,motionRotationRateY,motionRotationRateZ,motionUserAccelerationX,motionUserAccelerationY,motionUserAccelerationZ,motionAttitudeReferenceFrame,motionQuaternionX,motionQuaternionY,motionQuaternionZ,motionQuaternionW,motionGravityX,motionGravityY,motionGravityZ,motionMagneticFieldX,motionMagneticFieldY,motionMagneticFieldZ,motionMagneticFieldCalibrationAccuracy,activityTimestamp_sinceReboot,activity,activityActivityConfidence,activityActivityStartDate,pedometerStartDate,pedometerNumberofSteps,pedometerAverageActivePace,pedometerCurrentPace,pedometerCurrentCadence,pedometerDistance,pedometerFloorAscended,pedometerFloorDescended,pedometerEndDate,altimeterTimestamp_sinceReboot,altimeterReset,altimeterRelativeAltitude,altimeterPressure
1580908989.624611,1,0,1580907286.99823,41.20781296037784,29.0754925099451,275.2123,0.1345286,-1,23.46983528137207,200,-9999,12705.38521429167,0.973358154296875,0.0927581787109375,-0.1407012939453125,12705.37517429167,-1.352850605910042,1.418861533818397,-0.09177700785235657,-0.004105911590158939,-0.003976376727223396,0.01036807987838984,-0.008440613746643066,-0.0009099096059799194,0.01474511623382568,2,0.3802131028159057,0.5292268125110257,-0.4977758436084739,0.5723427476670739,0.9843200445175171,0.09164822101593018,-0.1507139503955841,22.79370880126953,-0.3966197967529297,-38.10247802734375,2,12705.25521029167,1,2,1580908989.496377,1580903939.50652,3150,0.4829289,0,0,3826.889,14,17,1580908979.606627,12702.687943,0,11.23251,97.07269
1580908989.626296,2,0,1580907286.99823,41.20781296037784,29.0754925099451,275.2123,0.1345286,-1,23.46983528137207,200,-9999,12705.39528529167,0.97320556640625,0.0904998779296875,-0.1405181884765625,12705.38521429167,-1.352870389131543,1.418804503760885,-0.09173854150151146,0.003801466897130013,-0.004139259457588196,0.005050871521234512,-0.01431018114089966,0.0009901523590087891,0.007355749607086182,2,0.3802158537204335,0.5291980619212208,-0.4977830144712236,0.5723613193881294,0.9843149781227112,0.09160991758108139,-0.1507706344127655,22.79370880126953,-0.3966197967529297,-38.10247802734375,2,12705.25521029167,1,2,1580908989.496377,1580903939.50652,3150,0.4829289,0,0,3826.889,14,17,1580908979.606627,12702.687943,0,11.23251,97.07269
1580908989.627353,3,0,1580907286.99823,41.20781296037784,29.0754925099451,275.2123,0.1345286,-1,23.46983528137207,200,-9999,12705.40532629167,0.9671783447265625,0.0929718017578125,-0.1440277099609375,12705.39528529167,-1.352860005379403,1.418694581014507,-0.09176285433876517,-0.003380279522389174,-0.01257109362632036,-0.002179344184696674,-0.01493221521377563,-0.001307711005210876,0.006823122501373291,2,0.3801783202381323,0.5291740694596969,-0.4978068487940709,0.5723877461771422,0.9842962622642517,0.0916341245174408,-0.1508785039186478,22.84435272216797,-0.4545726776123047,-38.2913818359375,2,12705.25521029167,1,2,1580908989.496377,1580903939.50652,3150,0.4829289,0,0,3826.889,14,17,1580908979.606627,12702.687943,0,11.23251,97.07269
1580908989.628369,4,0,1580907286.99823,41.20781296037784,29.0754925099451,275.2123,0.1345286,-1,23.46983528137207,200,-9999,12705.41536629167,0.9661407470703125,0.094635009765625,-0.1435089111328125,12705.40532629167,-1.352874464559812,1.418642094089922,-0.09179794746614606,0.0009401664137840271,-0.004093186929821968,-0.004049682524055243,-0.02061259746551514,0.0005950629711151123,0.003715872764587402,2,0.3801584132014853,0.5291642008277486,-0.4978294694812488,0.5723903219890109,0.9842850565910339,0.09166907519102097,-0.1509296596050262,22.84435272216797,-0.4545726776123047,-38.2913818359375,2,12705.25521029167,1,2,1580908989.496377,1580903939.50652,3150,0.4829289,0,0,3826.889,14,17,1580908979.606627,12702.687943,0,11.23251,97.07269
1580908989.629354,5,0,1580907286.99823,41.20781296037784,29.0754925099451,275.2123,0.1345286,-1,23.46983528137207,200,-9999,12705.42540629167,0.9644927978515625,0.0947723388671875,-0.1445159912109375,12705.41536629167,-1.352872667555134,1.418598723730534,-0.09179721447752708,-0.001600409857928753,-0.003131089732050896,0.001492829993367195,-0.02216243743896484,0.002670973539352417,0.003713011741638184,2,0.3801473780931597,0.529151958198011,-0.49783701509427,0.5724023683024076,0.9842785596847534,0.09166834503412247,-0.1509723514318466,22.76686859130859,-0.3779201507568359,-38.0384521484375,2,12705.25521029167,1,2,1580908989.496377,1580903939.50652,3150,0.4829289,0,0,3826.889,14,17,1580908979.606627,12702.687943,0,11.23251,97.07269
1580908989.63581,6,0,1580907286.99823,41.20781296037784,29.0754925099451,275.2123,0.1345286,-1,23.46983528137207,200,-9999,12705.43544629167,0.9646759033203125,0.0936431884765625,-0.144073486328125,12705.42540629167,-1.35289035108654,1.418569935646316,-0.09178062131974304,0.0009435946121811867,-0.002831945195794106,0.001221068203449249,-0.02318191528320312,0.002641782164573669,0.003253340721130371,2,0.3801499469811492,0.5291366156382445,-0.4978435210611695,0.5724091963102315,0.9842756986618042,0.09165181964635849,-0.1510009169578552,22.76686859130859,-0.3779201507568359,-38.0384521484375,2,12705.25521029167,1,2,1580908989.496377,1580903939.50652,3150,0.4829289,0,0,3826.889,14,17,1580908979.606627,12702.687943,0,11.23251,97.07269
1580908989.662009,7,0,1580907286.99823,41.20781296037784,29.0754925099451,275.2123,0.1345286,-1,23.46983528137207,200,-9999,12705.44548729167,0.9710845947265625,0.09429931640625,-0.139862060546875,12705.43544629167,-1.352926070864204,1.418524456989368,-0.09172355455070502,0.005109311081469059,-0.002830082550644875,0.005421405658125877,-0.02433985471725464,0.001798570156097412,0.003192305564880371,2,0.3801654870034129,0.5291039281972244,-0.4978485295922566,0.5724247024954663,0.9842739701271057,0.09159499406814575,-0.1510464698076248,22.82673645019531,-0.6477832794189453,-37.88946533203125,2,12705.25521029167,1,2,1580908989.496377,1580903939.50652,3150,0.4829289,0,0,3826.889,14,17,1580908979.606627,12702.687943,0,11.23251,97.07269
1580908989.663258,8,0,1580907286.99823,41.20781296037784,29.0754925099451,275.2123,0.1345286,-1,23.46983528137207,200,-9999,12705.45552729167,0.9637451171875,0.091339111328125,-0.144561767578125,12705.44548729167,-1.352935383582729,1.418443365804448,-0.09163665384168644,0.001855685375630856,-0.009098236449062824,0.008298923261463642,-0.01701104640960693,0.002480566501617432,0.007851600646972656,2,0.3801742289617728,0.5290593551098476,-0.4978455275556029,0.5724628030856668,0.9842696785926819,0.09150845557451248,-0.151127502322197,22.71692657470703,-0.5117702484130859,-38.0374755859375,2,12705.25521029167,1,2,1580908989.496377,1580903939.50652,3150,0.4829289,0,0,3826.889,14,17,1580908979.606627,12702.687943,0,11.23251,97.07269
1580908989.665918,9,0,1580907286.99823,41.20781296037784,29.0754925099451,275.2123,0.1345286,-1,23.46983528137207,200,-9999,12705.46556729167,0.9707183837890625,0.0931549072265625,-0.1411895751953125,12705.45552729167,-1.35294921541503,1.418398425452863,-0.09153766335038485,0.003419759683310986,-0.004623327404260635,0.009103198535740376,-0.02423059940338135,-0.0001517385244369507,0.003487527370452881,2,0.3801969060402676,0.5290215112945054,-0.4978339870589224,0.5724926835849273,0.984271764755249,0.09140988439321518,-0.1511730998754501,22.71692657470703,-0.5117702484130859,-38.0374755859375,2,12705.25521029167,1,2,1580908989.496377,1580903939.50652,3150,0.4829289,0,0,3826.889,14,17,1580908979.606627,12702.687943,0,11.23251,97.07269
1580908989.676029,10,0,1580907286.99823,41.20781296037784,29.0754925099451,275.2123,0.1345286,-1,23.46983528137207,200,-9999,12705.47560829167,0.9728240966796875,0.0924835205078125,-0.1409912109375,12705.46556729167,-1.352974986287753,1.418302294124395,-0.09144133187733097,0.003991277888417244,-0.009725820273160934,0.009113169275224209,-0.01842623949050903,0.001211062073707581,0.006346046924591064,2,0.3802091068670349,0.5289673817869283,-0.4978362795192722,0.5725327787310145,0.9842661023139954,0.09131395071744919,-0.1512690931558609,22.88614654541016,-0.4837551116943359,-37.8507080078125,2,12705.25521029167,1,2,1580908989.496377,1580903939.50652,3150,0.4829289,0,0,3826.889,14,17,1580908979.606627,12702.687943,0,11.23251,97.07269
1580908989.686044,11,0,1580907286.99823,41.20781296037784,29.0754925099451,275.2123,0.1345286,-1,23.46983528137207,200,-9999,12705.48567829167,0.9771575927734375,0.0929412841796875,-0.138671875,12705.47560829167,-1.353008842324721,1.418141859452023,-0.09134792644715449,0.003842674195766449,-0.01529369130730629,0.008378137834370136,-0.01583170890808105,0.00124339759349823,0.006978631019592285,2,0.3802066599409942,0.5288939040823226,-0.4978537700376315,0.5725869058845073,0.9842500686645508,0.09122093766927719,-0.1514282673597336,22.88614654541016,-0.4837551116943359,-37.8507080078125,2,12705.25521029167,1,2,1580908989.496377,1580903939.50652,3150,0.4829289,0,0,3826.889,14,17,1580908979.606627,12702.687943,0,11.23251,97.07269
1580908989.69601,12,0,1580907286.99823,41.20781296037784,29.0754925099451,275.2123,0.1345286,-1,23.46983528137207,200,-9999,12705.49571929167,0.9776611328125,0.093170166015625,-0.138336181640625,12705.48567829167,-1.35306582601683,1.417850715996468,-0.09126609082205156,0.007151412777602673,-0.02807588689029217,0.007274322211742401,-0.01144599914550781,0.001142114400863647,0.009464800357818604,2,0.3801742026147686,0.5287812377204069,-0.4979055664753753,0.5726674732058359,0.9842133522033691,0.09113944321870804,-0.151715949177742,22.95341491699219,-0.4842281341552734,-37.74566650390625,2,12705.25521029167,1,2,1580908989.496377,1580903939.50652,3150,0.4829289,0,0,3826.889,14,17,1580908979.606627,12702.687943,0,11.23251,97.07269
1580908989.722061,13,0,1580907286.99823,41.20781296037784,29.0754925099451,275.2123,0.1345286,-1,23.46983528137207,200,-9999,12705.50575929167,0.976348876953125,0.093536376953125,-0.1372833251953125,12705.49571929167,-1.353129749909179,1.417394407670742,-0.0912009720940221,0.007423854433000088,-0.04509854689240456,0.004691055975854397,-0.01040565967559814,0.001726046204566956,0.01040506362915039,2,0.3800972908277363,0.5286237416706332,-0.4979948260251106,0.5727864832335831,0.9841500520706177,0.09107459336519241,-0.1521659791469574,22.95341491699219,-0.4842281341552734,-37.74566650390625,2,12705.25521029167,1,2,1580908989.496377,1580903939.50652,3150,0.4829289,0,0,3826.889,14,17,1580908979.606627,12702.687943,0,11.23251,97.07269
1580908989.723531,14,0,1580907286.99823,41.20781296037784,29.0754925099451,275.2123,0.1345286,-1,23.46983528137207,200,-9999,12705.51579929167,0.9697265625,0.0930938720703125,-0.14080810546875,12705.50575929167,-1.353193149829056,1.416753656112036,-0.09113143546753853,0.008211514912545681,-0.06375594437122345,0.006178958341479301,-0.01156514883041382,0.002070233225822449,0.01206129789352417,2,0.3799757525284259,0.5284124193366516,-0.4981178413343184,0.572954927697641,0.9840583801269531,0.0910053476691246,-0.1527974903583527,22.79714202880859,-0.5005207061767578,-37.56536865234375,2,12705.25521029167,1,2,1580908989.496377,1580903939.50652,3150,0.4829289,0,0,3826.889,14,17,1580908979.606627,12702.687943,0,11.23251,97.07269
1580908989.72625,15,0,1580907286.99823,41.20781296037784,29.0754925099451,275.2123,0.1345286,-1,23.46983528137207,200,-9999,12705.52583929167,0.96527099609375,0.0951385498046875,-0.145263671875,12705.51579929167,-1.353282866695364,1.416024484557564,-0.09106052937945248,0.00976839940994978,-0.07306315749883652,0.006478563882410526,-0.0174257755279541,0.001774877309799194,0.009898781776428223,2,0.3798393929489966,0.5281704552548561,-0.4982648881411704,0.5731407248784474,0.9839532375335693,0.09093473851680756,-0.1535160094499588,22.79714202880859,-0.5005207061767578,-37.56536865234375,2,12705.25521029167,1,2,1580908989.496377,1580903939.50652,3150,0.4829289,0,0,3826.889,14,17,1580908979.606627,12702.687943,0,11.23251,97.07269
1580908989.736281,16,0,1580907286.99823,41.20781296037784,29.0754925099451,275.2123,0.1345286,-1,23.46983528137207,200,-9999,12705.53588029167,0.965972900390625,0.0917205810546875,-0.1453094482421875,12705.52583929167,-1.353447717358045,1.415316156803901,-0.09100798692180292,0.01810555532574654,-0.06997109204530716,0.002890410833060741,-0.02267700433731079,0.00378049910068512,0.005731463432312012,2,0.3797225106224877,0.5279242285997732,-0.4984338786220391,0.5732978937009751,0.9838488101959229,0.09088241308927536,-0.1542136520147324,22.50872802734375,-0.4143085479736328,-37.73504638671875,2,12705.25521029167,1,2,1580908989.496377,1580903939.50652,3150,0.4829289,0,0,3826.889,14,17,1580908979.606627,12702.687943,0,11.23251,97.07269
1580908989.746297,17,0,1580907286.99823,41.20781296037784,29.0754925099451,275.2123,0.1345286,-1,23.46983528137207,200,-9999,12705.54592029167,0.9581146240234375,0.0843963623046875,-0.1522369384765625,12705.53588029167,-1.353581608377785,1.414613890293441,-0.09100482069571937,0.0142050888389349,-0.07016204297542572,-0.001960004679858685,-0.0215003490447998,0.001418590545654297,0.006165862083435059,2,0.3795837161935063,0.5276967899441994,-0.4986048278941329,0.5734506751928106,0.9837406873703003,0.09087925404310226,-0.1549046039581299,22.50872802734375,-0.4143085479736328,-37.73504638671875,2,12705.25521029167,1,2,1580908989.496377,1580903939.50652,3150,0.4829289,0,0,3826.889,14,17,1580908979.606627,12702.687943,0,11.23251,97.07269
1580908989.756406,18,0,1580907286.99823,41.20781296037784,29.0754925099451,275.2123,0.1345286,-1,23.46983528137207,200,-9999,12705.55596029167,0.9498291015625,0.0928497314453125,-0.1589202880859375,12705.54592029167,-1.353637433344837,1.414121697192359,-0.09102120556064704,0.004192935302853584,-0.04985170811414719,-0.002137104980647564,-0.02831929922103882,-0.007066428661346436,0.0007768869400024414,2,0.3794707583054784,0.5275487482897783,-0.4987181873741534,0.5735629516172336,0.9836627840995789,0.09089557826519012,-0.1553885191679001,22.39302062988281,-0.5666790008544922,-37.59942626953125,2,12705.25521029167,1,2,1580908989.496377,1580903939.50652,3150,0.4829289,0,0,3826.889,14,17,1580908979.606627,12702.687943,0,11.23251,97.07269
1580908989.789659,19,0,1580907286.99823,41.20781296037784,29.0754925099451,275.2123,0.1345286,-1,23.46983528137207,200,-9999,12705.56600129167,0.9551239013671875,0.090545654296875,-0.15423583984375,12705.55596029167,-1.35368751255438,1.413989158249993,-0.09100459547440806,0.005839567631483078,-0.01212803460657597,0.001109820790588856,-0.03745555877685547,0.001174613833427429,-0.006614804267883301,2,0.3794560146303436,0.5274974629905853,-0.4987536623159973,0.5735889444224401,0.9836435914039612,0.09087903052568436,-0.155519112944603,22.39302062988281,-0.5666790008544922,-37.59942626953125,2,12705.25521029167,1,2,1580908989.496377,1580903939.50652,3150,0.4829289,0,0,3826.889,14,17,1580908979.606627,12702.687943,0,11.23251,97.07269
1580908989.791065,20,0,1580907286.99823,41.20781296037784,29.0754925099451,275.2123,0.1345286,-1,23.46983528137207,200,-9999,12705.57607129167,0.9648590087890625,0.09197998046875,-0.1463165283203125,12705.56600129167,-1.353704380149371,1.414035922983165,-0.09095581460059787,0.002346033230423927,0.005585981532931328,0.003861665725708008,-0.03348457813262939,-0.0002719312906265259,-0.003028452396392822,2,0.3794869633197801,0.527496660375134,-0.4987378427338736,0.5735831277578036,0.9836553931236267,0.09083045274019241,-0.1554738432168961,22.46385192871094,-0.8069858551025391,-37.5858154296875,2,12705.25521029167,1,2,1580908989.496377,1580903939.50652,3150,0.4829289,0,0,3826.889,14,17,1580908979.606627,12702.687943,0,11.23251,97.07269
1580908989.792128,21,0,1580907286.99823,41.20781296037784,29.0754925099451,275.2123,0.1345286,-1,23.46983528137207,200,-9999,12705.58611229167,0.968017578125,0.092132568359375,-0.1463470458984375,12705.57607129167,-1.353715087706412,1.414074129068599,-0.09088772511451247,0.001851956360042095,0.0022103451192379,0.006411541253328323,-0.02345651388168335,0.0006048381328582764,0.005067586898803711,2,0.3795201340566713,0.5274901571060998,-0.498717163728045,0.5735850421398547,0.9836673140525818,0.09076264500617981,-0.1554372012615204,22.46385192871094,-0.8069858551025391,-37.5858154296875,2,12705.25521029167,1,2,1580908989.496377,1580903939.50652,3150,0.4829289,0,0,3826.889,14,17,1580908979.606627,12702.687943,0,11.23251,97.07269
1580908989.796413,22,0,1580907286.99823,41.20781296037784,29.0754925099451,275.2123,0.1345286,-1,23.46983528137207,200,-9999,12705.59615229167,0.974334716796875,0.091064453125,-0.1440887451171875,12705.58611229167,-1.353727763204829,1.414087964705669,-0.09083107040037855,0.001884980127215385,0.0005892794579267502,0.005198204889893532,-0.01993900537490845,0.0009971857070922852,0.005573451519012451,2,0.3795442105873101,0.5274789012386082,-0.4987044618428291,0.5735905411082363,0.9836745858192444,0.09070622175931931,-0.1554244011640549,22.28478240966797,-0.7773151397705078,-37.55816650390625,2,12705.25521029167,1,2,1580908989.496377,1580903939.50652,3150,0.4829289,0,0,3826.889,14,17,1580908979.606627,12702.687943,0,11.23251,97.07269
1580908989.806625,23,0,1580907286.99823,41.20781296037784,29.0754925099451,275.2123,0.1345286,-1,23.46983528137207,200,-9999,12705.60619229167,0.974639892578125,0.0924072265625,-0.14471435546875,12705.59615229167,-1.353739766272557,1.413988604527506,-0.09079306512155305,0.001260202378034592,-0.01157284528017044,0.003481265157461166,-0.01396065950393677,-6.344914436340332e-05,0.007533848285675049,2,0.3795341862219279,0.5274395312453316,-0.4987175656645412,0.5736220315545015,0.9836626052856445,0.09066837280988693,-0.1555226892232895,22.28478240966797,-0.7773151397705078,-37.55816650390625,2,12705.25521029167,1,2,1580908989.496377,1580903939.50652,3150,0.4829289,0,0,3826.889,14,17,1580908979.606627,12702.687943,0,11.23251,97.07269
1580908989.816682,24,0,1580907286.99823,41.20781296037784,29.0754925099451,275.2123,0.1345286,-1,23.46983528137207,200,-9999,12705.61623329167,0.970550537109375,0.09326171875,-0.14642333984375,12705.60619229167,-1.353766332429562,1.413774972304113,-0.09076547804097558,0.003859713673591614,-0.02132800407707691,0.001976046711206436,-0.01260226964950562,0.001261129975318909,0.007714569568634033,2,0.3794963891242767,0.5273669450198205,-0.498759022536942,0.5736775813591538,0.9836316704750061,0.09064090251922607,-0.155733197927475,22.25041961669922,-0.9885349273681641,-37.433349609375,2,12705.25521029167,1,2,1580908989.496377,1580903939.50652,3150,0.4829289,0,0,3826.889,14,17,1580908979.606627,12702.687943,0,11.23251,97.07269
1580908989.845333,25,0,1580907286.99823,41.20781296037784,29.0754925099451,275.2123,0.1345286,-1,23.46983528137207,200,-9999,12705.62627329167,0.9685821533203125,0.093505859375,-0.1482391357421875,12705.61623329167,-1.353789198943808,1.413504666514772,-0.09071421747346908,0.003199515864253044,-0.02752305008471012,0.005289285443723202,-0.01682180166244507,0.002517849206924438,0.006471753120422363,2,0.3794506312434713,0.527273472741429,-0.4988044727008734,0.5737543229202401,0.9835942387580872,0.09058985114097595,-0.1559998095035553,22.25041961669922,-0.9885349273681641,-37.433349609375,2,12705.25521029167,1,2,1580908989.496377,1580903939.50652,3150,0.4829289,0,0,3826.889,14,17,1580908979.606627,12702.687943,0,11.23251,97.07269
1580908989.846953,26,0,1580907286.99823,41.20781296037784,29.0754925099451,275.2123,0.1345286,-1,23.46983528137207,200,-9999,12705.63631329167,0.9686431884765625,0.093719482421875,-0.147674560546875,12705.62627329167,-1.353835347155797,1.413223076765814,-0.09065549734780713,0.005528450943529606,-0.0282498262822628,0.004698862321674824,-0.01881223917007446,0.002637624740600586,0.004782438278198242,2,0.3794104405293798,0.5271706583570609,-0.4988569472615222,0.5738299080584404,0.9835556745529175,0.0905313715338707,-0.1562776267528534,22.20167541503906,-0.9249019622802734,-37.477294921875,2,12705.25521029167,1,2,1580908989.496377,1580903939.50652,3150,0.4829289,0,0,3826.889,14,17,1580908979.606627,12702.687943,0,11.23251,97.07269
1580908989.848251,27,0,1580907286.99823,41.20781296037784,29.0754925099451,275.2123,0.1345286,-1,23.46983528137207,200,-9999,12705.64635329167,0.97052001953125,0.0920257568359375,-0.1458282470703125,12705.63631329167,-1.353887077456084,1.412941579749244,-0.09059311182924305,0.00585015956312418,-0.02519837580621243,0.005603537894785404,-0.01900261640548706,0.003005146980285645,0.005457758903503418,2,0.3793729854652443,0.5270659036120311,-0.4989100568702114,0.5739044843361231,0.9835169911384583,0.09046924114227295,-0.1565553396940231,22.20167541503906,-0.9249019622802734,-37.477294921875,2,12705.25521029167,1,2,1580908989.496377,1580903939.50652,3150,0.4829289,0,0,3826.889,14,17,1580908979.606627,12702.687943,0,11.23251,97.07269
1580908989.856956,28,0,1580907286.99823,41.20781296037784,29.0754925099451,275.2123,0.1345286,-1,23.46983528137207,200,-9999,12705.65639429167,0.9697113037109375,0.0912017822265625,-0.1475067138671875,12705.64635329167,-1.353909871174561,1.412599947557993,-0.09050638732880723,0.003171552903950214,-0.03424034267663956,0.009420380927622318,-0.01727819442749023,0.001321867108345032,0.007337570190429688,2,0.3793202200767227,0.526943905002771,-0.4989604286363047,0.5740076785651076,0.9834712743759155,0.09038287401199341,-0.1568925827741623,22.0791015625,-0.6561565399169922,-37.312255859375,2,12705.25521029167,1,2,1580908989.496377,1580903939.50652,3150,0.4829289,0,0,3826.889,14,17,1580908979.606627,12702.687943,0,11.23251,97.07269
1580908989.866914,29,0,1580907286.99823,41.20781296037784,29.0754925099451,275.2123,0.1345286,-1,23.46983528137207,200,-9999,12705.66646429167,0.973388671875,0.088592529296875,-0.14605712890625,12705.65639429167,-1.353974732409949,1.412219782074686,-0.09046325212272212,0.01332725118845701,-0.03528163582086563,0.002874064259231091,-0.01766461133956909,0.0003426671028137207,0.006370782852172852,2,0.379255637742005,0.5268127072174349,-0.499040704239033,0.5741009608469222,0.9834153652191162,0.09033991396427155,-0.1572670638561249,22.0791015625,-0.6561565399169922,-37.312255859375,2,12705.65312829167,2,0,1580908989.894295,1580903939.50652,3150,0.4829289,0,0,3826.889,14,17,1580908979.606627,12702.687943,0,11.23251,97.07269
1580908989.87699,30,0,1580907286.99823,41.20781296037784,29.0754925099451,275.2123,0.1345286,-1,23.46983528137207,200,-9999,12705.67650529167,0.9745025634765625,0.082427978515625,-0.146331787109375,12705.66646429167,-1.354076138164594,1.411723230410618,-0.09056364979837357,0.009817421436309814,-0.04442918300628662,-0.006887509953230619,-0.01455575227737427,-0.001634567975997925,0.007790446281433105,2,0.3791277553006829,0.526673695543421,-0.4991882376543044,0.5741847151244877,0.9833282232284546,0.09043990075588226,-0.1577539294958115,21.67961883544922,-0.8514194488525391,-37.2589111328125,2,12705.65312829167,2,0,1580908989.894295,1580903939.50652,3150,0.4829289,0,0,3826.889,14,17,1580908979.606627,12702.687943,0,11.23251,97.07269
1580908989.904414,31,0,1580907286.99823,41.20781296037784,29.0754925099451,275.2123,0.1345286,-1,23.46983528137207,200,-9999,12705.68654529167,0.9533233642578125,0.087005615234375,-0.1609039306640625,12705.67650529167,-1.354089324418474,1.411209640506192,-0.09075871843012052,-0.01209533400833607,-0.05652446299791336,-0.009835628792643547,-0.01065725088119507,-0.007460117340087891,0.009500265121459961,2,0.3789433996438445,0.5265679741458568,-0.4993365162050174,0.5742745024312239,0.9832296967506409,0.09063417464494705,-0.1582561433315277,21.67961883544922,-0.8514194488525391,-37.2589111328125,2,12705.65312829167,2,0,1580908989.894295,1580903939.50652,3150,0.4829289,0,0,3826.889,14,17,1580908979.606627,12702.687943,0,11.23251,97.07269
1580908989.905875,32,0,1580907286.99823,41.20781296037784,29.0754925099451,275.2123,0.1345286,-1,23.46983528137207,200,-9999,12705.69658529167,0.96136474609375,0.0931396484375,-0.153717041015625,12705.68654529167,-1.354130325033345,1.411031508858787,-0.0909930687389658,0.0001438818871974945,-0.01580816507339478,-0.02275625802576542,-0.03323674201965332,-0.005314081907272339,-0.005311548709869385,2,0.3788381294151838,0.5265621810252739,-0.4994386458067696,0.5742603729971518,0.9831804037094116,0.09086755663156509,-0.1584278792142868,21.79402923583984,-0.5627574920654297,-37.07843017578125,2,12705.65312829167,2,0,1580908989.894295,1580903939.50652,3150,0.4829289,0,0,3826.889,14,17,1580908979.606627,12702.687943,0,11.23251,97.07269
1580908989.907511,33,0,1580907286.99823,41.20781296037784,29.0754925099451,275.2123,0.1345286,-1,23.46983528137207,200,-9999,12705.70662629167,0.9621734619140625,0.094512939453125,-0.15069580078125,12705.69658529167,-1.35415493295167,1.41100125880385,-0.09120152565917572,-0.0005056634545326233,-0.001077955588698387,-0.0201500877737999,-0.02663671970367432,0.001389697194099426,0.0005440115928649902,2,0.3787733306868963,0.5265961045174602,-0.499501805219579,0.5742171209234339,0.9831569194793701,0.09107514470815659,-0.1584546118974686,21.79402923583984,-0.5627574920654297,-37.07843017578125,2,12705.65312829167,2,0,1580908989.894295,1580903939.50652,3150,0.4829289,0,0,3826.889,14,17,1580908979.606627,12702.687943,0,11.23251,97.07269
1580908989.917269,34,0,1580907286.99823,41.20781296037784,29.0754925099451,275.2123,0.1345286,-1,23.46983528137207,200,-9999,12705.71666629167,0.961334228515625,0.093963623046875,-0.149261474609375,12705.70662629167,-1.354179366146526,1.410961393587813,-0.0913783068788309,0.000522395595908165,-0.003893818706274033,-0.01881297305226326,-0.02516496181488037,0.002982944250106812,0.004135966300964355,2,0.3787157904603962,0.5266201024819778,-0.4995590626041187,0.5741832114608313,0.9831346273422241,0.0912511944770813,-0.158491238951683,21.89063262939453,-0.6118869781494141,-37.17034912109375,2,12705.65312829167,2,0,1580908989.894295,1580903939.50652,3150,0.4829289,0,0,3826.889,14,17,1580908979.606627,12702.687943,0,11.23251,97.07269
1580908989.927211,35,0,1580907286.99823,41.20781296037784,29.0754925099451,275.2123,0.1345286,-1,23.46983528137207,200,-9999,12705.72670629167,0.95794677734375,0.0947113037109375,-0.152374267578125,12705.71666629167,-1.354186032733264,1.410940513175141,-0.09147398774955748,-0.0007354151457548141,-0.003615783527493477,-0.009772608056664467,-0.02515292167663574,0.00224640965461731,0.005818367004394531,2,0.3786831124092707,0.5266345223470739,-0.4995880261579707,0.5741662562243813,0.9831226468086243,0.09134647250175476,-0.1585103571414948,21.89063262939453,-0.6118869781494141,-37.17034912109375,2,12705.65312829167,2,0,1580908989.894295,1580903939.50652,3150,0.4829289,0,0,3826.889,14,17,1580908979.606627,12702.687943,0,11.23251,97.07269
1580908989.937112,36,0,1580907286.99823,41.20781296037784,29.0754925099451,275.2123,0.1345286,-1,23.46983528137207,200,-9999,12705.73674629167,0.9603729248046875,0.094757080078125,-0.1499176025390625,12705.72670629167,-1.354199283220258,1.41096204324598,-0.09149386875149956,0.00101623497903347,0.0004469901323318481,-0.002365276217460632,-0.02935069799423218,0.002989500761032104,0.002821564674377441,2,0.3786858395009023,0.5266427326383371,-0.4995925843882348,0.5741531519203957,0.9831244349479675,0.09136626869440079,-0.158488929271698,21.87209320068359,-0.3635005950927734,-36.923828125,2,12705.65312829167,2,0,1580908989.894295,1580903939.50652,3150,0.4829289,0,0,3826.889,14,17,1580908979.606627,12702.687943,0,11.23251,97.07269
1580908989.967667,37,0,1580907286.99823,41.20781296037784,29.0754925099451,275.2123,0.1345286,-1,23.46983528137207,200,-9999,12705.74678729167,0.9626617431640625,0.09442138671875,-0.149200439453125,12705.73674629167,-1.354233896572258,1.411016239047235,-0.09145845603183775,0.004936140961945057,0.005736026912927628,0.003239612095057964,-0.02676844596862793,0.003070652484893799,0.004828453063964844,2,0.3787193324997331,0.5266437006234845,-0.4995836983978148,0.5741378531649025,0.9831361770629883,0.09133100509643555,-0.1584361642599106,21.87209320068359,-0.3635005950927734,-36.923828125,2,12705.65312829167,2,0,1580908989.894295,1580903939.50652,3150,0.4829289,0,0,3826.889,14,17,1580908979.606627,12702.687943,0,11.23251,97.07269
1580908989.969013,38,0,1580907286.99823,41.20781296037784,29.0754925099451,275.2123,0.1345286,-1,23.46983528137207,200,-9999,12705.75685829167,0.9716644287109375,0.0942535400390625,-0.1470794677734375,12705.74678729167,-1.354292311723134,1.411085227329149,-0.09139071501636611,0.008058289065957069,0.008338747546076775,0.007100177928805351,-0.02518343925476074,0.002802684903144836,0.005615711212158203,2,0.3787726849636858,0.5266370687709103,-0.4995710257598402,0.5741196637283431,0.9831531047821045,0.091263547539711,-0.1583693027496338,21.88622283935547,-0.2636051177978516,-36.985595703125,2,12705.65312829167,2,0,1580908989.894295,1580903939.50652,3150,0.4829289,0,0,3826.889,14,17,1580908979.606627,12702.687943,0,11.23251,97.07269
1580908989.970138,39,0,1580907286.99823,41.20781296037784,29.0754925099451,275.2123,0.1345286,-1,23.46983528137207,200,-9999,12705.76689829167,0.97198486328125,0.0943450927734375,-0.146087646484375,12705.75685829167,-1.354357864754772,1.411042268193447,-0.09133113685485772,0.007371459156274796,-0.004101676866412163,0.004672972485423088,-0.01636236906051636,0.002480804920196533,0.007566571235656738,2,0.3787973825631262,0.5265988346608299,-0.4995836086823065,0.5741276124802066,0.9831517934799194,0.09120421856641769,-0.1584124267101288,21.88622283935547,-0.2636051177978516,-36.985595703125,2,12705.65312829167,2,0,1580908989.894295,1580903939.50652,3150,0.4829289,0,0,3826.889,14,17,1580908979.606627,12702.687943,0,11.23251,97.07269
1580908989.977367,40,0,1580907286.99823,41.20781296037784,29.0754925099451,275.2123,0.1345286,-1,23.46983528137207,200,-9999,12705.77693829167,0.966644287109375,0.092437744140625,-0.1494140625,12705.76689829167,-1.354437865272587,1.410885532690113,-0.09128521537016758,0.008813568390905857,-0.01405603904277086,0.002743690274655819,-0.01428169012069702,0.002694547176361084,0.00936967134475708,2,0.3787933784163248,0.5265282503942474,-0.4996251453387478,0.5741586887006723,0.983130931854248,0.09115848690271378,-0.1585671603679657,21.85106658935547,-0.4361057281494141,-36.69525146484375,2,12705.65312829167,2,0,1580908989.894295,1580903939.50652,3150,0.4829289,0,0,3826.889,14,17,1580908979.606627,12702.687943,0,11.23251,97.07269
1580908989.987368,41,0,1580907286.99823,41.20781296037784,29.0754925099451,275.2123,0.1345286,-1,23.46983528137207,200,-9999,12705.78697829167,0.9649505615234375,0.091461181640625,-0.15093994140625,12705.77693829167,-1.354523390555919,1.410702845736604,-0.09124990540671513,0.009129154495894909,-0.01781029812991619,0.002033425495028496,-0.0202067494392395,0.001295551657676697,0.006315708160400391,2,0.378781024736481,0.526451607437332,-0.4996757807117408,0.5741931117540746,0.9831051826477051,0.09112332761287689,-0.1587472856044769,21.85106658935547,-0.4361057281494141,-36.69525146484375,2,12705.65312829167,2,0,1580908989.894295,1580903939.50652,3150,0.4829289,0,0,3826.889,14,17,1580908979.606627,12702.687943,0,11.23251,97.07269
1580908989.997467,42,0,1580907286.99823,41.20781296037784,29.0754925099451,275.2123,0.1345286,-1,23.46983528137207,200,-9999,12705.79701929167,0.9588775634765625,0.091827392578125,-0.1504364013671875,12705.78697829167,-1.354619097310449,1.41056371281904,-0.09123206725394183,0.009703535586595535,-0.01291620079427958,0.0002965191379189491,-0.02194100618362427,-0.0001056790351867676,0.004469633102416992,2,0.3787768961097605,0.5263894950442194,-0.4997253056951629,0.5742097072181342,0.9830847382545471,0.09110555797815323,-0.1588843315839767,21.79521942138672,-0.2884731292724609,-36.531494140625,2,12705.65312829167,2,0,1580908989.894295,1580903939.50652,3150,0.4829289,0,0,3826.889,14,17,1580908979.606627,12702.687943,0,11.23251,97.07269
1580908990.029754,43,0,1580907286.99823,41.20781296037784,29.0754925099451,275.2123,0.1345286,-1,23.46983528137207,200,-9999,12705.80705975,0.9456634521484375,0.0965423583984375,-0.1483306884765625,12705.79701929167,-1.35473485555976,1.410479928004619,-0.09119739873632358,0.01176482252776623,-0.006788266822695732,0.0008826805278658867,-0.0273934006690979,0.0002188980579376221,0.004857957363128662,2,0.3787970239892181,0.5263356506442556,-0.4997660378309386,0.5742103300829914,0.9830744862556458,0.09107103943824768,-0.1589671969413757,21.79521942138672,-0.2884731292724609,-36.531494140625,2,12705.65312829167,2,0,1580908989.894295,1580903939.50652,3150,0.4829289,0,0,3826.889,14,17,1580908979.606627,12702.687943,0,11.23251,97.07269
1580908990.03118,44,0,1580907286.99823,41.20781296037784,29.0754925099451,275.2123,0.1345286,-1,23.46983528137207,200,-9999,12705.81709975,0.929351806640625,0.1006317138671875,-0.15777587890625,12705.80705975,-1.354822182226848,1.410466167829838,-0.09096858218567026,0.01065110042691231,-0.002684198319911957,0.02208620868623257,-0.03972554206848145,0.004704862833023071,0.007469058036804199,2,0.3788864629389185,0.5262632597196658,-0.4997384899080708,0.5742417412794447,0.9830929636955261,0.09084317088127136,-0.1589840650558472,21.76406860351562,-0.3613719940185547,-36.53729248046875,2,12705.65312829167,2,0,1580908989.894295,1580903939.50652,3150,0.4829289,0,0,3826.889,14,17,1580908979.606627,12702.687943,0,11.23251,97.07269
1580908990.032297,45,0,1580907286.99823,41.20781296037784,29.0754925099451,275.2123,0.1345286,-1,23.46983528137207,200,-9999,12705.82714075,0.9374847412109375,0.09619140625,-0.1613922119140625,12705.81709975,-1.354944730631062,1.410782028444427,-0.09049019623808804,0.01975991018116474,0.0338466465473175,0.04649914056062698,-0.05695462226867676,0.009867668151855469,-0.001396238803863525,2,0.3791438443965841,0.5262221389166479,-0.4995982724012956,0.5742313883985292,0.9831857681274414,0.09036675095558167,-0.1586804091930389,21.76406860351562,-0.3613719940185547,-36.53729248046875,2,12705.65312829167,2,0,1580908989.894295,1580903939.50652,3150,0.4829289,0,0,3826.889,14,17,1580908979.606627,12702.687943,0,11.23251,97.07269
1580908990.03771,46,0,1580907286.99823,41.20781296037784,29.0754925099451,275.2123,0.1345286,-1,23.46983528137207,200,-9999,12705.83721075,0.9508209228515625,0.0919036865234375,-0.1536407470703125,12705.82714075,-1.355091300865595,1.411432098310405,-0.08988118438493119,0.02229003608226776,0.06726054102182388,0.05992976948618889,-0.05135983228683472,0.006753534078598022,-0.007110357284545898,2,0.3795307449414821,0.5262427556790339,-0.4993699225068586,0.5741555858489723,0.9833428859710693,0.08976021409034729,-0.1580499559640884,21.96785736083984,-0.4875049591064453,-36.48809814453125,2,12705.65312829167,2,0,1580908989.894295,1580903939.50652,3150,0.4829289,0,0,3826.889,14,17,1580908979.606627,12702.687943,0,11.23251,97.07269
1580908990.047583,47,0,1580907286.99823,41.20781296037784,29.0754925099451,275.2123,0.1345286,-1,23.46983528137207,200,-9999,12705.84725175,0.97283935546875,0.091156005859375,-0.14361572265625,12705.83721075,-1.355260091089599,1.412218152458061,-0.08918883581106234,0.02784086391329765,0.0824568048119545,0.06805427372455597,-0.03837716579437256,0.002608895301818848,-0.0008115768432617188,2,0.3799826598587063,0.5262792098307805,-0.4991017493664994,0.5740566032664535,0.9835281372070312,0.0890706405043602,-0.157286748290062,21.96785736083984,-0.4875049591064453,-36.48809814453125,2,12705.65312829167,2,0,1580908989.894295,1580903939.50652,3150,0.4829289,0,0,3826.889,14,17,1580908979.606627,12702.687943,0,11.23251,97.07269
1580908990.057852,48,0,1580907286.99823,41.20781296037784,29.0754925099451,275.2123,0.1345286,-1,23.46983528137207,200,-9999,12705.85729175,0.986846923828125,0.0889434814453125,-0.1410064697265625,12705.84725175,-1.355380714497738,1.41282908235831,-0.08846005127155322,0.0233689658343792,0.06221216171979904,0.07033006846904755,-0.01719081401824951,0.00286470353603363,0.008970856666564941,2,0.3803892167280939,0.5262661383016033,-0.4988438750275386,0.5740233071274533,0.983687698841095,0.08834473043680191,-0.1566959917545319,21.92308044433594,-0.5585842132568359,-36.342041015625,2,12705.65312829167,2,0,1580908989.894295,1580903939.50652,3150,0.4829289,0,0,3826.889,14,17,1580908979.606627,12702.687943,0,11.23251,97.07269
1580908990.0867,49,0,1580907286.99823,41.20781296037784,29.0754925099451,275.2123,0.1345286,-1,23.46983528137207,200,-9999,12705.86733175,0.999176025390625,0.08526611328125,-0.1372528076171875,12705.85729175,-1.355439590800916,1.413124643708558,-0.0877382484349437,0.01807912811636925,0.03086702339351177,0.07010982930660248,-0.002117812633514404,0.001084178686141968,0.01201534271240234,2,0.3806984999708974,0.526175862306334,-0.4986297946480382,0.5740871067212916,0.9837967753410339,0.08762572705745697,-0.1564152240753174,21.92308044433594,-0.5585842132568359,-36.342041015625,2,12705.65312829167,2,0,1580908989.894295,1580903939.50652,3150,0.4829289,0,0,3826.889,14,17,1580908979.606627,12702.687943,0,11.23251,97.07269
1580908990.088447,50,0,1580907286.99823,41.20781296037784,29.0754925099451,275.2123,0.1345286,-1,23.46983528137207,200,-9999,12705.87737175,1.013839721679688,0.083709716796875,-0.1263885498046875,12705.86733175,-1.355435043400721,1.412990095800229,-0.08712036001298482,0.007523122243583202,-0.01013529766350985,0.06184319406747818,0.01022452116012573,-0.001624271273612976,0.01542186737060547,2,0.3808521783708146,0.525997709157137,-0.4985044347197289,0.5742571671901155,0.9838289022445679,0.08701019734144211,-0.1565560549497604,21.81976318359375,-0.4133167266845703,-36.46417236328125,2,12705.65312829167,2,0,1580908989.894295,1580903939.50652,3150,0.4829289,0,0,3826.889,14,17,1580908979.606627,12702.687943,0,11.23251,97.07269
1580908990.089775,51,0,1580907286.99823,41.20781296037784,29.0754925099451,275.2123,0.1345286,-1,23.46983528137207,200,-9999,12705.88741275,1.010452270507812,0.08465576171875,-0.1231689453125,12705.87737175,-1.355466594421266,1.412101820396892,-0.08672318169589789,0.008188913576304913,-0.08897019177675247,0.04016906023025513,0.0246737003326416,-0.003225848078727722,0.02633005380630493,2,0.3807601022198984,0.5256463235025335,-0.4985864561079323,0.5745688115633449,0.9837236404418945,0.08661451935768127,-0.1574353724718094,21.66245269775391,-0.4043178558349609,-36.35992431640625,2,12705.65312829167,2,0,1580908989.894295,1580903939.50652,3150,0.4829289,0,0,3826.889,14,17,1580908979.606627,12702.687943,0,11.23251,97.07269
1580908990.09783,52,0,1580907286.99823,41.20781296037784,29.0754925099451,275.2123,0.1345286,-1,23.46983528137207,200,-9999,12705.89745275,0.96630859375,0.0899810791015625,-0.1349334716796875,12705.88741275,-1.355646630615154,1.410381048103849,-0.08659321164633704,0.01941326260566711,-0.170430064201355,0.00931133795529604,0.02518028020858765,-0.002638056874275208,0.03312766551971436,2,0.3804179356756021,0.5250879444980756,-0.4989341850703331,0.5750039316156057,0.9834622740745544,0.08648503571748734,-0.1591296941041946,21.66245269775391,-0.4043178558349609,-36.35992431640625,2,12705.65312829167,2,0,1580908989.894295,1580903939.50652,3150,0.4829289,0,0,3826.889,14,17,1580908979.606627,12702.687943,0,11.23251,97.07269
1580908990.107964,53,0,1580907286.99823,41.20781296037784,29.0754925099451,275.2123,0.1345286,-1,23.46983528137207,200,-9999,12705.90749275,0.9172515869140625,0.077911376953125,-0.1853485107421875,12705.89745275,-1.356054114498926,1.408503429690831,-0.08667716412622241,0.03840799257159233,-0.2004425674676895,-0.01555539574474096,-0.01448893547058105,0.003274649381637573,0.0258249044418335,2,0.3800305800247773,0.5244896119797666,-0.4994286344429721,0.5753768416732439,0.9831546545028687,0.08656866848468781,-0.1609748154878616,21.52903747558594,-0.3132343292236328,-36.3333740234375,2,12705.65312829167,2,0,1580908989.894295,1580903939.50652,3150,0.4829289,0,0,3826.889,14,17,1580908979.606627,12702.687943,0,11.23251,97.07269
1580908990.118139,54,0,1580907286.99823,41.20781296037784,29.0754925099451,275.2123,0.1345286,-1,23.46983528137207,200,-9999,12705.91753375,0.9510498046875,0.0791015625,-0.159759521484375,12705.90749275,-1.356597432097598,1.407651780113254,-0.08691682031436972,0.05235964432358742,-0.06721067428588867,-0.03569433838129044,-0.06866699457168579,-0.008119270205497742,-0.02390563488006592,2,0.3798871481872805,0.5241959796943251,-0.4998045789352451,0.5754125643246725,0.9829965829849243,0.08680742233991623,-0.161808654665947,21.52903747558594,-0.3132343292236328,-36.3333740234375,2,12705.65312829167,2,0,1580908989.894295,1580903939.50652,3150,0.4829289,0,0,3826.889,14,17,1580908979.606627,12702.687943,0,11.23251,97.07269
1580908990.146732,55,0,1580907286.99823,41.20781296037784,29.0754925099451,275.2123,0.1345286,-1,23.46983528137207,200,-9999,12705.92760375,0.954986572265625,0.0975494384765625,-0.14111328125,12705.91753375,-1.357044193605422,1.406850101838794,-0.08706967190445876,0.03928299248218536,-0.075743168592453,-0.02143231220543385,-0.03944003582000732,-0.009447053074836731,-0.005279064178466797,2,0.3797571006200282,0.5239153503784658,-0.5001222545411489,0.5754780523027894,0.9828535318374634,0.08695969730615616,-0.1625944972038269,21.59366607666016,-0.6795558929443359,-36.45538330078125,2,12705.65312829167,2,0,1580908989.894295,1580903939.50652,3150,0.4829289,0,0,3826.889,14,17,1580908979.606627,12702.687943,0,11.23251,97.07269
1580908990.148472,56,0,1580907286.99823,41.20781296037784,29.0754925099451,275.2123,0.1345286,-1,23.46983528137207,200,-9999,12705.93764475,0.9398040771484375,0.099029541015625,-0.158966064453125,12705.92760375,-1.357510341457698,1.405759224592305,-0.08700605879468394,0.04829865321516991,-0.1084360703825951,-0.002631545532494783,-0.03053867816925049,0.008988171815872192,0.01980054378509521,2,0.3796256770679727,0.5234984175889065,-0.5004481903596703,0.575660935196894,0.9826811552047729,0.08689633011817932,-0.1636675000190735,21.59366607666016,-0.6795558929443359,-36.45538330078125,2,12705.65312829167,2,0,1580908989.894295,1580903939.50652,3150,0.4829289,0,0,3826.889,14,17,1580908979.606627,12702.687943,0,11.23251,97.07269
1580908990.149553,57,0,1580907286.99823,41.20781296037784,29.0754925099451,275.2123,0.1345286,-1,23.46983528137207,200,-9999,12705.94768475,0.93389892578125,0.0863189697265625,-0.1763153076171875,12705.93764475,-1.357948257826005,1.404815892130213,-0.08672928348969278,0.04627518355846405,-0.093674436211586,0.02186793833971024,-0.0450400710105896,0.0130491703748703,0.004423618316650391,2,0.3795887276310372,0.5230804961697439,-0.50068663874305,0.5758577689460784,0.9825499653816223,0.08662059158086777,-0.1645983904600143,21.61369323730469,-0.6870632171630859,-36.64056396484375,2,12705.65312829167,2,0,1580908989.894295,1580903939.50652,3150,0.4829289,0,0,3826.889,14,17,1580908979.606627,12702.687943,0,11.23251,97.07269
1580908990.158138,58,0,1580907286.99823,41.20781296037784,29.0754925099451,275.2123,0.1345286,-1,23.46983528137207,200,-9999,12705.95772475,0.9407806396484375,0.082427978515625,-0.1851043701171875,12705.94768475,-1.358364186155697,1.404491616802686,-0.08648008509246341,0.0458064079284668,-0.03228384256362915,0.0158868283033371,-0.05326282978057861,0.0007862597703933716,-0.01377707719802856,2,0.3796924257749513,0.5228512037126571,-0.5008079651286333,0.5758921357508446,0.9825177788734436,0.08637233078479767,-0.1649205684661865,21.61369323730469,-0.6870632171630859,-36.64056396484375,2,12705.65312829167,2,0,1580908989.894295,1580903939.50652,3150,0.4829289,0,0,3826.889,14,17,1580908979.606627,12702.687943,0,11.23251,97.07269
1580908990.168174,59,0,1580907286.99823,41.20781296037784,29.0754925099451,275.2123,0.1345286,-1,23.46983528137207,200,-9999,12705.96776575,0.9547882080078125,0.0896759033203125,-0.1751708984375,12705.95772475,-1.358697713677427,1.40504304728197,-0.08625357500810968,0.03703581914305687,0.05801596119999886,0.0151893487200141,-0.04600334167480469,-0.004617661237716675,-0.02356463670730591,2,0.3799868627606482,0.5228948234365492,-0.5007447372723539,0.5757133204863917,0.9826278686523438,0.08614666759967804,-0.1643819808959961,21.57526397705078,-0.7476634979248047,-36.63458251953125,2,12705.65312829167,2,0,1580908989.894295,1580903939.50652,3150,0.4829289,0,0,3826.889,14,17,1580908979.606627,12702.687943,0,11.23251,97.07269
1580908990.178164,60,0,1580907286.99823,41.20781296037784,29.0754925099451,275.2123,0.1345286,-1,23.46983528137207,200,-9999,12705.97780575,0.9908294677734375,0.0883941650390625,-0.1473541259765625,12705.96776575,-1.358976986785926,1.406075586252127,-0.08596152654648991,0.03293583914637566,0.1089333221316338,0.02538842707872391,-0.03512012958526611,0.003059759736061096,-0.01774346828460693,2,0.3804075554649118,0.5230720782721806,-0.500558463432722,0.5754362744738388,0.9828217625617981,0.08585570007562637,-0.1633713841438293,21.57526397705078,-0.7476634979248047,-36.63458251953125,2,12705.65312829167,2,0,1580908989.894295,1580903939.50652,3150,0.4829289,0,0,3826.889,14,17,1580908979.606627,12702.687943,0,11.23251,97.07269
1580908990.206873,61,0,1580907286.99823,41.20781296037784,29.0754925099451,275.2123,0.1345286,-1,23.46983528137207,200,-9999,12705.98784575,0.9782257080078125,0.0872039794921875,-0.154296875,12705.97780575,-1.359156371608867,1.406881627780587,-0.08564826977569741,0.02213911712169647,0.07748778909444809,0.02702520787715912,0.001693308353424072,0.002762779593467712,0.009999513626098633,2,0.3807517090438893,0.5231982099934845,-0.5003812080231242,0.5752482524313098,0.9829797148704529,0.08554359525442123,-0.1625835448503494,21.77533721923828,-0.8071994781494141,-36.91632080078125,2,12705.65312829167,2,0,1580908989.894295,1580903939.50652,3150,0.4829289,0,0,3826.889,14,17,1580908979.606627,12702.687943,0,11.23251,97.07269
1580908990.208409,62,0,1580907286.99823,41.20781296037784,29.0754925099451,275.2123,0.1345286,-1,23.46983528137207,200,-9999,12705.99788575,0.9766998291015625,0.0819854736328125,-0.1564178466796875,12705.98784575,-1.359285462220019,1.407684958243922,-0.0853244281235728,0.01682797819375992,0.08656968176364899,0.03096091188490391,-0.006094455718994141,0.001774460077285767,0.006219983100891113,2,0.3810852446227433,0.5233305748997076,-0.5001872073487454,0.5750755094587836,0.9831371307373047,0.08522093296051025,-0.1617982983589172,21.77533721923828,-0.8071994781494141,-36.91632080078125,2,12705.65312829167,2,0,1580908989.894295,1580903939.50652,3150,0.4829289,0,0,3826.889,14,17,1580908979.606627,12702.687943,0,11.23251,97.07269
1580908990.209534,63,0,1580907286.99823,41.20781296037784,29.0754925099451,275.2123,0.1345286,-1,23.46983528137207,200,-9999,12706.00792675,0.994842529296875,0.082244873046875,-0.1407318115234375,12705.99788575,-1.359431422815694,1.408502527539933,-0.08512334311070102,0.01856089755892754,0.08833189308643341,0.01669622026383877,-0.01298850774765015,-0.002663075923919678,-0.000443875789642334,2,0.3813891920893302,0.5234918131055681,-0.5000247950183176,0.5748684050580288,0.9832859039306641,0.08502057939767838,-0.160997211933136,21.83927154541016,-0.7265110015869141,-36.786376953125,2,12705.65312829167,2,0,1580908989.894295,1580903939.50652,3150,0.4829289,0,0,3826.889,14,17,1580908979.606627,12702.687943,0,11.23251,97.07269
1580908990.218563,64,0,1580907286.99823,41.20781296037784,29.0754925099451,275.2123,0.1345286,-1,23.46983528137207,200,-9999,12706.01799675,0.96826171875,0.0854339599609375,-0.1513824462890625,12706.00792675,-1.35952434718051,1.408978083365897,-0.08500436189162301,0.01197884231805801,0.04388362914323807,0.01145154982805252,0.00764620304107666,-0.003444284200668335,0.01605623960494995,2,0.381568570780041,0.5235836117382252,-0.4999321123715261,0.5747466205048979,0.9833725690841675,0.08490202575922012,-0.1605312526226044,21.83927154541016,-0.7265110015869141,-36.786376953125,2,12705.65312829167,2,0,1580908989.894295,1580903939.50652,3150,0.4829289,0,0,3826.889,14,17,1580908979.606627,12702.687943,0,11.23251,97.07269
1580908990.228534,65,0,1580907286.99823,41.20781296037784,29.0754925099451,275.2123,0.1345286,-1,23.46983528137207,200,-9999,12706.02803775,0.9461822509765625,0.087615966796875,-0.1615447998046875,12706.01799675,-1.359574533895408,1.409490372037346,-0.0849171693536781,0.005836794152855873,0.05042648315429688,0.007995033636689186,-0.01562166213989258,0.0005034059286117554,0.007143974304199219,2,0.381736333327341,0.5237012991601038,-0.4998277102728845,0.574618726645443,0.9834619164466858,0.08481515198945999,-0.1600286364555359,21.78244018554688,-0.9325389862060547,-37.03753662109375,2,12705.65312829167,2,0,1580908989.894295,1580903939.50652,3150,0.4829289,0,0,3826.889,14,17,1580908979.606627,12702.687943,0,11.23251,97.07269
1580908990.239237,66,0,1580907286.99823,41.20781296037784,29.0754925099451,275.2123,0.1345286,-1,23.46983528137207,200,-9999,12706.03807775,0.938232421875,0.0817718505859375,-0.161376953125,12706.02803775,-1.359624106761337,1.410331810746223,-0.08477715115063249,0.006279571913182735,0.08570597320795059,0.01437051873654127,-0.04054844379425049,0.002032026648521423,-0.005708932876586914,2,0.3820022077793062,0.523901550233114,-0.4996474623429834,0.5744162138886244,0.9836079478263855,0.08467563986778259,-0.1592029631137848,21.78244018554688,-0.9325389862060547,-37.03753662109375,2,12705.65312829167,2,0,1580908989.894295,1580903939.50652,3150,0.4829289,0,0,3826.889,14,17,1580908979.606627,12702.687943,0,11.23251,97.07269
1580908990.270888,67,0,1580907286.99823,41.20781296037784,29.0754925099451,275.2123,0.1345286,-1,23.46983528137207,200,-9999,12706.04811775,0.9395904541015625,0.0645751953125,-0.174774169921875,12706.03807775,-1.359600912503568,1.411668215877452,-0.08475671140801928,-0.001490999944508076,0.1299788951873779,0.004523214884102345,-0.04860591888427734,-0.00058726966381073,-0.006113052368164062,2,0.3823361254970331,0.5242850281624356,-0.4993804958414971,0.5740762320459206,0.9838215708732605,0.0846552699804306,-0.1578885912895203,21.96778869628906,-0.8015613555908203,-36.93389892578125,2,12705.65312829167,2,0,1580908989.894295,1580903939.50652,3150,0.4829289,0,0,3826.889,14,17,1580908979.606627,12703.631943,0,11.25363,97.07246
1580908990.272325,68,0,1580907286.99823,41.20781296037784,29.0754925099451,275.2123,0.1345286,-1,23.46983528137207,200,-9999,12706.05815875,0.9847412109375,0.082611083984375,-0.1470184326171875,12706.04811775,-1.359531556832956,1.413856401004713,-0.08501415667769682,-0.01019604597240686,0.2299798429012299,-0.02403740584850311,-0.05013436079025269,-0.02147470414638519,-0.02211809158325195,2,0.3827857567885087,0.5249848076045295,-0.49900436182717,0.5734639045836942,0.9841431975364685,0.08491178601980209,-0.1557320356369019,21.96778869628906,-0.8015613555908203,-36.93389892578125,2,12705.65312829167,2,0,1580908989.894295,1580903939.50652,3150,0.4829289,0,0,3826.889,14,17,1580908979.606627,12703.631943,0,11.25363,97.07246
1580908990.274043,69,0,1580907286.99823,41.20781296037784,29.0754925099451,275.2123,0.1345286,-1,23.46983528137207,200,-9999,12706.06819875,1.01971435546875,0.0856781005859375,-0.118438720703125,12706.05815875,-1.359474185746258,1.415964815740684,-0.08540275063003275,-0.01076143514364958,0.2131774127483368,-0.036088477820158,-0.009749114513397217,-0.004178553819656372,-0.001227259635925293,2,0.383178452901989,0.525688569276851,-0.4986783391898721,0.572840186493032,0.9844366908073425,0.08529897034168243,-0.1536516100168228,22.22432708740234,-0.5434322357177734,-37.0460205078125,2,12705.65312829167,2,0,1580908989.894295,1580903939.50652,3150,0.4829289,0,0,3826.889,14,17,1580908979.606627,12703.631943,0,11.25363,97.07246
1580908990.278608,70,0,1580907286.99823,41.20781296037784,29.0754925099451,275.2123,0.1345286,-1,23.46983528137207,200,-9999,12706.07823875,1.007186889648438,0.0883331298828125,-0.1238555908203125,12706.06819875,-1.359411439230037,1.417318524628337,-0.08592423052631061,-0.01323094312101603,0.1345674395561218,-0.05140458419919014,0.03053838014602661,-0.0005803555250167847,0.02969998121261597,2,0.3833410369468821,0.5262068580066092,-0.4985274217678272,0.5723866140285869,0.9845995903015137,0.08581853657960892,-0.1523119807243347,22.22432708740234,-0.5434322357177734,-37.0460205078125,2,12705.65312829167,2,0,1580908989.894295,1580903939.50652,3150,0.4829289,0,0,3826.889,14,17,1580908979.606627,12703.631943,0,11.25363,97.07246
1580908990.288739,71,0,1580907286.99823,41.20781296037784,29.0754925099451,275.2123,0.1345286,-1,23.46983528137207,200,-9999,12706.08827875,0.97900390625,0.0881500244140625,-0.1386566162109375,12706.07823875,-1.359370493104434,1.418116187387106,-0.08652537592091776,-0.01367435976862907,0.07429584115743637,-0.05844385176897049,0.02087032794952393,0.001458078622817993,0.02543967962265015,2,0.3833464850097191,0.5265796516987248,-0.4985086765557725,0.5720563712307559,0.98466956615448,0.08641745150089264,-0.1515186876058578,22.41606903076172,-0.4712848663330078,-36.94256591796875,2,12705.65312829167,2,0,1580908989.894295,1580903939.50652,3150,0.4829289,0,0,3826.889,14,17,1580908979.606627,12703.631943,0,11.25363,97.07246
1580908990.298693,72,0,1580907286.99823,41.20781296037784,29.0754925099451,275.2123,0.1345286,-1,23.46983528137207,200,-9999,12706.09831975,0.96453857421875,0.089874267578125,-0.14593505859375,12706.08827875,-1.359405303321208,1.418862216653809,-0.08721221602438908,-0.005800104234367609,0.07262245565652847,-0.07023290544748306,-0.00730586051940918,0.0006489604711532593,0.009907126426696777,2,0.3833330362963955,0.5269423816116126,-0.4985423003810385,0.5717018756846923,0.9847233891487122,0.08710170537233353,-0.1507750153541565,22.41606903076172,-0.4712848663330078,-36.94256591796875,2,12705.65312829167,2,0,1580908989.894295,1580903939.50652,3150,0.4829289,0,0,3826.889,14,17,1580908979.606627,12703.631943,0,11.25363,97.07246
1580908990.327326,73,0,1580907286.99823,41.20781296037784,29.0754925099451,275.2123,0.1345286,-1,23.46983528137207,200,-9999,12706.10839075,0.96820068359375,0.091888427734375,-0.141143798828125,12706.09831975,-1.359502270408827,1.419738610860359,-0.08791839607630834,-0.00188072957098484,0.08870848268270493,-0.07141853868961334,-0.02318495512008667,0.001422718167304993,0.0009592771530151367,2,0.3833626065099127,0.5273345993889674,-0.4985734181021163,0.5712931348942261,0.9847940802574158,0.08780517429113388,-0.1499026715755463,22.7015380859375,-0.6105327606201172,-37.21246337890625,2,12705.65312829167,2,0,1580908989.894295,1580903939.50652,3150,0.4829289,0,0,3826.889,14,17,1580908979.606627,12703.631943,0,11.25363,97.07246
1580908990.328852,74,0,1580907286.99823,41.20781296037784,29.0754925099451,275.2123,0.1345286,-1,23.46983528137207,200,-9999,12706.11843075,0.9849395751953125,0.09234619140625,-0.1260986328125,12706.10839075,-1.359690318258048,1.42056476105785,-0.08858575736473799,0.009593498893082142,0.08854709565639496,-0.06766028702259064,-0.02236557006835938,0.002891510725021362,0.0029258131980896,2,0.3834155447521929,0.5276859008586068,-0.4986307299762482,0.5708830496191339,0.9848594069480896,0.08846993744373322,-0.149080216884613,22.7015380859375,-0.6105327606201172,-37.21246337890625,2,12705.65312829167,2,0,1580908989.894295,1580903939.50652,3150,0.4829289,0,0,3826.889,14,17,1580908979.606627,12703.631943,0,11.25363,97.07246
1580908990.329921,75,0,1580907286.99823,41.20781296037784,29.0754925099451,275.2123,0.1345286,-1,23.46983528137207,200,-9999,12706.12847075,0.971923828125,0.0907745361328125,-0.1350555419921875,12706.11843075,-1.359908026102205,1.421005717409583,-0.08922508871640125,0.01144152693450451,0.04469344019889832,-0.06560315936803818,-0.004415750503540039,0.002862483263015747,0.01839619874954224,2,0.3833888017171774,0.5279150374385739,-0.4987635298692038,0.5705732481611396,0.984869122505188,0.08910674601793289,-0.1486374735832214,22.76465606689453,-0.6039562225341797,-37.3033447265625,2,12705.65312829167,2,0,1580908989.894295,1580903939.50652,3150,0.4829289,0,0,3826.889,14,17,1580908979.606627,12703.631943,0,11.25363,97.07246
1580908990.339079,76,0,1580907286.99823,41.20781296037784,29.0754925099451,275.2123,0.1345286,-1,23.46983528137207,200,-9999,12706.13851075,0.97076416015625,0.087493896484375,-0.1389923095703125,12706.12847075,-1.360168869573857,1.421350356557671,-0.08985547058834667,0.01717677339911461,0.04250513389706612,-0.06748925149440765,-0.01522970199584961,0.001072362065315247,0.01125651597976685,2,0.3833523090003992,0.5281062305886928,-0.4989248180993792,0.5702796044323803,0.9848644137382507,0.08973460644483566,-0.1482896357774734,22.76465606689453,-0.6039562225341797,-37.3033447265625,2,12705.65312829167,2,0,1580908989.894295,1580903939.50652,3150,0.4829289,0,0,3826.889,14,17,1580908979.606627,12703.631943,0,11.25363,97.07246
1580908990.349025,77,0,1580907286.99823,41.20781296037784,29.0754925099451,275.2123,0.1345286,-1,23.46983528137207,200,-9999,12706.14855175,0.9879913330078125,0.080780029296875,-0.1371917724609375,12706.13851075,-1.360436434862454,1.421673066268299,-0.09059816225283157,0.0161352101713419,0.03166447207331657,-0.07666144520044327,-0.01933109760284424,-0.002966210246086121,0.005174994468688965,2,0.3832780335934559,0.5283152649112561,-0.4991194278285884,0.5699655508054384,0.9848460555076599,0.09047427773475647,-0.1479618549346924,22.82340240478516,-0.6252880096435547,-37.228271484375,2,12705.65312829167,2,0,1580908989.894295,1580903939.50652,3150,0.4829289,0,0,3826.889,14,17,1580908979.606627,12703.631943,0,11.25363,97.07246
1580908990.359011,78,0,1580907286.99823,41.20781296037784,29.0754925099451,275.2123,0.1345286,-1,23.46983528137207,200,-9999,12706.15859175,1.009841918945312,0.079559326171875,-0.12799072265625,12706.14855175,-1.360677477135407,1.422003417541267,-0.09160364453670711,0.009319048374891281,0.03738804906606674,-0.1044045835733414,-0.003297924995422363,-0.01010558009147644,0.006650686264038086,2,0.3831189131491938,0.5285909753173426,-0.4993686695517348,0.5695985529292384,0.9848044514656067,0.09147558361291885,-0.1476229578256607,22.82340240478516,-0.6252880096435547,-37.228271484375,2,12705.65312829167,2,0,1580908989.894295,1580903939.50652,3150,0.4829289,0,0,3826.889,14,17,1580908979.606627,12703.631943,0,11.25363,97.07246
1580908990.386789,79,0,1580907286.99823,41.20781296037784,29.0754925099451,275.2123,0.1345286,-1,23.46983528137207,200,-9999,12706.16863175,1.005386352539062,0.0904541015625,-0.1264801025390625,12706.15859175,-1.36085264040981,1.421950174469903,-0.09280318394977372,-0.0003809835761785507,-0.008159731514751911,-0.1213782429695129,0.02005875110626221,-0.01414301991462708,0.01503342390060425,2,0.3827876938677716,0.5288138394968428,-0.4997194818145174,0.5693066046132624,0.9846873879432678,0.09267003089189529,-0.1476590037345886,22.81132507324219,-0.6236095428466797,-37.30224609375,2,12705.65312829167,2,0,1580908989.894295,1580903939.50652,3150,0.4829289,0,0,3826.889,14,17,1580908979.606627,12703.631943,0,11.25363,97.07246
1580908990.388185,80,0,1580907286.99823,41.20781296037784,29.0754925099451,275.2123,0.1345286,-1,23.46983528137207,200,-9999,12706.17867275,1.01519775390625,0.089111328125,-0.1198883056640625,12706.16863175,-1.361031101769922,1.421564255016131,-0.09412233645453964,-0.001472333446145058,-0.03354516997933388,-0.1328477561473846,0.01759856939315796,-0.004368603229522705,0.01872307062149048,2,0.3823377035722194,0.5289683640496158,-0.5001635503863078,0.5690754008799851,0.9845085144042969,0.09398342669010162,-0.1480206996202469,22.81132507324219,-0.6236095428466797,-37.30224609375,2,12705.65312829167,2,0,1580908989.894295,1580903939.50652,3150,0.4829289,0,0,3826.889,14,17,1580908979.606627,12703.631943,0,11.25363,97.07246
1580908990.390072,81,0,1580907286.99823,41.20781296037784,29.0754925099451,275.2123,0.1345286,-1,23.46983528137207,200,-9999,12706.18871275,1.021652221679688,0.1014862060546875,-0.1095123291015625,12706.17867275,-1.361250771577044,1.420469286695156,-0.09554327563580907,-0.0007988195866346359,-0.1053650304675102,-0.144686833024025,0.02521955966949463,-0.007116466760635376,0.02387440204620361,2,0.3816898663305453,0.5289363007306168,-0.5007788815544115,0.5689989647949765,0.9842128753662109,0.09539797902107239,-0.1490784734487534,22.93523406982422,-0.4446468353271484,-37.40240478515625,2,12705.65312829167,2,0,1580908989.894295,1580903939.50652,3150,0.4829289,0,0,3826.889,14,17,1580908979.606627,12703.631943,0,11.25363,97.07246
1580908990.399043,82,0,1580907286.99823,41.20781296037784,29.0754925099451,275.2123,0.1345286,-1,23.46983528137207,200,-9999,12706.19878375,1.002914428710938,0.1038818359375,-0.12493896484375,12706.18871275,-1.361545345295211,1.418575179003205,-0.0970323053896761,0.006231680512428284,-0.1854383200407028,-0.1521505266427994,0.0345274806022644,0.002992108464241028,0.03863286972045898,2,0.3808401000738208,0.5286780477826826,-0.5015832482373848,0.5690997245526705,0.9837871193885803,0.09688011556863785,-0.1509206742048264,22.93523406982422,-0.4446468353271484,-37.40240478515625,2,12705.65312829167,2,0,1580908989.894295,1580903939.50652,3150,0.4829289,0,0,3826.889,14,17,1580908979.606627,12703.631943,0,11.25363,97.07246
1580908990.409341,83,0,1580907286.99823,41.20781296037784,29.0754925099451,275.2123,0.1345286,-1,23.46983528137207,200,-9999,12706.20882375,0.9611053466796875,0.1092987060546875,-0.1367645263671875,12706.19878375,-1.361917372411984,1.416105828653018,-0.09858870482692053,0.01287493668496609,-0.2462113797664642,-0.1617868989706039,0.01848447322845459,0.005190551280975342,0.02614033222198486,2,0.3798443537817894,0.5282567560737897,-0.5025336384453368,0.5693180666035496,0.9832613468170166,0.09842907637357712,-0.1533261388540268,22.88462066650391,-0.2359733581542969,-37.49676513671875,2,12705.65312829167,2,0,1580908989.894295,1580903939.50652,3150,0.4829289,0,0,3826.889,14,17,1580908979.606627,12703.631943,0,11.25363,97.07246
1580908990.419337,84,0,1580907286.99823,41.20781296037784,29.0754925099451,275.2123,0.1345286,-1,23.46983528137207,200,-9999,12706.21886375,0.8957977294921875,0.112030029296875,-0.170196533203125,12706.20882375,-1.362286488483719,1.413468677898511,-0.09994134891118235,0.01311233546584845,-0.2694430351257324,-0.1403120458126068,-0.01988297700881958,0.008172586560249329,0.01765978336334229,2,0.3788659657678085,0.527742154150922,-0.5034639263326155,0.5696252166223298,0.9827211499214172,0.09977506101131439,-0.1558976024389267,22.88462066650391,-0.2359733581542969,-37.49676513671875,2,12705.65312829167,2,0,1580908989.894295,1580903939.50652,3150,0.4829289,0,0,3826.889,14,17,1580908979.606627,12703.631943,0,11.25363,97.07246
1580908990.446876,85,0,1580907286.99823,41.20781296037784,29.0754925099451,275.2123,0.1345286,-1,23.46983528137207,200,-9999,12706.22890375,0.906768798828125,0.1021728515625,-0.181488037109375,12706.21886375,-1.362636717050098,1.411684840795629,-0.1009748464758524,0.01810416579246521,-0.1759855151176453,-0.1066744476556778,-0.08524936437606812,0.01132103800773621,-0.01215183734893799,2,0.378193364579883,0.5274019354814024,-0.5041490833498528,0.5697813600966704,0.9823392629623413,0.1008033454418182,-0.1576339602470398,22.91095733642578,-0.1650104522705078,-37.80889892578125,2,12706.21944375,1,2,1580908990.46061,1580903939.50652,3150,0.4829289,0,0,3826.889,14,17,1580908979.606627,12703.631943,0,11.25363,97.07246
1580908990.448255,86,0,1580907286.99823,41.20781296037784,29.0754925099451,275.2123,0.1345286,-1,23.46983528137207,200,-9999,12706.23894475,0.9850616455078125,0.10723876953125,-0.1365509033203125,12706.22890375,-1.362991551410147,1.410716607945606,-0.1018967940918781,0.02072570100426674,-0.08217447996139526,-0.09842000156641006,-0.08594918251037598,0.0003598034381866455,-0.02862226963043213,2,0.377761026333297,0.5272680035416522,-0.504653816875732,0.5697452053750891,0.9820939302444458,0.1017205566167831,-0.1585701256990433,22.91095733642578,-0.1650104522705078,-37.80889892578125,2,12706.21944375,1,2,1580908990.46061,1580903939.50652,3150,0.4829289,0,0,3826.889,14,17,1580908979.606627,12703.631943,0,11.25363,97.07246
1580908990.449507,87,0,1580907286.99823,41.20781296037784,29.0754925099451,275.2123,0.1345286,-1,23.46983528137207,200,-9999,12706.24898475,0.9957733154296875,0.1054534912109375,-0.1348724365234375,12706.23894475,-1.36336958019016,1.409324827525048,-0.1028108984464717,0.0229055006057024,-0.1385509371757507,-0.09722637385129929,-0.006746232509613037,0.0032920241355896,0.01602399349212646,2,0.3772297775785377,0.5270073948551284,-0.5052426944364837,0.5698163608154903,0.9817800521850586,0.1026298776268959,-0.159921795129776,22.71910095214844,-0.3542079925537109,-37.88482666015625,2,12706.21944375,1,2,1580908990.46061,1580903939.50652,3150,0.4829289,0,0,3826.889,14,17,1580908979.606627,12703.631943,0,11.25363,97.07246
1580908990.459444,88,0,1580907286.99823,41.20781296037784,29.0754925099451,275.2123,0.1345286,-1,23.46983528137207,200,-9999,12706.25902475,0.964385986328125,0.0999603271484375,-0.1592254638671875,12706.24898475,-1.363776499651174,1.407531548693892,-0.103822146980439,0.02511656284332275,-0.1816057860851288,-0.1083920896053314,0.01319295167922974,0.002083703875541687,0.02589207887649536,2,0.3765741402850438,0.5266491330111702,-0.50593790648002,0.5699645081246753,0.9813888669013977,0.1036357283592224,-0.161665216088295,22.71910095214844,-0.3542079925537109,-37.88482666015625,2,12706.21944375,1,2,1580908990.46061,1580903939.50652,3150,0.4829289,0,0,3826.889,14,17,1580908979.606627,12703.631943,0,11.25363,97.07246
1580908990.469485,89,0,1580907286.99823,41.20781296037784,29.0754925099451,275.2123,0.1345286,-1,23.46983528137207,200,-9999,12706.26906575,0.9532318115234375,0.1016387939453125,-0.1666259765625,12706.25902475,-1.364145321958982,1.405952895162454,-0.1049003990197234,0.01857743784785271,-0.1583372205495834,-0.1142323985695839,-0.01810044050216675,-0.005005031824111938,0.002450108528137207,2,0.3759414309691591,0.5263745083990894,-0.50659681449601,0.5700504748755254,0.981021523475647,0.1047081127762794,-0.1631958335638046,22.82784271240234,-0.1574478149414062,-38.05523681640625,2,12706.21944375,1,2,1580908990.46061,1580903939.50652,3150,0.4829289,0,0,3826.889,14,17,1580908979.606627,12703.631943,0,11.25363,97.07246
1580908990.479618,90,0,1580907286.99823,41.20781296037784,29.0754925099451,275.2123,0.1345286,-1,23.46983528137207,200,-9999,12706.27910575,0.977142333984375,0.1016082763671875,-0.15399169921875,12706.26906575,-1.364486264100802,1.40471085822628,-0.1060445253947064,0.01368893962353468,-0.1212287396192551,-0.1172319203615189,-0.03192156553268433,-0.004713043570518494,-0.00571519136428833,2,0.3753656208401658,0.5262162159919053,-0.5071993645953274,0.570040452321215,0.9806994795799255,0.1058458834886551,-0.1643942892551422,22.82784271240234,-0.1574478149414062,-38.05523681640625,2,12706.21944375,1,2,1580908990.46061,1580903939.50652,3150,0.4829289,0,0,3826.889,14,17,1580908979.606627,12703.631943,0,11.25363,97.07246
1580908990.50663,91,0,1580907286.99823,41.20781296037784,29.0754925099451,275.2123,0.1345286,-1,23.46983528137207,200,-9999,12706.28917675,0.9883880615234375,0.1106109619140625,-0.1446685791015625,12706.27910575,-1.364831575766307,1.403323567589976,-0.1073274700138283,0.01080645807087421,-0.1377426981925964,-0.1321818828582764,-0.01007229089736938,-0.00626857578754425,0.006812334060668945,2,0.3747109137693982,0.526047334969469,-0.5078624830412495,0.570036608609287,0.9803357124328613,0.1071215346455574,-0.1657318621873856,22.62513732910156,-0.3100833892822266,-38.2880859375,2,12706.21944375,1,2,1580908990.46061,1580903939.50652,3150,0.4829289,0,0,3826.889,14,17,1580908979.606627,12703.631943,0,11.25363,97.07246
1580908990.507952,92,0,1580907286.99823,41.20781296037784,29.0754925099451,275.2123,0.1345286,-1,23.46983528137207,200,-9999,12706.29921675,0.9882659912109375,0.121551513671875,-0.1420135498046875,12706.28917675,-1.365202216250441,1.401554719239082,-0.108663143959827,0.01321699563413858,-0.1724663823843002,-0.1369885057210922,0.004831314086914062,0.0003326684236526489,0.01907229423522949,2,0.373948885217699,0.5257770776318331,-0.5086156511362092,0.570114648441111,0.9798989295959473,0.1084494292736053,-0.1674413979053497,22.62513732910156,-0.3100833892822266,-38.2880859375,2,12706.21944375,1,2,1580908990.46061,1580903939.50652,3150,0.4829289,0,0,3826.889,14,17,1580908979.606627,12703.631943,0,11.25363,97.07246
1580908990.509663,93,0,1580907286.99823,41.20781296037784,29.0754925099451,275.2123,0.1345286,-1,23.46983528137207,200,-9999,12706.30925675,0.99749755859375,0.12237548828125,-0.14056396484375,12706.29921675,-1.365677735775507,1.39933401563892,-0.1099882980898846,0.02371304482221603,-0.2134718745946884,-0.1371112763881683,0.004114270210266113,0.01071359217166901,0.0237804651260376,2,0.3731013198762692,0.5253562626070708,-0.5094792948848713,0.5702869222885432,0.9793823957443237,0.1097666695713997,-0.169592410326004,22.32640838623047,-0.4102725982666016,-38.40484619140625,2,12706.21944375,1,2,1580908990.46061,1580903939.50652,3150,0.4829289,0,0,3826.889,14,17,1580908979.606627,12703.631943,0,11.25363,97.07246
1580908990.519942,94,0,1580907286.99823,41.20781296037784,29.0754925099451,275.2123,0.1345286,-1,23.46983528137207,200,-9999,12706.31929775,1.00311279296875,0.1263427734375,-0.1371612548828125,12706.30925675,-1.366322940376577,1.396596959933103,-0.1113372374909989,0.03907570987939835,-0.2605843842029572,-0.1433627903461456,0.01403903961181641,0.0108475536108017,0.02813887596130371,2,0.3721577887681464,0.5247621402939663,-0.510491345470929,0.5705452327905758,0.9787677526473999,0.1111073568463326,-0.1722465455532074,22.24200439453125,-0.2862796783447266,-38.5111083984375,2,12706.21944375,1,2,1580908990.46061,1580903939.50652,3150,0.4829289,0,0,3826.889,14,17,1580908979.606627,12703.631943,0,11.25363,97.07246
1580908990.529733,95,0,1580907286.99823,41.20781296037784,29.0754925099451,275.2123,0.1345286,-1,23.46983528137207,200,-9999,12706.32933775,0.9884490966796875,0.1201324462890625,-0.1522369384765625,12706.31929775,-1.367099634951243,1.393305657317336,-0.1127536574626595,0.0511813759803772,-0.3235947787761688,-0.1523917019367218,0.02073627710342407,0.01341685652732849,0.03517448902130127,2,0.3710840248288895,0.5240010591252579,-0.5116575335543436,0.5708993850895022,0.9780396223068237,0.1125148981809616,-0.1754390746355057,22.24200439453125,-0.2862796783447266,-38.5111083984375,2,12706.21944375,1,2,1580908990.46061,1580903939.50652,3150,0.4829289,0,0,3826.889,14,17,1580908979.606627,12703.631943,0,11.25363,97.07246
1580908990.539906,96,0,1580907286.99823,41.20781296037784,29.0754925099451,275.2123,0.1345286,-1,23.46983528137207,200,-9999,12706.33937775,0.9569854736328125,0.110076904296875,-0.1808013916015625,12706.32933775,-1.36789756935748,1.389734794188372,-0.1142549524207049,0.0518118217587471,-0.3536518514156342,-0.1611815392971039,0.01035499572753906,0.006654873490333557,0.02537417411804199,2,0.3699150771274111,0.5231758226751254,-0.5128986394822116,0.5713011326373212,0.9772397875785828,0.1140065267682076,-0.1788997948169708,22.10744476318359,-0.4082164764404297,-38.7012939453125,2,12706.21944375,1,2,1580908990.46061,1580903939.50652,3150,0.4829289,0,0,3826.889,14,17,1580908979.606627,12703.631943,0,11.25363,97.07246
1580908990.566366,97,0,1580907286.99823,41.20781296037784,29.0754925099451,275.2123,0.1345286,-1,23.46983528137207,200,-9999,12706.34941775,0.95733642578125,0.110076904296875,-0.195526123046875,12706.33937775,-1.368651113709449,1.38631221143129,-0.1157982622486396,0.04447374865412712,-0.3334909379482269,-0.1654311418533325,-0.02162551879882812,-0.005229905247688293,0.001049935817718506,2,0.3687564414472195,0.5224109705510911,-0.5141063219400477,0.5716644870846022,0.9764476418495178,0.1155396401882172,-0.1822109222412109,22.10744476318359,-0.4082164764404297,-38.7012939453125,2,12706.21944375,1,2,1580908990.46061,1580903939.50652,3150,0.4829289,0,0,3826.889,14,17,1580908979.606627,12703.631943,0,11.25363,97.07246
1580908990.567637,98,0,1580907286.99823,41.20781296037784,29.0754925099451,275.2123,0.1345286,-1,23.46983528137207,200,-9999,12706.35945875,0.918701171875,0.1119537353515625,-0.193328857421875,12706.34941775,-1.369351070965083,1.383137821497507,-0.117300439432924,0.04037519544363022,-0.3108933568000793,-0.1623316407203674,-0.02170681953430176,-0.007796064019203186,-0.01402956247329712,2,0.3676574537686524,0.5217178096667616,-0.515240404227939,0.5719842732528455,0.9756926894187927,0.1170316264033318,-0.1852770447731018,21.84067535400391,-0.2473068237304688,-38.99493408203125,2,12706.21944375,1,2,1580908990.46061,1580903939.50652,3150,0.4829289,0,0,3826.889,14,17,1580908979.606627,12703.631943,0,11.25363,97.07246
1580908990.569947,99,0,1580907286.99823,41.20781296037784,29.0754925099451,275.2123,0.1345286,-1,23.46983528137207,200,-9999,12706.36949875,0.903106689453125,0.1114654541015625,-0.205108642578125,12706.35945875,-1.369924503976279,1.380556122303512,-0.1186309409250444,0.03103416040539742,-0.2523152828216553,-0.1425499469041824,-0.05576729774475098,-0.006635457277297974,-0.007654905319213867,2,0.3667290382032801,0.5211784042649773,-0.5161870917454641,0.5722184555675255,0.9750574231147766,0.1183528825640678,-0.1877657622098923,21.84067535400391,-0.2473068237304688,-38.99493408203125,2,12706.21944375,1,2,1580908990.46061,1580903939.50652,3150,0.4829289,0,0,3826.889,14,17,1580908979.606627,12703.631943,0,11.25363,97.07246
1580908990.579969,100,0,1580907286.99823,41.20781296037784,29.0754925099451,275.2123,0.1345286,-1,23.46983528137207,200,-9999,12706.37956975,0.9193267822265625,0.11895751953125,-0.1903076171875,12706.36949875,-1.370357033339657,1.378663748546727,-0.1197321604184643,0.02127689495682716,-0.1845641136169434,-0.1167355701327324,-0.07627594470977783,-0.008862495422363281,-0.01879787445068359,2,0.3660115066478855,0.5208097483029571,-0.5169123391746306,0.572358619007802,0.9745716452598572,0.1194462925195694,-0.1895855665206909,21.60935974121094,-0.2101821899414062,-39.146728515625,2,12706.21944375,1,2,1580908990.46061,1580903939.50652,3150,0.4829289,0,0,3826.889,14,17,1580908979.606627,12703.631943,0,11.25363,97.07246
1580908990.590086,101,0,1580907286.99823,41.20781296037784,29.0754925099451,275.2123,0.1345286,-1,23.46983528137207,200,-9999,12706.38960975,0.9320831298828125,0.1233062744140625,-0.1851654052734375,12706.37956975,-1.370708943295424,1.377106916770081,-0.1205897835779035,0.01828723400831223,-0.152228832244873,-0.08828475326299667,-0.06026750802993774,-0.002805143594741821,-0.004477202892303467,2,0.3654342913896386,0.5204962728609561,-0.517495869957761,0.5724854293408469,0.9741745591163635,0.1202977299690247,-0.1910828202962875,21.60935974121094,-0.2101821899414062,-39.146728515625,2,12706.21944375,1,2,1580908990.46061,1580903939.50652,3150,0.4829289,0,0,3826.889,14,17,1580908979.606627,12703.631943,0,11.25363,97.07246
1580908990.600079,102,0,1580907286.99823,41.20781296037784,29.0754925099451,275.2123,0.1345286,-1,23.46983528137207,200,-9999,12706.39964975,0.9248809814453125,0.11651611328125,-0.1987152099609375,12706.38960975,-1.370976113083488,1.3757067050037,-0.1212499375155004,0.01351010054349899,-0.1416649967432022,-0.06998774409294128,-0.04675096273422241,0.002152130007743835,0.004811525344848633,2,0.3649362756665051,0.5201979290958444,-0.5179802885416991,0.5726362552622851,0.9738279581069946,0.1209530606865883,-0.1924312561750412,21.53193664550781,-0.3098163604736328,-39.23211669921875,2,12706.21944375,1,2,1580908990.46061,1580903939.50652,3150,0.4829289,0,0,3826.889,14,17,1580908979.606627,12703.631943,0,11.25363,97.07246
1580908990.6276,103,0,1580907286.99823,41.20781296037784,29.0754925099451,275.2123,0.1345286,-1,23.46983528137207,200,-9999,12706.40969075,0.90301513671875,0.1165924072265625,-0.207427978515625,12706.39964975,-1.371093094932816,1.374727779294157,-0.1217062667382974,0.00295945443212986,-0.1021679267287254,-0.04906488582491875,-0.05042839050292969,-0.00474192202091217,-0.006952941417694092,2,0.3645713305456905,0.5200008724058548,-0.5182974176988044,0.5727606029183008,0.973584771156311,0.1214060261845589,-0.1933736801147461,21.53193664550781,-0.3098163604736328,-39.23211669921875,2,12706.21944375,1,2,1580908990.46061,1580903939.50652,3150,0.4829289,0,0,3826.889,14,17,1580908979.606627,12703.631943,0,11.25363,97.07246
1580908990.628822,104,0,1580907286.99823,41.20781296037784,29.0754925099451,275.2123,0.1345286,-1,23.46983528137207,200,-9999,12706.41973075,0.9047698974609375,0.11859130859375,-0.2038116455078125,12706.40969075,-1.371044153715506,1.374393509996821,-0.1218937125941612,-0.007635071873664856,-0.0362309068441391,-0.0181252509355545,-0.07322913408279419,-0.005569592118263245,-0.01705223321914673,2,0.3644136914722608,0.5199570436594433,-0.5183874787128304,0.5728192516405552,0.9734978079795837,0.1215920820832253,-0.1936946660280228,21.49392700195312,-0.3496150970458984,-39.33355712890625,2,12706.21944375,1,2,1580908990.46061,1580903939.50652,3150,0.4829289,0,0,3826.889,14,17,1580908979.606627,12703.631943,0,11.25363,97.07246
1580908990.630118,105,0,1580907286.99823,41.20781296037784,29.0754925099451,275.2123,0.1345286,-1,23.46983528137207,200,-9999,12706.42977075,0.9076995849609375,0.12408447265625,-0.1939239501953125,12706.41973075,-1.370849539632918,1.37458647395703,-0.1217820182043286,-0.01688183285295963,0.01729143969714642,0.01371630281209946,-0.07329511642456055,-0.003627225756645203,-0.01411032676696777,2,0.3644479011937786,0.5200221317276204,-0.5182708310247269,0.5728437233676316,0.9735482335090637,0.121481217443943,-0.1935094147920609,21.49392700195312,-0.3496150970458984,-39.33355712890625,2,12706.21944375,1,2,1580908990.46061,1580903939.50652,3150,0.4829289,0,0,3826.889,14,17,1580908979.606627,12703.631943,0,11.25363,97.07246
1580908990.640412,106,0,1580907286.99823,41.20781296037784,29.0754925099451,275.2123,0.1345286,-1,23.46983528137207,200,-9999,12706.43981075,0.935882568359375,0.1247711181640625,-0.1845550537109375,12706.42977075,-1.370562501672134,1.375107239558899,-0.1213662145694703,-0.0196714960038662,0.05199641734361649,0.04651898890733719,-0.07118767499923706,0.001990422606468201,-0.005454301834106445,2,0.3646373806133494,0.5201283175176691,-0.5179979428457726,0.5728736745409881,0.9736984968185425,0.1210684850811958,-0.1930122226476669,21.57646179199219,-0.1807613372802734,-39.30474853515625,2,12706.21944375,1,2,1580908990.46061,1580903939.50652,3150,0.4829289,0,0,3826.889,14,17,1580908979.606627,12703.631943,0,11.25363,97.07246
1580908990.650224,107,0,1580907286.99823,41.20781296037784,29.0754925099451,275.2123,0.1345286,-1,23.46983528137207,200,-9999,12706.44985175,0.9414825439453125,0.1205902099609375,-0.185699462890625,12706.43981075,-1.370196268637732,1.375642245803636,-0.1207419872945599,-0.02316233888268471,0.04765365272760391,0.06815975904464722,-0.04478472471237183,0.004077449440956116,0.004108190536499023,2,0.3648745985446256,0.5202053214748259,-0.5176515862955497,0.5729658843447129,0.9738756418228149,0.1204488277435303,-0.1925058960914612,21.57646179199219,-0.1807613372802734,-39.30474853515625,2,12706.21944375,1,2,1580908990.46061,1580903939.50652,3150,0.4829289,0,0,3826.889,14,17,1580908979.606627,12703.631943,0,11.25363,97.07246
1580908990.66035,108,0,1580907286.99823,41.20781296037784,29.0754925099451,275.2123,0.1345286,-1,23.46983528137207,200,-9999,12706.45989175,0.9292449951171875,0.1205902099609375,-0.189361572265625,12706.44985175,-1.369727315097689,1.376277860764416,-0.119919925351942,-0.03088917955756187,0.05909523367881775,0.08923017233610153,-0.03562057018280029,0.0008075088262557983,0.0035361647605896,2,0.3651724705028992,0.5202846422866537,-0.5172115283443064,0.5731014188210466,0.974094569683075,0.1196327060461044,-0.1919059157371521,21.63077545166016,-0.1495513916015625,-39.18487548828125,2,12706.21944375,1,2,1580908990.46061,1580903939.50652,3150,0.4829289,0,0,3826.889,14,17,1580908979.606627,12703.631943,0,11.25363,97.07246
1580908990.686149,109,0,1580907286.99823,41.20781296037784,29.0754925099451,275.2123,0.1345286,-1,23.46983528137207,200,-9999,12706.46996275,0.948272705078125,0.1193084716796875,-0.186767578125,12706.45989175,-1.369181827174673,1.377148589180901,-0.1188786516595098,-0.03340906277298927,0.08281280845403671,0.1133416369557381,-0.04845273494720459,0.001555681228637695,-0.001258730888366699,2,0.3655789792502862,0.5203952722921874,-0.5166555658330291,0.5732432710488874,0.9743829965591431,0.1185988485813141,-0.1910815387964249,21.63077545166016,-0.1495513916015625,-39.18487548828125,2,12706.21944375,1,2,1580908990.46061,1580903939.50652,3150,0.4829289,0,0,3826.889,14,17,1580908979.606627,12703.631943,0,11.25363,97.07246
1580908990.687423,110,0,1580907286.99823,41.20781296037784,29.0754925099451,275.2123,0.1345286,-1,23.46983528137207,200,-9999,12706.48000275,0.9706268310546875,0.117950439453125,-0.1786651611328125,12706.46996275,-1.368558158703786,1.378094104038586,-0.1177269422058837,-0.03838362544775009,0.08846882730722427,0.1246145963668823,-0.03385978937149048,0.001788437366485596,-0.0006623268127441406,2,0.366018292763474,0.520516579013228,-0.5160373784535925,0.5734096375641071,0.9746966958045959,0.1174551919102669,-0.1901862025260925,21.67095184326172,-0.21124267578125,-38.974609375,2,12706.21944375,1,2,1580908990.46061,1580903939.50652,3150,0.4829289,0,0,3826.889,14,17,1580908979.606627,12703.631943,0,11.25363,97.07246
1580908990.690687,111,0,1580907286.99823,41.20781296037784,29.0754925099451,275.2123,0.1345286,-1,23.46983528137207,200,-9999,12706.49004275,0.955535888671875,0.1176300048828125,-0.17901611328125,12706.48000275,-1.367873746409676,1.379000647239169,-0.1165494543779459,-0.04495204985141754,0.08274968713521957,0.1275006681680679,-0.007968604564666748,0.001024767756462097,0.007098197937011719,2,0.3664392412956483,0.5206322134853875,-0.515402258737887,0.5736070544530334,0.9750038385391235,0.1162857711315155,-0.1893287599086761,21.67095184326172,-0.21124267578125,-38.974609375,2,12706.21944375,1,2,1580908990.46061,1580903939.50652,3150,0.4829289,0,0,3826.889,14,17,1580908979.606627,12703.631943,0,11.25363,97.07246
1580908990.700649,112,0,1580907286.99823,41.20781296037784,29.0754925099451,275.2123,0.1345286,-1,23.46983528137207,200,-9999,12706.50008375,0.9489593505859375,0.113677978515625,-0.1812591552734375,12706.49004275,-1.367182889825618,1.379967980317894,-0.1153348192847379,-0.04340127483010292,0.09345714747905731,0.1309796422719955,-0.02301543951034546,0.002236157655715942,0.005979239940643311,2,0.3668852558471812,0.5207582313246379,-0.5147447906116869,0.5737977706762674,0.9753243923187256,0.115079291164875,-0.188412144780159,21.55956268310547,-0.2528972625732422,-38.834228515625,2,12706.21944375,1,2,1580908990.46061,1580903939.50652,3150,0.4829289,0,0,3826.889,14,17,1580908979.606627,12703.631943,0,11.25363,97.07246
1580908990.710559,113,0,1580907286.99823,41.20781296037784,29.0754925099451,275.2123,0.1345286,-1,23.46983528137207,200,-9999,12706.51012375,0.9386138916015625,0.11480712890625,-0.1920013427734375,12706.50008375,-1.36638641297676,1.381124841246898,-0.1140437228714587,-0.05619057267904282,0.1059257984161377,0.1428869068622589,-0.02905559539794922,-0.0003060400485992432,0.003683984279632568,2,0.3673756086966557,0.5209408661810991,-0.5140036708482256,0.573982525894195,0.9756867289543152,0.1137966737151146,-0.1873115450143814,21.55956268310547,-0.2528972625732422,-38.834228515625,2,12706.21944375,1,2,1580908990.46061,1580903939.50652,3150,0.4829289,0,0,3826.889,14,17,1580908979.606627,12703.631943,0,11.25363,97.07246
1580908990.720715,114,0,1580907286.99823,41.20781296037784,29.0754925099451,275.2123,0.1345286,-1,23.46983528137207,200,-9999,12706.52016375,0.9554901123046875,0.116180419921875,-0.1815643310546875,12706.51012375,-1.36556052178949,1.382645332625158,-0.1126882537439592,-0.05550230294466019,0.1447152197360992,0.1503414064645767,-0.0418972373008728,0.001565024256706238,-0.009449899196624756,2,0.3679707391865865,0.5212190220940338,-0.5131713297651533,0.5740937596217897,0.9761212468147278,0.1124499067664146,-0.1858565360307693,21.55694580078125,-0.0824432373046875,-38.53912353515625,2,12706.21944375,1,2,1580908990.46061,1580903939.50652,3150,0.4829289,0,0,3826.889,14,17,1580908979.606627,12703.631943,0,11.25363,97.07246
1580908990.749671,115,0,1580907286.99823,41.20781296037784,29.0754925099451,275.2123,0.1345286,-1,23.46983528137207,200,-9999,12706.53020475,0.945220947265625,0.117584228515625,-0.1739501953125,12706.52016375,-1.364717731616667,1.384290136707141,-0.1112546560585637,-0.05618833377957344,0.1550845205783844,0.1575689613819122,-0.02572882175445557,0.004734918475151062,-0.001923024654388428,2,0.3686165848265091,0.5215185512553363,-0.5122917328555012,0.5741928265804452,0.9765828847885132,0.1110252887010574,-0.1842804253101349,21.55694580078125,-0.0824432373046875,-38.53912353515625,2,12706.21944375,1,2,1580908990.46061,1580903939.50652,3150,0.4829289,0,0,3826.889,14,17,1580908979.606627,12703.631943,0,11.25363,97.07246
1580908990.751169,116,0,1580907286.99823,41.20781296037784,29.0754925099451,275.2123,0.1345286,-1,23.46983528137207,200,-9999,12706.54024475,0.94805908203125,0.1152801513671875,-0.17803955078125,12706.53020475,-1.363872921593153,1.385968469193429,-0.1096841587096599,-0.05311983078718185,0.1566673070192337,0.1701433509588242,-0.03482997417449951,0.007416069507598877,0.005038678646087646,2,0.3693115304999205,0.5217973761727297,-0.5113720027695156,0.5743129317165716,0.9770610928535461,0.1094643622636795,-0.1826729774475098,21.84111022949219,0.030059814453125,-38.47979736328125,2,12706.21944375,1,2,1580908990.46061,1580903939.50652,3150,0.4829289,0,0,3826.889,14,17,1580908979.606627,12703.631943,0,11.25363,97.07246
1580908990.752238,117,0,1580907286.99823,41.20781296037784,29.0754925099451,275.2123,0.1345286,-1,23.46983528137207,200,-9999,12706.55028475,0.956024169921875,0.110992431640625,-0.1837615966796875,12706.54024475,-1.36300721275674,1.387815617970425,-0.1080250099998295,-0.05410652607679367,0.1741911768913269,0.1794005036354065,-0.03426188230514526,0.007546186447143555,0.000435948371887207,2,0.3700703196475122,0.5221088244745634,-0.5103926679568547,0.57441244885594,0.9775739908218384,0.1078150346875191,-0.1809006631374359,21.84111022949219,0.030059814453125,-38.47979736328125,2,12706.21944375,1,2,1580908990.46061,1580903939.50652,3150,0.4829289,0,0,3826.889,14,17,1580908979.606627,12703.631943,0,11.25363,97.07246
1580908990.760781,118,0,1580907286.99823,41.20781296037784,29.0754925099451,275.2123,0.1345286,-1,23.46983528137207,200,-9999,12706.56035575,0.9717559814453125,0.108428955078125,-0.1746978759765625,12706.55028475,-1.362126054810059,1.389917782096914,-0.1063614275445801,-0.05487094819545746,0.2026468068361282,0.1803158819675446,-0.02680635452270508,0.004644587635993958,-0.008462071418762207,2,0.3708898722480372,0.5224960045528949,-0.5093588531383075,0.5744494017386533,0.978127121925354,0.1061609983444214,-0.1788772493600845,22.09820556640625,0.1062660217285156,-38.1156005859375,2,12706.21944375,1,2,1580908990.46061,1580903939.50652,3150,0.4829289,0,0,3826.889,14,17,1580908979.606627,12703.631943,0,11.25363,97.07246
1580908990.771551,119,0,1580907286.99823,41.20781296037784,29.0754925099451,275.2123,0.1345286,-1,23.46983528137207,200,-9999,12706.57039575,0.983551025390625,0.106689453125,-0.1697540283203125,12706.56035575,-1.36121534066537,1.392080827921806,-0.104778926950438,-0.05917994305491447,0.204662024974823,0.1710030734539032,-0.01318180561065674,0.003829076886177063,-0.00211864709854126,2,0.3716903416011306,0.5229253331342534,-0.5083224860170807,0.5744595058278004,0.9786759614944458,0.1045873090624809,-0.1767907738685608,22.09820556640625,0.1062660217285156,-38.1156005859375,2,12706.21944375,1,2,1580908990.46061,1580903939.50652,3150,0.4829289,0,0,3826.889,14,17,1580908979.606627,12703.631943,0,11.25363,97.07246
1580908990.780845,120,0,1580907286.99823,41.20781296037784,29.0754925099451,275.2123,0.1345286,-1,23.46983528137207,200,-9999,12706.58043575,0.9849853515625,0.1033172607421875,-0.161895751953125,12706.57039575,-1.360268096867997,1.394215476924772,-0.1032918705755249,-0.06734948605298996,0.2047823667526245,0.1657692342996597,8.26716423034668e-05,0.003208339214324951,0.001257658004760742,2,0.3724429268249093,0.5233756664958722,-0.5073016127195125,0.5744643189267875,0.9792031049728394,0.1031082943081856,-0.1747283488512039,22.04442596435547,-0.09440422058105469,-37.73956298828125,2,12706.21944375,1,2,1580908990.46061,1580903939.50652,3150,0.4829289,0,0,3826.889,14,17,1580908979.606627,12703.631943,0,11.25363,97.07246
1580908990.807022,121,0,1580907286.99823,41.20781296037784,29.0754925099451,275.2123,0.1345286,-1,23.46983528137207,200,-9999,12706.59047675,0.9868011474609375,0.1008758544921875,-0.150238037109375,12706.58043575,-1.35940453306579,1.396143175851747,-0.1019721512783557,-0.0605405829846859,0.1850134581327438,0.1452844589948654,0.0008789300918579102,0.001627251505851746,0.006206214427947998,2,0.3731117821374699,0.5237896904961815,-0.5063813932012208,0.5744648212576811,0.9796712398529053,0.1017955169081688,-0.1728639155626297,22.04442596435547,-0.09440422058105469,-37.73956298828125,2,12706.21944375,1,2,1580908990.46061,1580903939.50652,3150,0.4829289,0,0,3826.889,14,17,1580908979.606627,12703.631943,0,11.25363,97.07246
1580908990.80826,122,0,1580907286.99823,41.20781296037784,29.0754925099451,275.2123,0.1345286,-1,23.46983528137207,200,-9999,12706.60051675,0.9749298095703125,0.1034698486328125,-0.1534881591796875,12706.59047675,-1.358621106878566,1.397671346745371,-0.1008103139837345,-0.0572185330092907,0.1440873593091965,0.1279012262821198,0.003031492233276367,-0.0003249645233154297,0.01715922355651855,2,0.3736506344766302,0.5241104435753343,-0.5055950473783958,0.5745148006124573,0.9800502061843872,0.1006396487355232,-0.1713868975639343,22.04715728759766,-0.0354156494140625,-37.8826904296875,2,12706.21944375,1,2,1580908990.46061,1580903939.50652,3150,0.4829289,0,0,3826.889,14,17,1580908979.606627,12703.631943,0,11.25363,97.07246
1580908990.811007,123,0,1580907286.99823,41.20781296037784,29.0754925099451,275.2123,0.1345286,-1,23.46983528137207,200,-9999,12706.61055675,0.9599151611328125,0.1022491455078125,-0.158905029296875,12706.60051675,-1.357947116760409,1.398959896233484,-0.09973487951359339,-0.04593046009540558,0.1229730322957039,0.1174152940511703,-0.008144974708557129,0.003755360841751099,0.01413935422897339,2,0.3741302734252924,0.5243618918967364,-0.5049045354000766,0.5745803109301855,0.9803761839866638,0.09956961870193481,-0.1701422929763794,22.04715728759766,-0.0354156494140625,-37.8826904296875,2,12706.21944375,1,2,1580908990.46061,1580903939.50652,3150,0.4829289,0,0,3826.889,14,17,1580908979.606627,12703.631943,0,11.25363,97.07246
1580908990.821053,124,0,1580907286.99823,41.20781296037784,29.0754925099451,275.2123,0.1345286,-1,23.46983528137207,200,-9999,12706.62059775,0.9451446533203125,0.10345458984375,-0.166778564453125,12706.61055675,-1.35733928888862,1.400225927185225,-0.09863902326808492,-0.04133517295122147,0.1196659132838249,0.1200734078884125,-0.02308577299118042,0.003110781311988831,0.007158994674682617,2,0.3746270860361334,0.5245901749912167,-0.5042316357296034,0.5746391451742099,0.9806977510452271,0.09847914427518845,-0.1689193844795227,22.20140075683594,-0.3816280364990234,-37.641845703125,2,12706.21944375,1,2,1580908990.46061,1580903939.50652,3150,0.4829289,0,0,3826.889,14,17,1580908979.606627,12703.631943,0,11.25363,97.07246
1580908990.83113,125,0,1580907286.99823,41.20781296037784,29.0754925099451,275.2123,0.1345286,-1,23.46983528137207,200,-9999,12706.63063775,0.95440673828125,0.0998382568359375,-0.1606292724609375,12706.62059775,-1.356826113361308,1.401667559172704,-0.09749215224915311,-0.03060156852006912,0.1422425955533981,0.122914731502533,-0.03898918628692627,0.005782648921012878,-0.001962661743164062,2,0.3752078633667074,0.5248398713553928,-0.5035400536634471,0.5746388198547604,0.9810510873794556,0.09733778983354568,-0.1675243377685547,22.20140075683594,-0.3816280364990234,-37.641845703125,2,12706.21944375,1,2,1580908990.46061,1580903939.50652,3150,0.4829289,0,0,3826.889,14,17,1580908979.606627,12703.631943,0,11.25363,97.07246
1580908990.841092,126,0,1580907286.99823,41.20781296037784,29.0754925099451,275.2123,0.1345286,-1,23.46983528137207,200,-9999,12706.64067775,0.974090576171875,0.100677490234375,-0.1468048095703125,12706.63063775,-1.356403680750087,1.403073625679784,-0.09633380788995766,-0.02109154500067234,0.1412191241979599,0.1211633756756783,-0.03329342603683472,0.003445938229560852,0.0005921125411987305,2,0.3758063217482056,0.5250598901467279,-0.5028775332662432,0.574626798810139,0.9813960790634155,0.09618487954139709,-0.166163444519043,22.20943450927734,-0.1277179718017578,-37.54107666015625,2,12706.21944375,1,2,1580908990.46061,1580903939.50652,3150,0.4829289,0,0,3826.889,14,17,1580908979.606627,12703.631943,0,11.25363,97.07246
1580908990.870887,127,0,1580907286.99823,41.20781296037784,29.0754925099451,275.2123,0.1345286,-1,23.46983528137207,200,-9999,12706.65074875,0.97711181640625,0.0973052978515625,-0.143096923828125,12706.64067775,-1.356056779479905,1.404148237851538,-0.09521827652856824,-0.01591489277780056,0.1060395687818527,0.1165526583790779,-0.01276475191116333,0.005415380001068115,0.01398575305938721,2,0.3763274346286846,0.5251803997641293,-0.5023084846973564,0.5746733338135549,0.9816792607307434,0.09507445991039276,-0.1651264131069183,22.20943450927734,-0.1277179718017578,-37.54107666015625,2,12706.21944375,1,2,1580908990.46061,1580903939.50652,3150,0.4829289,0,0,3826.889,14,17,1580908979.606627,12703.631943,0,11.25363,97.07246
1580908990.873003,128,0,1580907286.99823,41.20781296037784,29.0754925099451,275.2123,0.1345286,-1,23.46983528137207,200,-9999,12706.66078875,0.98553466796875,0.093902587890625,-0.1445770263671875,12706.65074875,-1.355819484949873,1.404781746258549,-0.09422517023746044,-0.006360639818012714,0.06189559400081635,0.1035368591547012,-0.008888304233551025,0.003203719854354858,0.01792412996292114,2,0.376728609913397,0.5251814496398384,-0.5018827532709147,0.5747814317291237,0.9818762540817261,0.09408580511808395,-0.1645199954509735,22.33754730224609,-0.3473796844482422,-37.60736083984375,2,12706.21944375,1,2,1580908990.46061,1580903939.50652,3150,0.4829289,0,0,3826.889,14,17,1580908979.606627,12703.631943,0,11.25363,97.07246
1580908990.874284,129,0,1580907286.99823,41.20781296037784,29.0754925099451,275.2123,0.1345286,-1,23.46983528137207,200,-9999,12706.67082975,0.979705810546875,0.08782958984375,-0.1615142822265625,12706.66078875,-1.355620534888941,1.405079008098368,-0.09341285773132521,-0.006842671893537045,0.02395646832883358,0.08398792147636414,-0.0009865760803222656,0.0005825012922286987,0.01715540885925293,2,0.3769998548234115,0.525119770582516,-0.5015744967360771,0.5749290080825967,0.9820002317428589,0.09327706694602966,-0.1642406731843948,22.33754730224609,-0.3473796844482422,-37.60736083984375,2,12706.21944375,1,2,1580908990.46061,1580903939.50652,3150,0.4829289,0,0,3826.889,14,17,1580908979.606627,12703.631943,0,11.25363,97.07246
1580908990.881272,130,0,1580907286.99823,41.20781296037784,29.0754925099451,275.2123,0.1345286,-1,23.46983528137207,200,-9999,12706.68086975,0.98077392578125,0.0853118896484375,-0.1638031005859375,12706.67082975,-1.355422929238422,1.405490604244668,-0.09279956295960004,-0.009962647221982479,0.03668621927499771,0.06387872248888016,-0.00533759593963623,-0.004556924104690552,0.0005237460136413574,2,0.377239001490835,0.5251359818485377,-0.501292724864111,0.5750032036621499,0.9821240901947021,0.09266642481088638,-0.1638458669185638,22.26577758789062,-0.5787334442138672,-37.4500732421875,2,12706.21944375,1,2,1580908990.46061,1580903939.50652,3150,0.4829289,0,0,3826.889,14,17,1580908979.606627,12703.631943,0,11.25363,97.07246
1580908990.891372,131,0,1580907286.99823,41.20781296037784,29.0754925099451,275.2123,0.1345286,-1,23.46983528137207,200,-9999,12706.69090975,0.9886016845703125,0.0885009765625,-0.154266357421875,12706.68086975,-1.355199450666037,1.40604701485337,-0.09240456651580732,-0.01498004235327244,0.05392033606767654,0.04229673370718956,-0.006899595260620117,-0.007580026984214783,-0.004657983779907227,2,0.3774407726667816,0.5252483132150201,-0.5010284905488941,0.5749983160972354,0.9822509288787842,0.09227312356233597,-0.1633053421974182,22.26577758789062,-0.5787334442138672,-37.4500732421875,2,12706.21944375,1,2,1580908990.46061,1580903939.50652,3150,0.4829289,0,0,3826.889,14,17,1580908979.606627,12703.631943,0,11.25363,97.07246
1580908990.926456,132,0,1580907286.99823,41.20781296037784,29.0754925099451,275.2123,0.1345286,-1,23.46983528137207,200,-9999,12706.70094975,0.9790496826171875,0.090057373046875,-0.1573944091796875,12706.69090975,-1.354930577440533,1.406660858718687,-0.09217902385020282,-0.02331103011965752,0.05815304070711136,0.02697422355413437,0.002638041973114014,-0.004043370485305786,0.004917740821838379,2,0.3775928813531004,0.5254243234530117,-0.5007810861031895,0.5749533549339167,0.9823716878890991,0.09204854071140289,-0.1627057939767838,22.22005462646484,-0.4219646453857422,-37.416748046875,2,12706.21944375,1,2,1580908990.46061,1580903939.50652,3150,0.4829289,0,0,3826.889,14,17,1580908979.606627,12703.631943,0,11.25363,97.07246
1580908990.927771,133,0,1580907286.99823,41.20781296037784,29.0754925099451,275.2123,0.1345286,-1,23.46983528137207,200,-9999,12706.71099075,0.980804443359375,0.0939788818359375,-0.1477508544921875,12706.70094975,-1.354696577245769,1.407335423962111,-0.09208355103343553,-0.02064946852624416,0.06814868003129959,0.01383098866790533,-0.007078349590301514,-0.00239156186580658,0.0009578466415405273,2,0.3777295087125179,0.5256407208881784,-0.5005634486827033,0.574855264232387,0.9824898242950439,0.09195347130298615,-0.162044495344162,22.22005462646484,-0.4219646453857422,-37.416748046875,2,12706.21944375,1,2,1580908990.46061,1580903939.50652,3150,0.4829289,0,0,3826.889,14,17,1580908979.606627,12703.631943,0,11.25363,97.07246
1580908990.928735,134,0,1580907286.99823,41.20781296037784,29.0754925099451,275.2123,0.1345286,-1,23.46983528137207,200,-9999,12706.72103075,0.975250244140625,0.0978851318359375,-0.1456146240234375,12706.71099075,-1.354492875180292,1.407875273408053,-0.09202374301860893,-0.01965991593897343,0.05468849837779999,0.009715250693261623,-0.005966067314147949,0.0009794235229492188,0.009581387042999268,2,0.3778293776689706,0.5258207672776813,-0.5003885155479431,0.5747772088054601,0.9825825691223145,0.09189391881227493,-0.1615149676799774,22.13676452636719,-0.4390506744384766,-37.170166015625,2,12706.21944375,1,2,1580908990.46061,1580903939.50652,3150,0.4829289,0,0,3826.889,14,17,1580908979.606627,12703.631943,0,11.25363,97.07246
1580908990.931622,135,0,1580907286.99823,41.20781296037784,29.0754925099451,275.2123,0.1345286,-1,23.46983528137207,200,-9999,12706.73107075,0.9583892822265625,0.1028900146484375,-0.1467132568359375,12706.72103075,-1.354348154183876,1.408214595004258,-0.09191849158869451,-0.01250320300459862,0.03185322135686874,0.01120662037283182,-0.01024198532104492,0.005631759762763977,0.01200997829437256,2,0.3779084421044497,0.5259217247073942,-0.5002574424875972,0.5747468909658233,0.9826467633247375,0.09178911149501801,-0.1611831039190292,22.13676452636719,-0.4390506744384766,-37.170166015625,2,12706.21944375,1,2,1580908990.46061,1580903939.50652,3150,0.4829289,0,0,3826.889,14,17,1580908979.606627,12703.631943,0,11.25363,97.07246
1580908990.941573,136,0,1580907286.99823,41.20781296037784,29.0754925099451,275.2123,0.1345286,-1,23.46983528137207,200,-9999,12706.74114175,0.9444427490234375,0.1054229736328125,-0.15557861328125,12706.73107075,-1.354269291624351,1.40846914368488,-0.09163897874034833,-0.004245186690241098,0.02165251597762108,0.03057196363806725,-0.02637600898742676,0.01022948324680328,0.01151889562606812,2,0.3780368886770032,0.5259463465552394,-0.5001192949356568,0.5747601251856096,0.9827130436897278,0.09151077270507812,-0.16093710064888,21.87821960449219,-0.4996433258056641,-37.17254638671875,2,12706.21944375,1,2,1580908990.46061,1580903939.50652,3150,0.4829289,0,0,3826.889,14,17,1580908979.606627,12703.631943,0,11.25363,97.07246
1580908990.95151,137,0,1580907286.99823,41.20781296037784,29.0754925099451,275.2123,0.1345286,-1,23.46983528137207,200,-9999,12706.75118175,0.9451141357421875,0.0965576171875,-0.159637451171875,12706.74114175,-1.354323696780367,1.408823983082409,-0.09120668717515958,0.01376470550894737,0.03287161141633987,0.043562863022089,-0.04168534278869629,0.01436960697174072,0.002477645874023438,2,0.3782721718157636,0.525939912368113,-0.499963582832793,0.5747466393534818,0.9828090071678162,0.09108028560876846,-0.1605947464704514,21.93734741210938,-0.3286647796630859,-36.9029541015625,2,12706.21944375,1,2,1580908990.46061,1580903939.50652,3150,0.4829289,0,0,3826.889,14,17,1580908979.606627,12703.631943,0,11.25363,97.07246
1580908990.964282,138,0,1580907286.99823,41.20781296037784,29.0754925099451,275.2123,0.1345286,-1,23.46983528137207,200,-9999,12706.76122275,0.9603271484375,0.0920867919921875,-0.154052734375,12706.75118175,-1.354493296278172,1.409366522202722,-0.09075942587764799,0.02467754110693932,0.05749866366386414,0.03977371752262115,-0.04254531860351562,0.006317704916000366,-0.002872705459594727,2,0.3785890900223038,0.5259622287819867,-0.499801780911351,0.5746584532627382,0.9829362630844116,0.09063487499952316,-0.1600680649280548,21.93734741210938,-0.3286647796630859,-36.9029541015625,2,12706.21944375,1,2,1580908990.46061,1580903939.50652,3150,0.4829289,0,0,3826.889,14,17,1580908979.606627,12703.631943,0,11.25363,97.07246
1580908990.987466,139,0,1580907286.99823,41.20781296037784,29.0754925099451,275.2123,0.1345286,-1,23.46983528137207,200,-9999,12706.77126275,0.974517822265625,0.08880615234375,-0.1473236083984375,12706.76122275,-1.354698382984439,1.409916106234134,-0.09032192108756144,0.02676359564065933,0.05789840221405029,0.04015268757939339,-0.02854305505752563,0.001811310648918152,0.00110781192779541,2,0.3789140973882505,0.5259819601890728,-0.4996510117807667,0.5745572379765722,0.9830631017684937,0.09019916504621506,-0.1595341712236404,22.15202331542969,-0.5049991607666016,-36.884765625,2,12706.21944375,1,2,1580908990.46061,1580903939.50652,3150,0.4829289,0,0,3826.889,14,17,1580908979.606627,12703.631943,0,11.25363,97.07246
1580908990.98893,140,0,1580907286.99823,41.20781296037784,29.0754925099451,275.2123,0.1345286,-1,23.46983528137207,200,-9999,12706.78130275,0.97796630859375,0.08746337890625,-0.1495513916015625,12706.77126275,-1.354905386499953,1.41034657715695,-0.0899423130387124,0.02741756476461887,0.04317836463451385,0.03373274207115173,-0.01352441310882568,-0.0008761137723922729,0.00804293155670166,2,0.3791921000602452,0.5259801748267311,-0.499537200566127,0.5744743001522117,0.9831653237342834,0.08982109278440475,-0.1591164171695709,22.15202331542969,-0.5049991607666016,-36.884765625,2,12706.21944375,1,2,1580908990.46061,1580903939.50652,3150,0.4829289,0,0,3826.889,14,17,1580908979.606627,12703.631943,0,11.25363,97.07246
1580908990.992126,141,0,1580907286.99823,41.20781296037784,29.0754925099451,275.2123,0.1345286,-1,23.46983528137207,200,-9999,12706.79134275,0.984283447265625,0.0898284912109375,-0.1530303955078125,12706.78130275,-1.355073740540271,1.410771423570411,-0.08962873443408005,0.02225129865109921,0.04222362488508224,0.02650039829313755,-0.009668111801147461,-0.002408847212791443,0.006086826324462891,2,0.3794382550283524,0.5259990650292725,-0.499429229332975,0.5743883616389576,0.9832605719566345,0.0895087793469429,-0.1587031930685043,21.91494750976562,-0.3246746063232422,-36.92047119140625,2,12706.21944375,1,2,1580908990.46061,1580903939.50652,3150,0.4829289,0,0,3826.889,14,17,1580908979.606627,12703.631943,0,11.25363,97.07246
1580908991.001763,142,0,1580907286.99823,41.20781296037784,29.0754925099451,275.2123,0.1345286,-1,23.46983528137207,200,-9999,12706.80138375,0.9865570068359375,0.0906829833984375,-0.15301513671875,12706.79134275,-1.355200688247716,1.411389891098235,-0.08929727932052187,0.01759260147809982,0.06489080190658569,0.03105688467621803,-0.003509283065795898,7.408857345581055e-05,0.00210881233215332,2,0.3797272319692888,0.526077322397144,-0.4992682150212624,0.5742657942760511,0.9833878874778748,0.0891786515712738,-0.1580997556447983,21.91494750976562,-0.3246746063232422,-36.92047119140625,2,12706.21944375,1,2,1580908990.46061,1580903939.50652,3150,0.4829289,0,0,3826.889,14,17,1580908979.606627,12703.631943,0,11.25363,97.07246
1580908991.01226,143,0,1580907286.99823,41.20781296037784,29.0754925099451,275.2123,0.1345286,-1,23.46983528137207,200,-9999,12706.81142929167,0.9785308837890625,0.0912322998046875,-0.1507568359375,12706.80138375,-1.355295138491477,1.412078812798794,-0.08894595855710666,0.0144561966881156,0.07000433653593063,0.03229818120598793,-0.0009487271308898926,0.001722440123558044,0.000685572624206543,2,0.3800312847432546,0.5261773807630354,-0.4990795109962319,0.5741369109425356,0.9835273623466492,0.08882872760295868,-0.1574271768331528,21.89169311523438,-0.3738994598388672,-36.5916748046875,2,12706.21944375,1,2,1580908990.46061,1580903939.50652,3150,0.4829289,0,0,3826.889,14,17,1580908979.606627,12703.631943,0,11.25363,97.07246
1580908991.048111,144,0,1580907286.99823,41.20781296037784,29.0754925099451,275.2123,0.1345286,-1,23.46983528137207,200,-9999,12706.82146929167,0.9669342041015625,0.089996337890625,-0.157012939453125,12706.81142929167,-1.355350800285023,1.412863315920253,-0.08855367076905075,0.01103476714342833,0.07673434913158417,0.03923828154802322,-0.00779038667678833,0.002145275473594666,0.002952814102172852,2,0.3803613002755498,0.5263029237661919,-0.4988514519152459,0.5740015807034976,0.9836850166320801,0.08843798190355301,-0.1566610336303711,21.89169311523438,-0.3738994598388672,-36.5916748046875,2,12706.21944375,1,2,1580908990.46061,1580903939.50652,3150,0.4829289,0,0,3826.889,14,17,1580908979.606627,12703.631943,0,11.25363,97.07246
1580908991.049368,145,0,1580907286.99823,41.20781296037784,29.0754925099451,275.2123,0.1345286,-1,23.46983528137207,200,-9999,12706.83154029167,0.9713134765625,0.0798187255859375,-0.15087890625,12706.82146929167,-1.355418828832792,1.413921989556199,-0.08821091093554902,0.01295597199350595,0.1093506142497063,0.03563742339611053,-0.02046775817871094,0.0023355633020401,-0.004572868347167969,2,0.3807476933990749,0.5265159604881994,-0.4985865448941756,0.5737802179185814,0.9838802218437195,0.08809655904769897,-0.1556242704391479,22.09073638916016,-0.3232936859130859,-36.5318603515625,2,12706.21944375,1,2,1580908990.46061,1580903939.50652,3150,0.4829289,0,0,3826.889,14,17,1580908979.606627,12703.631943,0,11.25363,97.07246
1580908991.050546,146,0,1580907286.99823,41.20781296037784,29.0754925099451,275.2123,0.1345286,-1,23.46983528137207,200,-9999,12706.84158029167,0.987091064453125,0.0749664306640625,-0.1385955810546875,12706.83154029167,-1.355453579594682,1.415018683464906,-0.08807381778852476,0.005953940562903881,0.1138187274336815,0.01494498737156391,-0.01799529790878296,-0.007491350173950195,-0.001046240329742432,2,0.3810719719560454,0.5267927823950982,-0.4983544148389663,0.5735124236064224,0.9840621948242188,0.08795999735593796,-0.1545470356941223,22.09073638916016,-0.3232936859130859,-36.5318603515625,2,12706.21944375,1,2,1580908990.46061,1580903939.50652,3150,0.4829289,0,0,3826.889,14,17,1580908979.606627,12703.631943,0,11.25363,97.07246
1580908991.052083,147,0,1580907286.99823,41.20781296037784,29.0754925099451,275.2123,0.1345286,-1,23.46983528137207,200,-9999,12706.85162129167,0.9954681396484375,0.074554443359375,-0.14178466796875,12706.84158029167,-1.355430222831917,1.41586188056292,-0.08827740724949157,-0.005422018468379974,0.08461529761552811,-0.0185362733900547,-0.002544045448303223,-0.01327966153621674,0.01105725765228271,2,0.3812138814066416,0.5270851464908615,-0.4982363903975503,0.5732519554213421,0.9841744303703308,0.08816279470920563,-0.1537144482135773,21.81150054931641,-0.2840709686279297,-36.2205810546875,2,12706.21944375,1,2,1580908990.46061,1580903939.50652,3150,0.4829289,0,0,3826.889,14,17,1580908979.606627,12703.631943,0,11.25363,97.07246
1580908991.06202,148,0,1580907286.99823,41.20781296037784,29.0754925099451,275.2123,0.1345286,-1,23.46983528137207,200,-9999,12706.86166129167,0.981475830078125,0.0876617431640625,-0.1441192626953125,12706.85162129167,-1.35535099601146,1.416458891795183,-0.08881183121336293,-0.01476174406707287,0.06032267957925797,-0.05254742503166199,0.006932258605957031,-0.01527902483940125,0.00843048095703125,2,0.3811789431186688,0.5273924715330677,-0.4982295109179957,0.5729984146687113,0.9842193126678467,0.08869512379169464,-0.1531195938587189,21.81150054931641,-0.2840709686279297,-36.2205810546875,2,12706.21944375,1,2,1580908990.46061,1580903939.50652,3150,0.4829289,0,0,3826.889,14,17,1580908979.606627,12703.631943,0,11.25363,97.07246
1580908991.07223,149,0,1580907286.99823,41.20781296037784,29.0754925099451,275.2123,0.1345286,-1,23.46983528137207,200,-9999,12706.87170129167,0.93768310546875,0.0996551513671875,-0.1558074951171875,12706.86166129167,-1.355219331863615,1.416946262740122,-0.08941045546084823,-0.02392701245844364,0.04412373155355453,-0.05814938247203827,-0.003694713115692139,-0.003426536917686462,0.005758523941040039,2,0.381083249578249,0.5276927957787472,-0.4982441393781857,0.5727728929873345,0.984241247177124,0.08929137140512466,-0.1526317447423935,21.94363403320312,-0.2703075408935547,-36.17633056640625,2,12706.21944375,1,2,1580908990.46061,1580903939.50652,3150,0.4829289,0,0,3826.889,14,17,1580908979.606627,12703.631943,0,11.25363,97.07246
1580908991.103424,150,0,1580907286.99823,41.20781296037784,29.0754925099451,275.2123,0.1345286,-1,23.46983528137207,200,-9999,12706.88174129167,0.9138641357421875,0.1028594970703125,-0.1607208251953125,12706.87170129167,-1.355184517965252,1.417779702126684,-0.08985225085640053,-0.009820462204515934,0.08299561589956284,-0.04495420306921005,-0.04658365249633789,0.00896434485912323,-0.006316840648651123,2,0.3811471350063829,0.528038057189561,-0.4981825253398298,0.572465628727598,0.9843289852142334,0.08973139524459839,-0.1518053412437439,21.94363403320312,-0.2703075408935547,-36.17633056640625,2,12706.21944375,1,2,1580908990.46061,1580903939.50652,3150,0.4829289,0,0,3826.889,14,17,1580908979.606627,12703.631943,0,11.25363,97.07246
1580908991.104787,151,0,1580907286.99823,41.20781296037784,29.0754925099451,275.2123,0.1345286,-1,23.46983528137207,200,-9999,12706.89178229167,0.92694091796875,0.1002349853515625,-0.1599884033203125,12706.88174129167,-1.355245369992772,1.419204888989224,-0.09007134090902581,0.002443128265440464,0.142891451716423,-0.0216243788599968,-0.07334572076797485,0.01213271915912628,-0.01392346620559692,2,0.3814514168546312,0.5284838045439513,-0.4979814122598115,0.5720264786829048,0.9845249056816101,0.0899496003985405,-0.1503993719816208,22.08550262451172,-0.2620487213134766,-36.14447021484375,2,12706.21944375,1,2,1580908990.46061,1580903939.50652,3150,0.4829289,0,0,3826.889,14,17,1580908979.606627,12703.631943,0,11.25363,97.07246
1580908991.106022,152,0,1580907286.99823,41.20781296037784,29.0754925099451,275.2123,0.1345286,-1,23.46983528137207,200,-9999,12706.90182229167,0.97894287109375,0.0842742919921875,-0.1429443359375,12706.89178229167,-1.355402229365211,1.421202787646891,-0.09017990513603141,0.01451536361128092,0.2051761448383331,-0.009932339191436768,-0.06567078828811646,0.01091022789478302,-0.0150916576385498,2,0.3819571863266562,0.5290495225332754,-0.4976713135267197,0.5714355331854557,0.9848136901855469,0.09005772322416306,-0.1484306156635284,22.08550262451172,-0.2620487213134766,-36.14447021484375,2,12706.21944375,1,2,1580908990.46061,1580903939.50652,3150,0.4829289,0,0,3826.889,14,17,1580908979.606627,12703.631943,0,11.25363,97.07246
1580908991.112568,153,0,1580907286.99823,41.20781296037784,29.0754925099451,275.2123,0.1345286,-1,23.46983528137207,200,-9999,12706.91186229167,1.022659301757812,0.0683746337890625,-0.1102142333984375,12706.90182229167,-1.355600317391418,1.423105140847224,-0.09050161578552539,0.01713325083255768,0.1988263726234436,-0.03481452167034149,-0.01576828956604004,-0.004685550928115845,-0.003137767314910889,2,0.3823850568972049,0.5296275642691594,-0.4974426171972265,0.5708127345245753,0.9850655794143677,0.09037812054157257,-0.1465526223182678,22.23576354980469,-0.1445960998535156,-36.00433349609375,2,12706.21944375,1,2,1580908990.46061,1580903939.50652,3150,0.4829289,0,0,3826.889,14,17,1580908979.606627,12703.631943,0,11.25363,97.07246
1580908991.122704,154,0,1580907286.99823,41.20781296037784,29.0754925099451,275.2123,0.1345286,-1,23.46983528137207,200,-9999,12706.92193329167,1.025009155273438,0.0766143798828125,-0.1023712158203125,12706.91186229167,-1.355700467135133,1.424067616979272,-0.09119911907950712,-0.000627574510872364,0.1013257205486298,-0.07377540320158005,0.03060126304626465,-0.02218291163444519,0.02928727865219116,2,0.3824389804838397,0.5300403940465938,-0.4974569131718413,0.5703808824442864,0.9851436614990234,0.09107275307178497,-0.1455952078104019,22.23576354980469,-0.1445960998535156,-36.00433349609375,2,12706.21944375,1,2,1580908990.46061,1580903939.50652,3150,0.4829289,0,0,3826.889,14,17,1580908979.606627,12703.631943,0,11.25363,97.07246
1580908991.132519,155,0,1580907286.99823,41.20781296037784,29.0754925099451,275.2123,0.1345286,-1,23.46983528137207,200,-9999,12706.93197329167,0.96661376953125,0.1062774658203125,-0.1302947998046875,12706.92193329167,-1.355711834661401,1.423980304420331,-0.09198091388147185,-0.01266239956021309,-0.01667441800236702,-0.07774830609560013,0.0387873649597168,-0.01823435723781586,0.04073071479797363,2,0.3821827434158637,0.5301895708796917,-0.4976670421268213,0.5702304595929854,0.9850599765777588,0.09185127168893814,-0.1456707417964935,22.26425933837891,-0.122283935546875,-35.98394775390625,2,12706.21944375,1,2,1580908990.46061,1580903939.50652,3150,0.4829289,0,0,3826.889,14,17,1580908979.606627,12703.631943,0,11.25363,97.07246
1580908991.167741,156,0,1580907286.99823,41.20781296037784,29.0754925099451,275.2123,0.1345286,-1,23.46983528137207,200,-9999,12706.94201429167,0.9409942626953125,0.102813720703125,-0.15234375,12706.93197329167,-1.355794940893594,1.423855069442097,-0.09262910810982786,-0.001087218523025513,-0.01299650315195322,-0.06495410203933716,-0.01608192920684814,0.01154360175132751,0.01566886901855469,2,0.3819765087473587,0.5302841288414435,-0.4978723352853112,0.5701016715020053,0.9849827885627747,0.09249670058488846,-0.1457853764295578,22.26425933837891,-0.122283935546875,-35.98394775390625,2,12706.21944375,1,2,1580908990.46061,1580903939.50652,3150,0.4829289,0,0,3826.889,14,17,1580908979.606627,12703.631943,0,11.25363,97.07246
1580908991.16905,157,0,1580907286.99823,41.20781296037784,29.0754925099451,275.2123,0.1345286,-1,23.46983528137207,200,-9999,12706.95205429167,0.9613494873046875,0.09442138671875,-0.1481170654296875,12706.94201429167,-1.355926861731651,1.424139088853518,-0.09318578048951555,0.005557101219892502,0.03130704909563065,-0.05760990455746651,-0.04881751537322998,0.01097184419631958,-0.009781360626220703,2,0.3819129712410444,0.5304653129417729,-0.4979910365802301,0.5698719346843415,0.9849730730056763,0.09305097162723541,-0.1454980671405792,22.19921112060547,-0.1520195007324219,-36.03338623046875,2,12706.21944375,1,2,1580908990.46061,1580903939.50652,3150,0.4829289,0,0,3826.889,14,17,1580908979.606627,12703.631943,0,11.25363,97.07246
1580908991.17009,158,0,1580907286.99823,41.20781296037784,29.0754925099451,275.2123,0.1345286,-1,23.46983528137207,200,-9999,12706.96209429167,0.9733734130859375,0.0949554443359375,-0.1404266357421875,12706.95205429167,-1.355998380571275,1.424611265966939,-0.09368535665513933,-0.001368181779980659,0.04933451116085052,-0.04927793890237808,-0.0292934775352478,0.000554203987121582,-0.007447302341461182,2,0.3818975934379593,0.5306987159615744,-0.4980427263877488,0.5696198492572317,0.9849956631660461,0.09354837238788605,-0.1450262069702148,22.19921112060547,-0.1520195007324219,-36.03338623046875,2,12706.21944375,1,2,1580908990.46061,1580903939.50652,3150,0.4829289,0,0,3826.889,14,17,1580908979.606627,12703.631943,0,11.25363,97.07246
1580908991.172722,159,0,1580907286.99823,41.20781296037784,29.0754925099451,275.2123,0.1345286,-1,23.46983528137207,200,-9999,12706.97213529167,0.986358642578125,0.089111328125,-0.1308441162109375,12706.96209429167,-1.356012216511964,1.425056747717209,-0.09418316569658094,-0.00600660964846611,0.04812783747911453,-0.04747604206204414,-0.0168759822845459,0.0008805245161056519,8.547306060791016e-05,2,0.3818609220289246,0.530934970578969,-0.4980826096492114,0.569389194264345,0.9850138425827026,0.09404398500919342,-0.1445805877447128,22.30294036865234,-0.2683086395263672,-35.95611572265625,2,12706.21944375,1,2,1580908990.46061,1580903939.50652,3150,0.4829289,0,0,3826.889,14,17,1580908979.606627,12703.631943,0,11.25363,97.07246
1580908991.182725,160,0,1580907286.99823,41.20781296037784,29.0754925099451,275.2123,0.1345286,-1,23.46983528137207,200,-9999,12706.98217529167,0.9898834228515625,0.0889892578125,-0.126708984375,12706.97213529167,-1.355919195782538,1.425233005787612,-0.09469783169246564,-0.01670750230550766,0.01999753341078758,-0.04874160513281822,-0.003807127475738525,-0.005645886063575745,0.008891403675079346,2,0.3817236477221847,0.5311187167112009,-0.4981476075511913,0.5692530187657852,0.9849913120269775,0.09455636143684387,-0.1443999260663986,22.30294036865234,-0.2683086395263672,-35.95611572265625,2,12706.21944375,1,2,1580908990.46061,1580903939.50652,3150,0.4829289,0,0,3826.889,14,17,1580908979.606627,12703.631943,0,11.25363,97.07246
1580908991.192777,161,0,1580907286.99823,41.20781296037784,29.0754925099451,275.2123,0.1345286,-1,23.46983528137207,200,-9999,12706.99221529167,0.98187255859375,0.091796875,-0.125,12706.98217529167,-1.355721730667936,1.425067209842223,-0.09521939980138468,-0.02601977810263634,-0.01854266598820686,-0.04998051002621651,0.00113368034362793,-0.006411314010620117,0.0144040584564209,2,0.3814713393739014,0.5312265026103803,-0.4982497957793076,0.5692320381594406,0.9849182963371277,0.0950755774974823,-0.1445560455322266,22.26979827880859,-0.2639446258544922,-35.991455078125,2,12706.21944375,1,2,1580908990.46061,1580903939.50652,3150,0.4829289,0,0,3826.889,14,17,1580908979.606627,12704.575828,0,11.27213,97.07223
1580908991.228129,162,0,1580907286.99823,41.20781296037784,29.0754925099451,275.2123,0.1345286,-1,23.46983528137207,200,-9999,12707.00225529167,0.95758056640625,0.0988616943359375,-0.12493896484375,12706.99221529167,-1.355526128773612,1.42460110319916,-0.09578333483060404,-0.02637563832104206,-0.05226174369454384,-0.05696304142475128,-0.005520343780517578,-0.005220264196395874,0.01598608493804932,2,0.381131676593969,0.5312579470158201,-0.4984200145903424,0.5692812640789452,0.9847977161407471,0.09563694149255753,-0.1450072824954987,22.26979827880859,-0.2639446258544922,-35.991455078125,2,12706.21944375,1,2,1580908990.46061,1580903939.50652,3150,0.4829289,0,0,3826.889,14,17,1580908979.606627,12704.575828,0,11.27213,97.07223
