loggingTime,loggingSample,identifierForVendor,locationTimestamp_since1970,locationLatitude,locationLongitude,locationAltitude,locationSpeed,locationCourse,locationVerticalAccuracy,locationHorizontalAccuracy,locationFloor,accelerometerTimestamp_sinceReboot,accelerometerAccelerationX,accelerometerAccelerationY,accelerometerAccelerationZ,motionTimestamp_sinceReboot,motionYaw,motionRoll,motionPitch,motionRotationRateX,motionRotationRateY,motionRotationRateZ,motionUserAccelerationX,motionUserAccelerationY,motionUserAccelerationZ,motionAttitudeReferenceFrame,motionQuaternionX,motionQuaternionY,motionQuaternionZ,motionQuaternionW,motionGravityX,motionGravityY,motionGravityZ,motionMagneticFieldX,motionMagneticFieldY,motionMagneticFieldZ,motionMagneticFieldCalibrationAccuracy,activityTimestamp_sinceReboot,activity,activityActivityConfidence,activityActivityStartDate,pedometerStartDate,pedometerNumberofSteps,pedometerAverageActivePace,pedometerCurrentPace,pedometerCurrentCadence,pedometerDistance,pedometerFloorAscended,pedometerFloorDescended,pedometerEndDate,altimeterTimestamp_sinceReboot,altimeterReset,altimeterRelativeAltitude,altimeterPressure
1580907371.983736,1,0,1580907286.99823,41.20781296037784,29.0754925099451,275.2123,0.1345286,-1,23.46983528137207,200,-9999,11087.76578779167,0.9847412109375,0.0904083251953125,-0.1336517333984375,11087.76075279167,1.675927895488735,1.428982451816006,-0.09175641509355541,4.484131932258606e-05,0.004919521510601044,-0.006809715181589127,-0.02176672220230103,-0.0004777014255523682,-0.007413506507873535,2,-0.5096879583528278,0.4121237142883187,0.5408016988199097,0.5271677669537376,0.9857969284057617,0.09162771701812744,-0.1407444626092911,61.67473602294922,-4.672163009643555,12.94012451171875,2,11087.02135575,2,0,1580907371.262522,1580903939.50652,2377,0.4626901,0,0,2938.329,10,11,1580907321.19788,11084.416491,0,14.14169,97.03893
1580907372.028841,2,0,1580907286.99823,41.20781296037784,29.0754925099451,275.2123,0.1345286,-1,23.46983528137207,200,-9999,11087.77582779167,0.9597625732421875,0.0876312255859375,-0.1501922607421875,11087.77079279167,1.675935191612918,1.428951781018448,-0.09176677963567417,-0.0006840694695711136,-0.002956623211503029,-0.004351978190243244,-0.005297243595123291,-0.000549018383026123,0.002778768539428711,2,-0.5096837113881313,0.4121107198788013,0.5408089859165074,0.5271743887531228,0.9857915043830872,0.09163803607225418,-0.1407745331525803,61.67473602294922,-4.672163009643555,12.94012451171875,2,11087.02135575,2,0,1580907371.262522,1580903939.50652,2377,0.4626901,0,0,2938.329,10,11,1580907321.19788,11085.362186,0,14.12585,97.03912
1580907372.030185,3,0,1580907286.99823,41.20781296037784,29.0754925099451,275.2123,0.1345286,-1,23.46983528137207,200,-9999,11087.78586879167,0.95892333984375,0.089202880859375,-0.151123046875,11087.78083279167,1.675987706616853,1.429079047870361,-0.09175188659534218,-0.007709221914410591,0.0100284181535244,0.001465696841478348,-0.02126204967498779,-0.003784328699111938,-0.005357742309570312,2,-0.5097253467543914,0.4121352131142838,0.5407938530353266,0.5271305319517863,0.9858107566833496,0.0916232094168663,-0.1406492739915848,61.69171905517578,-4.774213790893555,12.94049072265625,2,11087.02135575,2,0,1580907371.262522,1580903939.50652,2377,0.4626901,0,0,2938.329,10,11,1580907321.19788,11085.362186,0,14.12585,97.03912
1580907372.030988,4,0,1580907286.99823,41.20781296037784,29.0754925099451,275.2123,0.1345286,-1,23.46983528137207,200,-9999,11087.79593879167,0.961822509765625,0.089874267578125,-0.1494293212890625,11087.79087279167,1.676035941536095,1.429350966753327,-0.09170428385709975,-0.003057369496673346,0.02979004755616188,0.005733785219490528,-0.03148233890533447,-0.003187477588653564,-0.01475065946578979,2,-0.5097973230091007,0.4122084142484275,0.5407482995335678,0.5270504354126571,0.9858533143997192,0.09157580137252808,-0.1403818279504776,61.69171905517578,-4.774213790893555,12.94049072265625,2,11087.02135575,2,0,1580907371.262522,1580903939.50652,2377,0.4626901,0,0,2938.329,10,11,1580907321.19788,11085.362186,0,14.12585,97.03912
1580907372.03168,5,0,1580907286.99823,41.20781296037784,29.0754925099451,275.2123,0.1345286,-1,23.46983528137207,200,-9999,11087.80597979167,0.9748077392578125,0.09075927734375,-0.140167236328125,11087.80091379167,1.676093073618664,1.429553635477901,-0.09165788535923468,-0.004245405551046133,0.02092544734477997,0.00701077189296484,-0.02811229228973389,-0.001737326383590698,-0.0123564600944519,2,-0.5098527167876858,0.4122607198372918,0.5407224331787446,0.5269824223271519,0.9858859181404114,0.09152960032224655,-0.1401826143264771,61.68346405029297,-4.624650955200195,13.11807250976562,2,11087.02135575,2,0,1580907371.262522,1580903939.50652,2377,0.4626901,0,0,2938.329,10,11,1580907321.19788,11085.362186,0,14.12585,97.03912
1580907372.032371,6,0,1580907286.99823,41.20781296037784,29.0754925099451,275.2123,0.1345286,-1,23.46983528137207,200,-9999,11087.81601979167,0.9742431640625,0.0904083251953125,-0.1417694091796875,11087.81095379167,1.676131007376648,1.429559990157133,-0.09162206177053765,-0.002425507176667452,-0.0008566081523895264,0.005191554315388203,-0.01810669898986816,-0.001304775476455688,-0.005129575729370117,2,-0.5098536097512898,0.4122631333145778,0.5407391194602215,0.5269625675054764,0.9858900904655457,0.09149392694234848,-0.1401768177747726,61.68346405029297,-4.624650955200195,13.11807250976562,2,11087.02135575,2,0,1580907371.262522,1580903939.50652,2377,0.4626901,0,0,2938.329,10,11,1580907321.19788,11085.362186,0,14.12585,97.03912
1580907372.033885,7,0,1580907286.99823,41.20781296037784,29.0754925099451,275.2123,0.1345286,-1,23.46983528137207,200,-9999,11087.82605979167,0.9700927734375,0.0901641845703125,-0.1442108154296875,11087.82099379167,1.676144970707269,1.429481634547784,-0.09159545834192794,8.532125502824783e-05,-0.00837178248912096,0.002295100130140781,-0.01196408271789551,-0.000896751880645752,-0.002106785774230957,2,-0.509828859829897,0.4122466801563818,0.5407689715336709,0.5269688556857617,0.9858815670013428,0.09146743267774582,-0.1402544230222702,61.51497650146484,-4.521978378295898,13.12124633789062,2,11087.02135575,2,0,1580907371.262522,1580903939.50652,2377,0.4626901,0,0,2938.329,10,11,1580907321.19788,11085.362186,0,14.12585,97.03912
1580907372.043835,8,0,1580907286.99823,41.20781296037784,29.0754925099451,275.2123,0.1345286,-1,23.46983528137207,200,-9999,11087.83609979167,0.9659271240234375,0.0899200439453125,-0.1476287841796875,11087.83106479167,1.676150553458422,1.429452104148779,-0.09158513189890718,0.0003163451328873634,-0.0008705258369445801,-4.856754094362259e-05,-0.01766765117645264,-0.001466363668441772,-0.005968451499938965,2,-0.5098195232480064,0.4122404869123164,0.5407803782039929,0.526971075461294,0.9858784079551697,0.09145715087652206,-0.1402836740016937,61.51497650146484,-4.521978378295898,13.12124633789062,2,11087.02135575,2,0,1580907371.262522,1580903939.50652,2377,0.4626901,0,0,2938.329,10,11,1580907321.19788,11085.362186,0,14.12585,97.03912
1580907372.066412,9,0,1580907286.99823,41.20781296037784,29.0754925099451,275.2123,0.1345286,-1,23.46983528137207,200,-9999,11087.84614079167,0.9710540771484375,0.0898284912109375,-0.1442718505859375,11087.84110479167,1.676159651065511,1.429397827925176,-0.09158985370230899,-0.001488478854298592,-0.00613159965723753,-0.0004741400480270386,-0.02211523056030273,-0.001913547515869141,-0.008997201919555664,2,-0.5098078834025985,0.4122224746115812,0.5407954903037699,0.5269808315224672,0.9858703017234802,0.09146185219287872,-0.1403371095657349,61.67108917236328,-4.469461441040039,12.96743774414062,2,11087.02135575,2,0,1580907371.262522,1580903939.50652,2377,0.4626901,0,0,2938.329,10,11,1580907321.19788,11085.362186,0,14.12585,97.03912
1580907372.068412,10,0,1580907286.99823,41.20781296037784,29.0754925099451,275.2123,0.1345286,-1,23.46983528137207,200,-9999,11087.85618079167,0.9684906005859375,0.0896148681640625,-0.1447906494140625,11087.85114579167,1.676150636147467,1.429327427256465,-0.09161350107989812,0.0008351672440767288,-0.005412484519183636,-0.003559250850230455,-0.01894468069076538,-0.001815140247344971,-0.007158041000366211,2,-0.5097927102745802,0.4121993368168577,0.5408055576408266,0.5270032072841739,0.9858582019805908,0.0914854034781456,-0.1404061913490295,61.67108917236328,-4.469461441040039,12.96743774414062,2,11087.02135575,2,0,1580907371.262522,1580903939.50652,2377,0.4626901,0,0,2938.329,10,11,1580907321.19788,11085.362186,0,14.12585,97.03912
1580907372.074498,11,0,1580907286.99823,41.20781296037784,29.0754925099451,275.2123,0.1345286,-1,23.46983528137207,200,-9999,11087.86622079167,0.968109130859375,0.0914764404296875,-0.144134521484375,11087.86118579167,1.676133256049642,1.429198347516971,-0.09161695580785242,0.001327320002019405,-0.0133534986525774,-0.001300357747823,-0.01909399032592773,-0.002291560173034668,-0.006313085556030273,2,-0.5097550232352294,0.4121687811688803,0.5408331173877039,0.5270354108187343,0.9858399033546448,0.09148884564638138,-0.1405334174633026,61.51441192626953,-4.79039192199707,12.88735961914062,2,11087.02135575,2,0,1580907371.262522,1580903939.50652,2377,0.4626901,0,0,2938.329,10,11,1580907321.19788,11085.362186,0,14.12585,97.03912
1580907372.084362,12,0,1580907286.99823,41.20781296037784,29.0754925099451,275.2123,0.1345286,-1,23.46983528137207,200,-9999,11087.87629179167,0.9672393798828125,0.0917510986328125,-0.14508056640625,11087.87122579167,1.67610768729394,1.429017600304749,-0.09159678977908983,0.002871695905923843,-0.01844044402241707,0.0007574222981929779,-0.02013838291168213,-0.0008981227874755859,-0.005798518657684326,2,-0.5096960209694084,0.4121335143118165,0.5408771071340605,0.5270748690655117,0.9858162403106689,0.09146875888109207,-0.1407118588685989,61.51441192626953,-4.79039192199707,12.88735961914062,2,11087.02135575,2,0,1580907371.262522,1580903939.50652,2377,0.4626901,0,0,2938.329,10,11,1580907321.19788,11085.362186,0,14.12585,97.03912
1580907372.094129,13,0,1580907286.99823,41.20781296037784,29.0754925099451,275.2123,0.1345286,-1,23.46983528137207,200,-9999,11087.88633179167,0.9679718017578125,0.089996337890625,-0.1454010009765625,11087.88126579167,1.676082035346687,1.428834591824414,-0.09157403444102154,0.002585140056908131,-0.01675493083894253,0.00125356949865818,-0.02110642194747925,0.0002384781837463379,-0.006242871284484863,2,-0.509635750102398,0.4120984312511582,0.5409222578974375,0.5271142466183222,0.9857925772666931,0.09144610166549683,-0.1408925652503967,61.43981170654297,-4.61475944519043,12.89688110351562,2,11087.02135575,2,0,1580907371.262522,1580903939.50652,2377,0.4626901,0,0,2938.329,10,11,1580907321.19788,11085.362186,0,14.12585,97.03912
1580907372.104179,14,0,1580907286.99823,41.20781296037784,29.0754925099451,275.2123,0.1345286,-1,23.46983528137207,200,-9999,11087.89637279167,0.967254638671875,0.0888214111328125,-0.1478271484375,11087.89130679167,1.676053759191531,1.428659814157406,-0.09155774576486139,0.003183010034263134,-0.01839912310242653,0.0009950213134288788,-0.02093064785003662,-0.00143897533416748,-0.006695568561553955,2,-0.5095787175372114,0.4120643065748866,0.5409631187263692,0.5271541441837829,0.9857693910598755,0.09142988175153732,-0.1410650759935379,61.43981170654297,-4.61475944519043,12.89688110351562,2,11087.02135575,2,0,1580907371.262522,1580903939.50652,2377,0.4626901,0,0,2938.329,10,11,1580907321.19788,11085.362186,0,14.12585,97.03912
1580907372.131873,15,0,1580907286.99823,41.20781296037784,29.0754925099451,275.2123,0.1345286,-1,23.46983528137207,200,-9999,11087.90641279167,0.96441650390625,0.08807373046875,-0.1507110595703125,11087.90134679167,1.676035734812637,1.428602691120482,-0.09155173845637504,0.001818672753870487,-0.004300881177186966,-0.0004129922017455101,-0.02028214931488037,-0.002562105655670166,-0.007508754730224609,2,-0.5095581159364682,0.4120555761802182,0.5409742995303451,0.5271693601831959,0.985761821269989,0.09142389893531799,-0.1411214619874954,61.48014068603516,-4.675230026245117,13.00396728515625,2,11087.02135575,2,0,1580907371.262522,1580903939.50652,2377,0.4626901,0,0,2938.329,10,11,1580907321.19788,11085.362186,0,14.12585,97.03912
1580907372.133511,16,0,1580907286.99823,41.20781296037784,29.0754925099451,275.2123,0.1345286,-1,23.46983528137207,200,-9999,11087.91645279167,0.9676513671875,0.0886688232421875,-0.147491455078125,11087.91141779167,1.676034047903612,1.428586364946071,-0.09156007257373709,-0.0006936648860573769,-0.002167293801903725,-0.001341083087027073,-0.02389538288116455,-0.003516554832458496,-0.0121009349822998,2,-0.5095553707055863,0.4120492744238369,0.5409760747037482,0.527175089056191,0.9857587814331055,0.09143219888210297,-0.1411374360322952,61.48014068603516,-4.675230026245117,13.00396728515625,2,11087.02135575,2,0,1580907371.262522,1580903939.50652,2377,0.4626901,0,0,2938.329,10,11,1580907321.19788,11085.362186,0,14.12585,97.03912
1580907372.135145,17,0,1580907286.99823,41.20781296037784,29.0754925099451,275.2123,0.1345286,-1,23.46983528137207,200,-9999,11087.92649379167,0.968170166015625,0.0899658203125,-0.146820068359375,11087.92145779167,1.676028067136625,1.428574075055043,-0.0915684684252256,0.00157534796744585,-0.00159924104809761,-0.0004475926980376244,-0.02174139022827148,-0.003341764211654663,-0.009433865547180176,2,-0.5095528541021613,0.4120451064281201,0.5409756677038666,0.5271811424864414,0.9857562184333801,0.09144055843353271,-0.1411494314670563,61.48348236083984,-4.45112419128418,13.01971435546875,2,11087.02135575,2,0,1580907371.262522,1580903939.50652,2377,0.4626901,0,0,2938.329,10,11,1580907321.19788,11085.362186,0,14.12585,97.03912
1580907372.144344,18,0,1580907286.99823,41.20781296037784,29.0754925099451,275.2123,0.1345286,-1,23.46983528137207,200,-9999,11087.93653379167,0.9650115966796875,0.0903778076171875,-0.1470794677734375,11087.93149779167,1.676037982186511,1.428573622551674,-0.09157423427596652,-0.0005713794380426407,-0.0008367486298084259,-0.0009998166933655739,-0.01968097686767578,-0.001959025859832764,-0.007999122142791748,2,-0.50955614527479,0.4120408048205776,0.5409770842291692,0.5271799500835246,0.9857556819915771,0.09144630283117294,-0.1411498188972473,61.48348236083984,-4.45112419128418,13.01971435546875,2,11087.02135575,2,0,1580907371.262522,1580903939.50652,2377,0.4626901,0,0,2938.329,10,11,1580907321.19788,11085.362186,0,14.12585,97.03912
1580907372.154483,19,0,1580907286.99823,41.20781296037784,29.0754925099451,275.2123,0.1345286,-1,23.46983528137207,200,-9999,11087.94657379167,0.963775634765625,0.08990478515625,-0.148529052734375,11087.94153879167,1.676065223087018,1.428604942420481,-0.09154390354595793,-0.002869421150535345,0.001984870061278343,0.003429818898439407,-0.02270936965942383,-0.00139462947845459,-0.007968664169311523,2,-0.5095628980510382,0.4120509437427783,0.5409833276252011,0.5271591396010866,0.985762894153595,0.09141609817743301,-0.1411193460226059,61.61498260498047,-4.50346565246582,13.00369262695312,2,11087.02135575,2,0,1580907371.262522,1580903939.50652,2377,0.4626901,0,0,2938.329,10,11,1580907321.19788,11085.362186,0,14.12585,97.03912
1580907372.164375,20,0,1580907286.99823,41.20781296037784,29.0754925099451,275.2123,0.1345286,-1,23.46983528137207,200,-9999,11087.95664479167,0.963470458984375,0.08880615234375,-0.1490020751953125,11087.95157879167,1.676089687061002,1.428710171583532,-0.09149459206617246,-0.001272269524633884,0.01052339747548103,0.005266356281936169,-0.02448344230651855,-0.001421719789505005,-0.009262204170227051,2,-0.5095845299026891,0.4120867478033029,0.5409743602585507,0.5271193387108083,0.9857821464538574,0.09136699140071869,-0.1410162448883057,61.61498260498047,-4.50346565246582,13.00369262695312,2,11087.02135575,2,0,1580907371.262522,1580903939.50652,2377,0.4626901,0,0,2938.329,10,11,1580907321.19788,11085.362186,0,14.12585,97.03912
1580907372.193271,21,0,1580907286.99823,41.20781296037784,29.0754925099451,275.2123,0.1345286,-1,23.46983528137207,200,-9999,11087.96668479167,0.9638671875,0.0894622802734375,-0.14910888671875,11087.96161879167,1.676133984573073,1.428895274221679,-0.09144994470032773,-0.003915989305824041,0.01785854250192642,0.00545517448335886,-0.0249561071395874,-0.002490997314453125,-0.01060432195663452,2,-0.509632973705646,0.4121371940042113,0.5409491905494964,0.5270588063396668,0.9858121871948242,0.09132253378629684,-0.1408343315124512,61.49486541748047,-4.484163284301758,12.93460083007812,2,11087.02135575,2,0,1580907371.262522,1580903939.50652,2377,0.4626901,0,0,2938.329,10,11,1580907321.19788,11085.362186,0,14.12585,97.03912
1580907372.194766,22,0,1580907286.99823,41.20781296037784,29.0754925099451,275.2123,0.1345286,-1,23.46983528137207,200,-9999,11087.97672479167,0.969451904296875,0.0894012451171875,-0.146331787109375,11087.97165979167,1.67616593827047,1.42910558596518,-0.09142822491781327,-0.003046509809792042,0.02179013565182686,0.001734356395900249,-0.02506405115127563,-0.002148836851119995,-0.01099491119384766,2,-0.5096911682770422,0.4121908112158575,0.5409090881116183,0.5270018852964322,0.9858438372612,0.09130090475082397,-0.1406272947788239,61.49486541748047,-4.484163284301758,12.93460083007812,2,11087.02135575,2,0,1580907371.262522,1580903939.50652,2377,0.4626901,0,0,2938.329,10,11,1580907321.19788,11085.362186,0,14.12585,97.03912
1580907372.195834,23,0,1580907286.99823,41.20781296037784,29.0754925099451,275.2123,0.1345286,-1,23.46983528137207,200,-9999,11087.98676579167,0.9723358154296875,0.08990478515625,-0.1439361572265625,11087.98169979167,1.67618152564913,1.429254565644507,-0.09140340566792006,-0.001761800609529018,0.01516366004943848,0.002704812213778496,-0.02101325988769531,-0.002002030611038208,-0.00924992561340332,2,-0.5097286814444326,0.4122333060683824,0.5408809832292623,0.5269612220265674,0.9858670234680176,0.09127618372440338,-0.1404807418584824,61.45044708251953,-4.73710823059082,12.95233154296875,2,11087.02135575,2,0,1580907371.262522,1580903939.50652,2377,0.4626901,0,0,2938.329,10,11,1580907321.19788,11085.362186,0,14.12585,97.03912
1580907372.204631,24,0,1580907286.99823,41.20781296037784,29.0754925099451,275.2123,0.1345286,-1,23.46983528137207,200,-9999,11087.99680579167,0.9705963134765625,0.089569091796875,-0.1437530517578125,11087.99177079167,1.676183321147251,1.429327181290333,-0.09138554027119665,-0.0002028448507189751,0.007122078910470009,0.0009756004437804222,-0.01647800207138062,-0.001663744449615479,-0.006193399429321289,2,-0.509744391602476,0.4122571592983604,0.5408670760306169,0.5269415932771346,0.9858788251876831,0.09125839173793793,-0.140409380197525,61.45044708251953,-4.73710823059082,12.95233154296875,2,11087.02135575,2,0,1580907371.262522,1580903939.50652,2377,0.4626901,0,0,2938.329,10,11,1580907321.19788,11085.362186,0,14.12585,97.03912
1580907372.21469,25,0,1580907286.99823,41.20781296037784,29.0754925099451,275.2123,0.1345286,-1,23.46983528137207,200,-9999,11088.00684579167,0.967315673828125,0.089813232421875,-0.1451416015625,11088.00181079167,1.676179742653639,1.429340943552245,-0.09136118502248304,0.0006397794932126999,0.001509467139840126,0.002066165208816528,-0.01729083061218262,-0.001868307590484619,-0.005611538887023926,2,-0.5097415056998177,0.4122687667964935,0.5408682648050582,0.5269340641406393,0.9858829379081726,0.09123414009809494,-0.1403961181640625,61.50287628173828,-4.764364242553711,13.11700439453125,2,11087.02135575,2,0,1580907371.262522,1580903939.50652,2377,0.4626901,0,0,2938.329,10,11,1580907321.19788,11085.362186,0,14.12585,97.03912
1580907372.22484,26,0,1580907286.99823,41.20781296037784,29.0754925099451,275.2123,0.1345286,-1,23.46983528137207,200,-9999,11088.01688679167,0.9679718017578125,0.089935302734375,-0.1467132568359375,11088.01185079167,1.676176502077985,1.429335057935904,-0.09133081026721074,0.001053052023053169,0.0002324655652046204,0.003705223090946674,-0.02049708366394043,-0.001609086990356445,-0.006093680858612061,2,-0.5097319199478955,0.4122768634814195,0.5408759499099132,0.526929109832148,0.9858848452568054,0.09120389074087143,-0.1404023170471191,61.50287628173828,-4.764364242553711,13.11700439453125,2,11087.02135575,2,0,1580907371.262522,1580903939.50652,2377,0.4626901,0,0,2938.329,10,11,1580907321.19788,11085.362186,0,14.12585,97.03912
1580907372.25569,27,0,1580907286.99823,41.20781296037784,29.0754925099451,275.2123,0.1345286,-1,23.46983528137207,200,-9999,11088.02692679167,0.967559814453125,0.08935546875,-0.146697998046875,11088.02189079167,1.676177473051169,1.429316791188853,-0.09128298510749037,0.0007843393832445145,-0.001298852264881134,0.005216034129261971,-0.02113962173461914,-0.001561284065246582,-0.008577167987823486,2,-0.5097155850574128,0.4122857482556406,0.540892013155778,0.5269216989683718,0.985886812210083,0.09115626662969589,-0.1404209733009338,61.39121246337891,-4.57472038269043,13.15176391601562,2,11087.02135575,2,0,1580907371.262522,1580903939.50652,2377,0.4626901,0,0,2938.329,10,11,1580907321.19788,11085.362186,0,14.12585,97.03912
1580907372.257057,28,0,1580907286.99823,41.20781296037784,29.0754925099451,275.2123,0.1345286,-1,23.46983528137207,200,-9999,11088.03699779167,0.966278076171875,0.0887451171875,-0.147186279296875,11088.03193179167,1.676183563654539,1.429296836918341,-0.0912286055020049,-0.0004357537254691124,-0.00240757130086422,0.004357996396720409,-0.02036356925964355,-0.001842707395553589,-0.008328080177307129,2,-0.5096983850074038,0.4122946778608463,0.5409112366862616,0.526911383304744,0.985888659954071,0.09110211580991745,-0.1404413133859634,61.56598663330078,-4.656820297241211,13.02816772460938,2,11087.02135575,2,0,1580907371.262522,1580903939.50652,2377,0.4626901,0,0,2938.329,10,11,1580907321.19788,11085.362186,0,14.12585,97.03912
1580907372.258174,29,0,1580907286.99823,41.20781296037784,29.0754925099451,275.2123,0.1345286,-1,23.46983528137207,200,-9999,11088.04703779167,0.9676666259765625,0.08905029296875,-0.1461334228515625,11088.04197179167,1.676199205565614,1.429312254741841,-0.09116372521819795,-0.0006413497030735016,0.002908097580075264,0.006480535492300987,-0.02223312854766846,-0.002495139837265015,-0.009273052215576172,2,-0.5096900858396102,0.4123136361039582,0.5409265127007925,0.5268890576292941,0.9858968257904053,0.09103750437498093,-0.1404269635677338,61.56598663330078,-4.656820297241211,13.02816772460938,2,11087.02135575,2,0,1580907371.262522,1580903939.50652,2377,0.4626901,0,0,2938.329,10,11,1580907321.19788,11085.362186,0,14.12585,97.03912
1580907372.264922,30,0,1580907286.99823,41.20781296037784,29.0754925099451,275.2123,0.1345286,-1,23.46983528137207,200,-9999,11088.05707779167,0.9710540771484375,0.090057373046875,-0.1445159912109375,11088.05201179167,1.676225901806939,1.42930575125252,-0.09110199082768081,-0.0009052203968167305,-0.0002913977950811386,0.006972538307309151,-0.02174949645996094,-0.00249442458152771,-0.008350253105163574,2,-0.5096789203928782,0.4123230650524456,0.5409495285429005,0.5268689158852337,0.9859015345573425,0.09097602218389511,-0.1404341757297516,61.52263641357422,-4.569131851196289,12.98919677734375,2,11087.02135575,2,0,1580907371.262522,1580903939.50652,2377,0.4626901,0,0,2938.329,10,11,1580907321.19788,11085.362186,0,14.12585,97.03912
1580907372.274996,31,0,1580907286.99823,41.20781296037784,29.0754925099451,275.2123,0.1345286,-1,23.46983528137207,200,-9999,11088.06711879167,0.9695892333984375,0.0896453857421875,-0.1451873779296875,11088.06205279167,1.676245067426539,1.429263740078963,-0.09103531843472143,-0.0008085481822490692,-0.00468880869448185,0.007488658651709557,-0.01827061176300049,-0.001268237829208374,-0.006721258163452148,2,-0.5096554902699454,0.4123264155277347,0.5409806545102381,0.52685673715824,0.985901415348053,0.09090963006019592,-0.1404764205217361,61.52263641357422,-4.569131851196289,12.98919677734375,2,11087.02135575,2,0,1580907371.262522,1580903939.50652,2377,0.4626901,0,0,2938.329,10,11,1580907321.19788,11085.362186,0,14.12585,97.03912
1580907372.285177,32,0,1580907286.99823,41.20781296037784,29.0754925099451,275.2123,0.1345286,-1,23.46983528137207,200,-9999,11088.07715879167,0.967041015625,0.0895843505859375,-0.14569091796875,11088.07212279167,1.676245479278723,1.429212510051982,-0.09097199014227277,0.0006277617067098618,-0.004240972921252251,0.005676929838955402,-0.01836061477661133,-0.001342296600341797,-0.00663912296295166,2,-0.5096264137542172,0.4123312309738384,0.5410085198047692,0.5268525788805035,0.9858999848365784,0.09084656089544296,-0.140527755022049,61.73049163818359,-4.868379592895508,12.98779296875,2,11087.02135575,2,0,1580907371.262522,1580903939.50652,2377,0.4626901,0,0,2938.329,10,11,1580907321.19788,11085.362186,0,14.12585,97.03912
1580907372.314011,33,0,1580907286.99823,41.20781296037784,29.0754925099451,275.2123,0.1345286,-1,23.46983528137207,200,-9999,11088.08719879167,0.9664459228515625,0.088775634765625,-0.1459808349609375,11088.08216379167,1.676260513221593,1.429158141278448,-0.09090528903738605,-0.001883865334093571,-0.005092917941510677,0.006425011903047562,-0.02084612846374512,-0.001519829034805298,-0.007438898086547852,2,-0.5095987035461838,0.4123324584661556,0.5410417974829389,0.5268442821552618,0.9858983755111694,0.09078013896942139,-0.1405822038650513,61.73049163818359,-4.868379592895508,12.98779296875,2,11087.02135575,2,0,1580907371.262522,1580903939.50652,2377,0.4626901,0,0,2938.329,10,11,1580907321.19788,11085.362186,0,14.12585,97.03912
1580907372.315596,34,0,1580907286.99823,41.20781296037784,29.0754925099451,275.2123,0.1345286,-1,23.46983528137207,200,-9999,11088.09723879167,0.9654083251953125,0.087890625,-0.147491455078125,11088.09220379167,1.67628582309648,1.429149912381669,-0.09082714920826368,-0.001997627317905426,0.0002094060182571411,0.008433450944721699,-0.02202683687210083,-0.001838564872741699,-0.007414579391479492,2,-0.5095828743277386,0.412346505506732,0.5410686253916307,0.5268209164404829,0.9859041571617126,0.09070231765508652,-0.1405913084745407,61.59200286865234,-4.59990119934082,13.059814453125,2,11087.02135575,2,0,1580907371.262522,1580903939.50652,2377,0.4626901,0,0,2938.329,10,11,1580907321.19788,11085.362186,0,14.12585,97.03912
1580907372.317287,35,0,1580907286.99823,41.20781296037784,29.0754925099451,275.2123,0.1345286,-1,23.46983528137207,200,-9999,11088.10727979167,0.9661865234375,0.0877532958984375,-0.1465301513671875,11088.10224379167,1.6763177107112,1.429189299179064,-0.09075050876400947,-0.001232767477631569,0.003923982381820679,0.008331985212862492,-0.02310740947723389,-0.002784371376037598,-0.009298801422119141,2,-0.509581585221221,0.4123710383931953,0.5410847745774598,0.5267864767319794,0.9859166741371155,0.09062599390745163,-0.1405534744262695,61.59200286865234,-4.59990119934082,13.059814453125,2,11087.02135575,2,0,1580907371.262522,1580903939.50652,2377,0.4626901,0,0,2938.329,10,11,1580907321.19788,11085.362186,0,14.12585,97.03912
1580907372.325284,36,0,1580907286.99823,41.20781296037784,29.0754925099451,275.2123,0.1345286,-1,23.46983528137207,200,-9999,11088.11734979167,0.965179443359375,0.0877685546875,-0.1472015380859375,11088.11228479167,1.676369251377757,1.429279762591722,-0.09066389265726704,-0.004132243804633617,0.00947183184325695,0.009134162217378616,-0.02216660976409912,-0.002880990505218506,-0.00865471363067627,2,-0.5095958053885844,0.4124068702813272,0.5410953436209717,0.5267337404910728,0.9859370589256287,0.09053973853588104,-0.1404653787612915,61.63042449951172,-4.743951797485352,13.00830078125,2,11087.02135575,2,0,1580907371.262522,1580903939.50652,2377,0.4626901,0,0,2938.329,10,11,1580907321.19788,11085.362186,0,14.12585,97.03912
1580907372.335399,37,0,1580907286.99823,41.20781296037784,29.0754925099451,275.2123,0.1345286,-1,23.46983528137207,200,-9999,11088.12739079167,0.967193603515625,0.088531494140625,-0.145965576171875,11088.12232479167,1.676444326090572,1.4293621625804,-0.09056391613489129,-0.006278751417994499,0.00597723014652729,0.01048491708934307,-0.02391147613525391,-0.003223598003387451,-0.009268879890441895,2,-0.5096094535442187,0.4124384785789701,0.5411172825296849,0.5266732616895116,0.9859576225280762,0.09044016897678375,-0.1403854191303253,61.63042449951172,-4.743951797485352,13.00830078125,2,11087.02135575,2,0,1580907371.262522,1580903939.50652,2377,0.4626901,0,0,2938.329,10,11,1580907321.19788,11085.362186,0,14.12585,97.03912
1580907372.345221,38,0,1580907286.99823,41.20781296037784,29.0754925099451,275.2123,0.1345286,-1,23.46983528137207,200,-9999,11088.13743079167,0.9655609130859375,0.0887451171875,-0.146453857421875,11088.13236479167,1.676530419607467,1.429487949255122,-0.09044288070828922,-0.006830732338130474,0.01306315138936043,0.01345137972384691,-0.02131551504135132,-0.001958370208740234,-0.00774383544921875,2,-0.5096320590861227,0.4124847918592511,0.5411359131313292,0.5265958921171918,0.9859859943389893,0.09031962603330612,-0.1402629166841507,61.73433685302734,-4.812158584594727,13.15380859375,2,11087.02135575,2,0,1580907371.262522,1580903939.50652,2377,0.4626901,0,0,2938.329,10,11,1580907321.19788,11085.362186,0,14.12585,97.03912
1580907372.38004,39,0,1580907286.99823,41.20781296037784,29.0754925099451,275.2123,0.1345286,-1,23.46983528137207,200,-9999,11088.14747079167,0.97540283203125,0.09100341796875,-0.1404571533203125,11088.14240479167,1.676615678613621,1.429510980978545,-0.09031206438829566,-0.007146582938730717,0.00152580626308918,0.01504288520663977,-0.02397024631500244,-0.002071857452392578,-0.009367108345031738,2,-0.5096242906847823,0.4125071381185582,0.5411828170634049,0.526537790817812,0.9860010147094727,0.09018934518098831,-0.1402418911457062,61.73433685302734,-4.812158584594727,13.15380859375,2,11087.02135575,2,0,1580907371.262522,1580903939.50652,2377,0.4626901,0,0,2938.329,10,11,1580907321.19788,11085.362186,0,14.12585,97.03912
1580907372.381537,40,0,1580907286.99823,41.20781296037784,29.0754925099451,275.2123,0.1345286,-1,23.46983528137207,200,-9999,11088.15751179167,0.9688873291015625,0.088623046875,-0.1468505859375,11088.15247579167,1.676686750535032,1.429472058226747,-0.09016903982727306,-0.00554930604994297,-0.00459882989525795,0.01752914674580097,-0.01587516069412231,0.0003139674663543701,-0.003925204277038574,2,-0.5095939151238044,0.4125203066199345,0.5412445596694894,0.5264933813850075,0.9860082864761353,0.09004690498113632,-0.140282079577446,61.66214752197266,-4.911725997924805,12.88082885742188,2,11087.02135575,2,0,1580907371.262522,1580903939.50652,2377,0.4626901,0,0,2938.329,10,11,1580907321.19788,11085.362186,0,14.12585,97.03912
1580907372.382596,41,0,1580907286.99823,41.20781296037784,29.0754925099451,275.2123,0.1345286,-1,23.46983528137207,200,-9999,11088.16755179167,0.969085693359375,0.0887603759765625,-0.1464691162109375,11088.16251579167,1.676743713332285,1.42943572484625,-0.09004113730013753,-0.004056604113429785,-0.00505050178617239,0.01484547927975655,-0.01699531078338623,-0.0007789134979248047,-0.006160974502563477,2,-0.509564940852298,0.4125333953228368,0.5412984620786286,0.5264558663707407,0.9860146641731262,0.08991952240467072,-0.1403195410966873,61.66214752197266,-4.911725997924805,12.88082885742188,2,11087.02135575,2,0,1580907371.262522,1580903939.50652,2377,0.4626901,0,0,2938.329,10,11,1580907321.19788,11085.362186,0,14.12585,97.03912
1580907372.385641,42,0,1580907286.99823,41.20781296037784,29.0754925099451,275.2123,0.1345286,-1,23.46983528137207,200,-9999,11088.17759179167,0.9690399169921875,0.0886077880859375,-0.147308349609375,11088.17255679167,1.676784149585948,1.429402107041899,-0.08993769510157242,-0.002914200536906719,-0.001978976652026176,0.01010206155478954,-0.02073812484741211,-0.001881062984466553,-0.00945281982421875,2,-0.5095392129366199,0.4125442892841337,0.5413416311734133,0.5264278780259071,0.9860191941261292,0.08981649577617645,-0.1403539925813675,61.47782135009766,-4.762907028198242,13.051513671875,2,11087.02135575,2,0,1580907371.262522,1580903939.50652,2377,0.4626901,0,0,2938.329,10,11,1580907321.19788,11085.362186,0,14.12585,97.03912
1580907372.395395,43,0,1580907286.99823,41.20781296037784,29.0754925099451,275.2123,0.1345286,-1,23.46983528137207,200,-9999,11088.18763179167,0.973052978515625,0.0874786376953125,-0.1421051025390625,11088.18259679167,1.676824176509905,1.42928687665154,-0.08985343263961049,-0.002844425849616528,-0.01303189340978861,0.007809612900018692,-0.0195697546005249,-0.0008966326713562012,-0.009032666683197021,2,-0.5094959566679659,0.4125282181387825,0.5414010151650941,0.5264212200497858,0.9860104918479919,0.0897325724363327,-0.1404686719179153,61.47782135009766,-4.762907028198242,13.051513671875,2,11087.02135575,2,0,1580907371.262522,1580903939.50652,2377,0.4626901,0,0,2938.329,10,11,1580907321.19788,11085.362186,0,14.12585,97.03912
1580907372.40599,44,0,1580907286.99823,41.20781296037784,29.0754925099451,275.2123,0.1345286,-1,23.46983528137207,200,-9999,11088.19770279167,0.9692535400390625,0.08837890625,-0.14556884765625,11088.19263679167,1.67685785108106,1.429124510206741,-0.08978779645938564,-0.001472233794629574,-0.01688278093934059,0.006306533701717854,-0.01630258560180664,-0.002524852752685547,-0.005148172378540039,2,-0.5094431127393817,0.4124959573459276,0.5414664248669186,0.5264303429168589,0.9859934449195862,0.08966720104217529,-0.1406296044588089,61.84107208251953,-4.893499374389648,13.03121948242188,2,11087.02135575,2,0,1580907371.262522,1580903939.50652,2377,0.4626901,0,0,2938.329,10,11,1580907321.19788,11085.362186,0,14.12585,97.03912
1580907372.436961,45,0,1580907286.99823,41.20781296037784,29.0754925099451,275.2123,0.1345286,-1,23.46983528137207,200,-9999,11088.20774379167,0.9660491943359375,0.087738037109375,-0.147735595703125,11088.20267779167,1.676897509417463,1.428990565616384,-0.08972514883832815,-0.003895177971571684,-0.01396821718662977,0.005552326329052448,-0.01805925369262695,-0.001531541347503662,-0.005701601505279541,2,-0.5093998940728968,0.4124688040875327,0.5415254942163765,0.5264327292232334,0.985980212688446,0.08960480988025665,-0.1407624632120132,61.84107208251953,-4.893499374389648,13.03121948242188,2,11087.02135575,2,0,1580907371.262522,1580903939.50652,2377,0.4626901,0,0,2938.329,10,11,1580907321.19788,11085.362186,0,14.12585,97.03912
1580907372.438165,46,0,1580907286.99823,41.20781296037784,29.0754925099451,275.2123,0.1345286,-1,23.46983528137207,200,-9999,11088.21778379167,0.964202880859375,0.0873565673828125,-0.1478424072265625,11088.21271779167,1.676935535904706,1.428929342957202,-0.08963042622919662,-0.001475552096962929,-0.005200736224651337,0.008978346362709999,-0.02166008949279785,-0.001848846673965454,-0.008920490741729736,2,-0.5093683081307658,0.4124705013842452,0.5415730017004005,0.526413041011853,0.9859799742698669,0.08951046317815781,-0.140824019908905,61.82224273681641,-4.881246566772461,12.95260620117188,2,11087.02135575,2,0,1580907371.262522,1580903939.50652,2377,0.4626901,0,0,2938.329,10,11,1580907321.19788,11085.362186,0,14.12585,97.03912
1580907372.439184,47,0,1580907286.99823,41.20781296037784,29.0754925099451,275.2123,0.1345286,-1,23.46983528137207,200,-9999,11088.22782379167,0.9645538330078125,0.08721923828125,-0.1484832763671875,11088.22275779167,1.6769696148509,1.428941429012131,-0.08953565944221899,-0.0016060471534729,0.001124536618590355,0.009351722896099091,-0.02470672130584717,-0.002166211605072021,-0.009739995002746582,2,-0.509355728005783,0.4124925302919964,0.5416008292007305,0.526379347168177,0.985990047454834,0.08941607922315598,-0.1408133059740067,61.82224273681641,-4.881246566772461,12.95260620117188,2,11087.02135575,2,0,1580907371.262522,1580903939.50652,2377,0.4626901,0,0,2938.329,10,11,1580907321.19788,11085.362186,0,14.12585,97.03912
1580907372.445756,48,0,1580907286.99823,41.20781296037784,29.0754925099451,275.2123,0.1345286,-1,23.46983528137207,200,-9999,11088.23786379167,0.968658447265625,0.0864715576171875,-0.145233154296875,11088.23282879167,1.67701491073532,1.428987983256885,-0.08946252429730137,-0.003958468325436115,0.003891522064805031,0.007102252915501595,-0.02401793003082275,-0.00229153037071228,-0.009830832481384277,2,-0.5093600117707152,0.4125144963621658,0.5416178300775852,0.5263405413129512,0.9860031604766846,0.08934323489665985,-0.1407683342695236,61.73001861572266,-4.887655258178711,12.9073486328125,2,11087.02135575,2,0,1580907371.262522,1580903939.50652,2377,0.4626901,0,0,2938.329,10,11,1580907321.19788,11085.362186,0,14.12585,97.03912
1580907372.455719,49,0,1580907286.99823,41.20781296037784,29.0754925099451,275.2123,0.1345286,-1,23.46983528137207,200,-9999,11088.247902375,0.9688720703125,0.087432861328125,-0.14599609375,11088.242866375,1.677053095386025,1.429009024040084,-0.08938518136776946,-0.002535541076213121,0.001759395003318787,0.008561132475733757,-0.02154064178466797,-0.003038287162780762,-0.007974028587341309,2,-0.5093549571724072,0.4125327310831785,0.5416403680050388,0.5263077888598353,0.9860128164291382,0.08926620334386826,-0.1407485455274582,61.73001861572266,-4.887655258178711,12.9073486328125,2,11087.02135575,2,0,1580907371.262522,1580903939.50652,2377,0.4626901,0,0,2938.329,10,11,1580907321.19788,11085.362186,0,14.12585,97.03912
1580907372.465746,50,0,1580907286.99823,41.20781296037784,29.0754925099451,275.2123,0.1345286,-1,23.46983528137207,200,-9999,11088.257942375,0.965606689453125,0.0874786376953125,-0.1470489501953125,11088.252907375,1.677098892604756,1.429023633257727,-0.08931008330701462,-0.003460677806288004,0.0004877559840679169,0.008911457844078541,-0.01923012733459473,-0.00256657600402832,-0.006949901580810547,2,-0.5093502288940096,0.41254672338224,0.5416660778854772,0.5262749521171374,0.9860215187072754,0.08919140696525574,-0.1407350897789001,61.68682098388672,-4.915159225463867,13.0113525390625,2,11087.02135575,2,0,1580907371.262522,1580903939.50652,2377,0.4626901,0,0,2938.329,10,11,1580907321.19788,11085.362186,0,14.12585,97.03912
1580907372.493882,51,0,1580907286.99823,41.20781296037784,29.0754925099451,275.2123,0.1345286,-1,23.46983528137207,200,-9999,11088.267982375,0.9608306884765625,0.085845947265625,-0.1495361328125,11088.262947375,1.677148496329184,1.42913193413105,-0.08925000070824314,-0.003271326888352633,0.01020483113825321,0.006158281117677689,-0.02179896831512451,-0.001606285572052002,-0.008429586887359619,2,-0.5093752819248835,0.4125800413250523,0.5416654572458972,0.526225253401824,0.9860420823097229,0.08913155645132065,-0.1406290680170059,61.68682098388672,-4.915159225463867,13.0113525390625,2,11087.02135575,2,0,1580907371.262522,1580903939.50652,2377,0.4626901,0,0,2938.329,10,11,1580907321.19788,11085.362186,0,14.12585,97.03912
1580907372.495091,52,0,1580907286.99823,41.20781296037784,29.0754925099451,275.2123,0.1345286,-1,23.46983528137207,200,-9999,11088.278023375,0.96051025390625,0.086029052734375,-0.15093994140625,11088.272987375,1.677200254499692,1.429399401212186,-0.08918919241490653,-0.004355811513960361,0.02660716325044632,0.00670010969042778,-0.02660262584686279,-0.002873092889785767,-0.01053953170776367,2,-0.5094437329976662,0.4126548705898406,0.5416250023433822,0.5261418970243834,0.9860849380493164,0.08907099068164825,-0.1403660774230957,61.81064605712891,-4.984003067016602,12.82907104492188,2,11087.02135575,2,0,1580907371.262522,1580903939.50652,2377,0.4626901,0,0,2938.329,10,11,1580907321.19788,11085.362186,0,14.12585,97.03912
1580907372.49622,53,0,1580907286.99823,41.20781296037784,29.0754925099451,275.2123,0.1345286,-1,23.46983528137207,200,-9999,11088.288093375,0.9666290283203125,0.0878753662109375,-0.1454010009765625,11088.283027375,1.677257669591402,1.429744200841756,-0.08912203469233232,-0.005413619335740805,0.03531303629279137,0.007778691127896309,-0.02920526266098022,-0.003553688526153564,-0.01354992389678955,2,-0.5095327409011984,0.4127504438659945,0.5415678134595712,0.5260396147971512,0.9861392378807068,0.08900409936904907,-0.1400269120931625,61.81064605712891,-4.984003067016602,12.82907104492188,2,11087.02135575,2,0,1580907371.262522,1580903939.50652,2377,0.4626901,0,0,2938.329,10,11,1580907321.19788,11085.362186,0,14.12585,97.03912
1580907372.506079,54,0,1580907286.99823,41.20781296037784,29.0754925099451,275.2123,0.1345286,-1,23.46983528137207,200,-9999,11088.298134375,0.9714202880859375,0.087860107421875,-0.142791748046875,11088.293068375,1.677306604434742,1.430032144938939,-0.08905015198705865,-0.003175248857587576,0.0282617025077343,0.007365470752120018,-0.02414035797119141,-0.001650810241699219,-0.01004958152770996,2,-0.5096034602605753,0.412834574707397,0.5415239579579203,0.5259502462481894,0.9861858487129211,0.08893250674009323,-0.1397438496351242,61.79270172119141,-5.039457321166992,12.92401123046875,2,11087.02135575,2,0,1580907371.262522,1580903939.50652,2377,0.4626901,0,0,2938.329,10,11,1580907321.19788,11085.362186,0,14.12585,97.03912
1580907372.516316,55,0,1580907286.99823,41.20781296037784,29.0754925099451,275.2123,0.1345286,-1,23.46983528137207,200,-9999,11088.308174375,0.9744415283203125,0.0872650146484375,-0.14288330078125,11088.303108375,1.677357899489022,1.43023195716433,-0.08898911501981889,-0.00422400189563632,0.01910335943102837,0.006703143008053303,-0.01865005493164062,-0.001101583242416382,-0.005714535713195801,2,-0.5096534129698409,0.41289177273285,0.5415006691453252,0.525880960065684,0.9862191677093506,0.08887171000242233,-0.1395475715398788,61.79270172119141,-5.039457321166992,12.92401123046875,2,11087.02135575,2,0,1580907371.262522,1580903939.50652,2377,0.4626901,0,0,2938.329,10,11,1580907321.19788,11085.362186,0,14.12585,97.03912
1580907372.525951,56,0,1580907286.99823,41.20781296037784,29.0754925099451,275.2123,0.1345286,-1,23.46983528137207,200,-9999,11088.318214375,0.9755706787109375,0.0865325927734375,-0.14105224609375,11088.313179375,1.677395154269135,1.430314743185192,-0.08896988653379515,-0.002477500587701797,0.008145516738295555,0.001418632455170155,-0.01490962505340576,-0.001677483320236206,-0.005826711654663086,2,-0.5096789007487046,0.4129096074531261,0.5414937934414543,0.5258492513226637,0.9862323403358459,0.08885255455970764,-0.1394661515951157,61.61550140380859,-5.141206741333008,12.98626708984375,2,11087.02135575,2,0,1580907371.262522,1580903939.50652,2377,0.4626901,0,0,2938.329,10,11,1580907321.19788,11085.362186,0,14.12585,97.03912
1580907372.556461,57,0,1580907286.99823,41.20781296037784,29.0754925099451,275.2123,0.1345286,-1,23.46983528137207,200,-9999,11088.328254375,0.9711761474609375,0.0852508544921875,-0.1440277099609375,11088.323219375,1.677436406453325,1.430335318683561,-0.08897033136544279,-0.004165678285062313,0.001484951004385948,0.0009930599480867386,-0.01350867748260498,-0.002318739891052246,-0.00448906421661377,2,-0.5096930965152227,0.4129043742902385,0.5414992918400512,0.5258339348321673,0.9862351417541504,0.08885300159454346,-0.1394458562135696,61.61550140380859,-5.141206741333008,12.98626708984375,2,11087.02135575,2,0,1580907371.262522,1580903939.50652,2377,0.4626901,0,0,2938.329,10,11,1580907321.19788,11085.362186,0,14.12585,97.03912
1580907372.55783,58,0,1580907286.99823,41.20781296037784,29.0754925099451,275.2123,0.1345286,-1,23.46983528137207,200,-9999,11088.338295375,0.969818115234375,0.08660888671875,-0.14263916015625,11088.333259375,1.677468844237127,1.430336653257587,-0.08900197775249817,-0.003610142972320318,-0.0002905800938606262,-0.002912732306867838,-0.01640522480010986,-0.003387957811355591,-0.00584876537322998,2,-0.5097077763564949,0.4128872844029488,0.5415001704401214,0.5258322672665319,0.9862326383590698,0.08888452500104904,-0.1394441425800323,61.70685577392578,-5.070440292358398,12.87588500976562,2,11087.02135575,2,0,1580907371.262522,1580903939.50652,2377,0.4626901,0,0,2938.329,10,11,1580907321.19788,11085.362186,0,14.12585,97.03912
1580907372.558974,59,0,1580907286.99823,41.20781296037784,29.0754925099451,275.2123,0.1345286,-1,23.46983528137207,200,-9999,11088.348335375,0.965972900390625,0.0873260498046875,-0.1455230712890625,11088.343300375,1.677507018170162,1.430321851580675,-0.08901382063478382,-0.003862078301608562,-0.001588070765137672,-0.0005182847380638123,-0.01884353160858154,-0.003201425075531006,-0.006124258041381836,2,-0.5097145047974185,0.4128702277251826,0.5415112399802359,0.5258277432808489,0.9862294793128967,0.08889631927013397,-0.1394585967063904,61.70685577392578,-5.070440292358398,12.87588500976562,2,11087.02135575,2,0,1580907371.262522,1580903939.50652,2377,0.4626901,0,0,2938.329,10,11,1580907321.19788,11085.362186,0,14.12585,97.03912
1580907372.566084,60,0,1580907286.99823,41.20781296037784,29.0754925099451,275.2123,0.1345286,-1,23.46983528137207,200,-9999,11088.358375375,0.96612548828125,0.087738037109375,-0.1438140869140625,11088.353340375,1.677531823451966,1.430327187119127,-0.08899583807354422,-0.00140717625617981,0.00179414264857769,0.002484695985913277,-0.02168405055999756,-0.002023816108703613,-0.007212638854980469,2,-0.5097167326970113,0.412870528054896,0.5415205630278311,0.5258157457578795,0.986231803894043,0.08887840807437897,-0.1394535601139069,61.70528411865234,-5.250749588012695,12.75558471679688,2,11087.02135575,2,0,1580907371.262522,1580903939.50652,2377,0.4626901,0,0,2938.329,10,11,1580907321.19788,11085.362186,0,14.12585,97.03912
1580907372.57613,61,0,1580907286.99823,41.20781296037784,29.0754925099451,275.2123,0.1345286,-1,23.46983528137207,200,-9999,11088.368446375,0.9650421142578125,0.0872802734375,-0.1446075439453125,11088.363380375,1.677552946753492,1.430340825088597,-0.08897391664242826,-0.001279611140489578,0.002537431195378304,0.002162453718483448,-0.02295434474945068,-0.001345783472061157,-0.008156657218933105,2,-0.5097195066087553,0.4128750851470261,0.5415277038927681,0.5258020914419488,0.9862356185913086,0.08885657042264938,-0.1394403725862503,61.70528411865234,-5.250749588012695,12.75558471679688,2,11087.02135575,2,0,1580907371.262522,1580903939.50652,2377,0.4626901,0,0,2938.329,10,11,1580907321.19788,11085.362186,0,14.12585,97.03912
1580907372.586296,62,0,1580907286.99823,41.20781296037784,29.0754925099451,275.2123,0.1345286,-1,23.46983528137207,200,-9999,11088.378486375,0.9676666259765625,0.087921142578125,-0.1456756591796875,11088.373420375,1.677574586319945,1.430379599442021,-0.08893130315075766,-0.0009903917089104652,0.004483936354517937,0.005387808196246624,-0.02343654632568359,-0.001776278018951416,-0.006470203399658203,2,-0.5097241857240852,0.4128921399773572,0.5415333815590662,0.5257783474879731,0.986244797706604,0.08881412446498871,-0.1394026726484299,61.84247589111328,-5.160013198852539,12.94302368164062,2,11087.02135575,2,0,1580907371.262522,1580903939.50652,2377,0.4626901,0,0,2938.329,10,11,1580907321.19788,11085.362186,0,14.12585,97.03912
1580907372.61272,63,0,1580907286.99823,41.20781296037784,29.0754925099451,275.2123,0.1345286,-1,23.46983528137207,200,-9999,11088.388527375,0.9691162109375,0.0879364013671875,-0.1457061767578125,11088.383461375,1.677608345724489,1.430413975888032,-0.08888506128103899,-0.002622110303491354,0.00191824696958065,0.005554787814617157,-0.02278923988342285,-0.001455426216125488,-0.008944988250732422,2,-0.5097293166795986,0.4129059878871239,0.5415441874104135,0.5257513401094545,0.9862536787986755,0.08876806497573853,-0.1393693387508392,61.84247589111328,-5.160013198852539,12.94302368164062,2,11088.382911375,2,2,1580907372.624078,1580903939.50652,2377,0.4626901,0,0,2938.329,10,11,1580907321.19788,11085.362186,0,14.12585,97.03912
1580907372.61398,64,0,1580907286.99823,41.20781296037784,29.0754925099451,275.2123,0.1345286,-1,23.46983528137207,200,-9999,11088.398567375,0.9667816162109375,0.087127685546875,-0.1467437744140625,11088.393532375,1.67763991978832,1.430478438546184,-0.08883749491166189,-0.002309759147465229,0.006288113072514534,0.005677124485373497,-0.01956748962402344,-0.000858604907989502,-0.008473873138427734,2,-0.5097417706041873,0.4129287348037763,0.5415471189364852,0.5257185626460028,0.9862669706344604,0.08872068673372269,-0.1393063813447952,61.77387237548828,-5.052995681762695,13.0045166015625,2,11088.382911375,2,2,1580907372.624078,1580903939.50652,2377,0.4626901,0,0,2938.329,10,11,1580907321.19788,11085.362186,0,14.12585,97.03912
1580907372.616482,65,0,1580907286.99823,41.20781296037784,29.0754925099451,275.2123,0.1345286,-1,23.46983528137207,200,-9999,11088.408607375,0.9684906005859375,0.0857391357421875,-0.1461181640625,11088.403572375,1.677679701681101,1.430588326353971,-0.08879978866238579,-0.003515372052788734,0.01079631224274635,0.0037697684019804,-0.02201241254806519,-0.001614391803741455,-0.009848833084106445,2,-0.5097707002504169,0.4129583706445215,0.541538227763441,0.5256761707590423,0.986285388469696,0.08868312835693359,-0.139198437333107,61.71137237548828,-5.184274673461914,12.8873291015625,2,11088.382911375,2,2,1580907372.624078,1580903939.50652,2377,0.4626901,0,0,2938.329,10,11,1580907321.19788,11085.362186,0,14.12585,97.03912
1580907372.626547,66,0,1580907286.99823,41.20781296037784,29.0754925099451,275.2123,0.1345286,-1,23.46983528137207,200,-9999,11088.418648375,0.9685211181640625,0.085418701171875,-0.1456756591796875,11088.413612375,1.677725911015313,1.430722740464653,-0.08877921551389549,-0.003326766192913055,0.013389952480793,0.001620935276150703,-0.0209648609161377,-0.002677202224731445,-0.009508252143859863,2,-0.5098116291683222,0.4129879329122801,0.5415209252539601,0.525631256052424,0.9863060712814331,0.08866263926029205,-0.139066144824028,61.71137237548828,-5.184274673461914,12.8873291015625,2,11088.382911375,2,2,1580907372.624078,1580903939.50652,2377,0.4626901,0,0,2938.329,10,11,1580907321.19788,11085.362186,0,14.12585,97.03912
1580907372.636664,67,0,1580907286.99823,41.20781296037784,29.0754925099451,275.2123,0.1345286,-1,23.46983528137207,200,-9999,11088.428688375,0.968170166015625,0.0858917236328125,-0.145965576171875,11088.423652375,1.677791057582625,1.43088388851693,-0.08876855964434387,-0.006322023458778858,0.01522540301084518,0.001745305024087429,-0.02071356773376465,-0.00335317850112915,-0.009591221809387207,2,-0.5098661307799657,0.4130167805744674,0.5414994475246916,0.5255779013516947,0.9863294363021851,0.08865202218294144,-0.138907328248024,61.67063140869141,-5.185285568237305,12.87750244140625,2,11088.382911375,2,2,1580907372.624078,1580903939.50652,2377,0.4626901,0,0,2938.329,10,11,1580907321.19788,11085.362186,0,14.12585,97.03912
1580907372.646421,68,0,1580907286.99823,41.20781296037784,29.0754925099451,275.2123,0.1345286,-1,23.46983528137207,200,-9999,11088.438728375,0.9677886962890625,0.0861663818359375,-0.1451416015625,11088.433693375,1.677862782116415,1.431062662404542,-0.08876625843653578,-0.006940281018614769,0.01669831946492195,0.0001260200515389442,-0.02064716815948486,-0.003213554620742798,-0.009157836437225342,2,-0.5099288258597152,0.4130461060528736,0.5414732073656053,0.5255209210716164,0.9863543510437012,0.08864973485469818,-0.1387310177087784,61.67063140869141,-5.185285568237305,12.87750244140625,2,11088.382911375,2,2,1580907372.624078,1580903939.50652,2377,0.4626901,0,0,2938.329,10,11,1580907321.19788,11085.362186,0,14.12585,97.03912
1580907372.675964,69,0,1580907286.99823,41.20781296037784,29.0754925099451,275.2123,0.1345286,-1,23.46983528137207,200,-9999,11088.448799375,0.9659576416015625,0.0868377685546875,-0.14508056640625,11088.443733375,1.67790769578041,1.431257786358106,-0.08877628451896158,-0.00362437916919589,0.01897638663649559,-0.001980540808290243,-0.02093279361724854,-0.002887934446334839,-0.009411990642547607,2,-0.5099933409487942,0.4130830162388643,0.5414329391003831,0.5254708047569551,0.9863805174827576,0.08865971863269806,-0.1385384351015091,61.74997711181641,-5.015119552612305,12.95376586914062,2,11088.382911375,2,2,1580907372.624078,1580903939.50652,2377,0.4626901,0,0,2938.329,10,11,1580907321.19788,11085.362186,0,14.12585,97.03912
1580907372.677221,70,0,1580907286.99823,41.20781296037784,29.0754925099451,275.2123,0.1345286,-1,23.46983528137207,200,-9999,11088.458839375,0.969268798828125,0.08819580078125,-0.14300537109375,11088.453773375,1.677952060912049,1.431457104961758,-0.08876370243733053,-0.00427225511521101,0.02038618549704552,0.001569516956806183,-0.02292996644973755,-0.002127677202224731,-0.009181737899780273,2,-0.5100534540703255,0.4131276949521233,0.541396648747928,0.5254146224435552,0.9864091277122498,0.08864718675613403,-0.1383419632911682,61.74997711181641,-5.015119552612305,12.95376586914062,2,11088.382911375,2,2,1580907372.624078,1580903939.50652,2377,0.4626901,0,0,2938.329,10,11,1580907321.19788,11085.362186,0,14.12585,97.03912
1580907372.678262,71,0,1580907286.99823,41.20781296037784,29.0754925099451,275.2123,0.1345286,-1,23.46983528137207,200,-9999,11088.468879375,0.9689788818359375,0.0871429443359375,-0.143402099609375,11088.463814375,1.677999285802498,1.431605818961778,-0.0887288920796314,-0.004167858976870775,0.01401776820421219,0.004250787198543549,-0.02115309238433838,-0.0008263885974884033,-0.007863521575927734,2,-0.5100950608072193,0.4131648302776967,0.5413792009677513,0.5253630608007384,0.9864327907562256,0.08861251175403595,-0.1381957083940506,61.72772979736328,-5.048551559448242,13.05941772460938,2,11088.382911375,2,2,1580907372.624078,1580903939.50652,2377,0.4626901,0,0,2938.329,10,11,1580907321.19788,11085.362186,0,14.12585,97.03912
1580907372.686904,72,0,1580907286.99823,41.20781296037784,29.0754925099451,275.2123,0.1345286,-1,23.46983528137207,200,-9999,11088.478920375,0.9668426513671875,0.087493896484375,-0.14459228515625,11088.473884375,1.678046397469423,1.431774035833071,-0.08870182662832216,-0.004271168261766434,0.01736085489392281,0.003297449089586735,-0.01927143335342407,-0.001531809568405151,-0.007114052772521973,2,-0.5101438022116273,0.4132048533201332,0.5413549376910475,0.5253092632230071,0.986458420753479,0.08858555555343628,-0.1380300968885422,61.72772979736328,-5.048551559448242,13.05941772460938,2,11088.382911375,2,2,1580907372.624078,1580903939.50652,2377,0.4626901,0,0,2938.329,10,11,1580907321.19788,11085.362186,0,14.12585,97.03912
1580907372.696754,73,0,1580907286.99823,41.20781296037784,29.0754925099451,275.2123,0.1345286,-1,23.46983528137207,200,-9999,11088.488960375,0.969482421875,0.0866241455078125,-0.1430206298828125,11088.483925375,1.678090482460366,1.431949430034206,-0.0886635873175899,-0.002634922042489052,0.01837098971009254,0.005482306703925133,-0.02199971675872803,-0.001402080059051514,-0.009056925773620605,2,-0.5101911575953766,0.4132507782823446,0.5413306421236117,0.5252522273481202,0.98648601770401,0.0885474681854248,-0.1378575563430786,61.69567108154297,-5.276082992553711,12.9779052734375,2,11088.382911375,2,2,1580907372.624078,1580903939.50652,2377,0.4626901,0,0,2938.329,10,11,1580907321.19788,11085.362186,0,14.12585,97.03912
1580907372.706825,74,0,1580907286.99823,41.20781296037784,29.0754925099451,275.2123,0.1345286,-1,23.46983528137207,200,-9999,11088.499000375,0.9701995849609375,0.086212158203125,-0.1433868408203125,11088.493965375,1.678147653728006,1.432107956387505,-0.08864114339616695,-0.005689077079296112,0.01565879583358765,0.002693328075110912,-0.02080285549163818,-0.001547425985336304,-0.008236885070800781,2,-0.5102404664780423,0.4132843381757125,0.5413104141685789,0.5251987811944827,0.9865097999572754,0.08852510899305344,-0.1377014517784119,61.69567108154297,-5.276082992553711,12.9779052734375,2,11088.382911375,2,2,1580907372.624078,1580903939.50652,2377,0.4626901,0,0,2938.329,10,11,1580907321.19788,11085.362186,0,14.12585,97.03912
1580907372.734556,75,0,1580907286.99823,41.20781296037784,29.0754925099451,275.2123,0.1345286,-1,23.46983528137207,200,-9999,11088.509041375,0.9703521728515625,0.087738037109375,-0.1413421630859375,11088.504005375,1.67820102599452,1.432227724937934,-0.08861998267016925,-0.004464289639145136,0.01249122992157936,0.003135146573185921,-0.018807053565979,-0.002960652112960815,-0.007943153381347656,2,-0.5102788249933431,0.4133082979862649,0.5412987571658776,0.5251546231397491,0.9865280985832214,0.08850403130054474,-0.1375835388898849,61.76583099365234,-5.082479476928711,13.05355834960938,2,11088.382911375,2,2,1580907372.624078,1580903939.50652,2377,0.4626901,0,0,2938.329,10,11,1580907321.19788,11085.362186,0,14.12585,97.03912
1580907372.736121,76,0,1580907286.99823,41.20781296037784,29.0754925099451,275.2123,0.1345286,-1,23.46983528137207,200,-9999,11088.519081375,0.96868896484375,0.086456298828125,-0.141998291015625,11088.514045375,1.678258994656528,1.432305378490836,-0.08860845912690866,-0.006235823966562748,0.00586714968085289,0.002218753099441528,-0.01944422721862793,-0.001194387674331665,-0.007180333137512207,2,-0.5103090034199136,0.4133172784696137,0.5412968814452972,0.5251203269629302,0.9865399599075317,0.08849255740642548,-0.1375070959329605,61.76583099365234,-5.082479476928711,13.05355834960938,2,11088.382911375,2,2,1580907372.624078,1580903939.50652,2377,0.4626901,0,0,2938.329,10,11,1580907321.19788,11085.362186,0,14.12585,97.03912
1580907372.737531,77,0,1580907286.99823,41.20781296037784,29.0754925099451,275.2123,0.1345286,-1,23.46983528137207,200,-9999,11088.529152375,0.968414306640625,0.08758544921875,-0.1422576904296875,11088.524086375,1.678287177774662,1.432399608232086,-0.08861004629612315,-0.002591820899397135,0.009269338101148605,-0.0004087220877408981,-0.01942670345306396,-0.002019941806793213,-0.00583946704864502,2,-0.5103407597926911,0.4133343233098229,0.5412798148107384,0.5250934559901562,0.9865525960922241,0.08849413692951202,-0.1374140977859497,61.66181182861328,-5.066194534301758,13.14212036132812,2,11088.382911375,2,2,1580907372.624078,1580903939.50652,2377,0.4626901,0,0,2938.329,10,11,1580907321.19788,11085.362186,0,14.12585,97.03912
1580907372.747251,78,0,1580907286.99823,41.20781296037784,29.0754925099451,275.2123,0.1345286,-1,23.46983528137207,200,-9999,11088.539192375,0.9681396484375,0.0869140625,-0.1424713134765625,11088.534126375,1.678320693818087,1.432466414265646,-0.08860188462294002,-0.003511544317007065,0.006477205082774162,0.001370983198285103,-0.02169489860534668,-0.001599788665771484,-0.008179068565368652,2,-0.5103638098525241,0.413345668895721,0.5412734456837892,0.5250686505916349,0.9865624904632568,0.08848600834608078,-0.1373482793569565,61.66181182861328,-5.066194534301758,13.14212036132812,2,11088.382911375,2,2,1580907372.624078,1580903939.50652,2377,0.4626901,0,0,2938.329,10,11,1580907321.19788,11085.362186,0,14.12585,97.03912
1580907372.757084,79,0,1580907286.99823,41.20781296037784,29.0754925099451,275.2123,0.1345286,-1,23.46983528137207,200,-9999,11088.549232375,0.9673004150390625,0.087310791015625,-0.14227294921875,11088.544166375,1.678353079189576,1.432534982887107,-0.08858383491874483,-0.002932040486484766,0.007831156253814697,0.002503625117242336,-0.0204242467880249,-0.001551270484924316,-0.006980180740356445,2,-0.5103847172023529,0.4133606365074612,0.5412686230746889,0.5250414962547532,0.9865734577178955,0.08846802264451981,-0.1372808516025543,61.72875213623047,-5.053857803344727,13.19287109375,2,11088.382911375,2,2,1580907372.624078,1580903939.50652,2377,0.4626901,0,0,2938.329,10,11,1580907321.19788,11085.362186,0,14.12585,97.03912
1580907372.767302,80,0,1580907286.99823,41.20781296037784,29.0754925099451,275.2123,0.1345286,-1,23.46983528137207,200,-9999,11088.559273375,0.9688262939453125,0.08795166015625,-0.142181396484375,11088.554237375,1.678374144552847,1.432607928976532,-0.08855905442549229,-0.001240577548742294,0.006985921412706375,0.002677763812243938,-0.02232843637466431,-0.001694381237030029,-0.007585883140563965,2,-0.5104027852432605,0.4133816521816899,0.5412613430570782,0.5250151201248836,0.9865858554840088,0.08844334632158279,-0.1372092068195343,61.72875213623047,-5.053857803344727,13.19287109375,2,11088.382911375,2,2,1580907372.624078,1580903939.50652,2377,0.4626901,0,0,2938.329,10,11,1580907321.19788,11085.362186,0,14.12585,97.03912
1580907372.79686,81,0,1580907286.99823,41.20781296037784,29.0754925099451,275.2123,0.1345286,-1,23.46983528137207,200,-9999,11088.569313375,0.96826171875,0.08612060546875,-0.1436004638671875,11088.564277375,1.678409100531653,1.432705236223218,-0.08854094432334032,-0.003884563688188791,0.009808871895074844,0.002388810738921165,-0.02064985036849976,-0.0006386637687683105,-0.007102310657501221,2,-0.5104320026415717,0.4134035078596704,0.5412498546522886,0.5249812686765167,0.9866006970405579,0.08842530101537704,-0.1371134221553802,61.66873931884766,-5.002450942993164,13.38055419921875,2,11088.382911375,2,2,1580907372.624078,1580903939.50652,2377,0.4626901,0,0,2938.329,10,11,1580907321.19788,11085.362186,0,14.12585,97.03912
1580907372.798707,82,0,1580907286.99823,41.20781296037784,29.0754925099451,275.2123,0.1345286,-1,23.46983528137207,200,-9999,11088.579353375,0.968292236328125,0.085174560546875,-0.1428375244140625,11088.574318375,1.678444157961026,1.432811858535372,-0.08853004528424516,-0.003109152428805828,0.01018071919679642,0.0017439229413867,-0.02110797166824341,-0.001955270767211914,-0.008626699447631836,2,-0.5104654660481782,0.4134257194433553,0.5412343820294097,0.5249472397323711,0.986616313457489,0.08841444551944733,-0.1370083689689636,61.66873931884766,-5.002450942993164,13.38055419921875,2,11088.382911375,2,2,1580907372.624078,1580903939.50652,2377,0.4626901,0,0,2938.329,10,11,1580907321.19788,11085.362186,0,14.12585,97.03912
1580907372.800205,83,0,1580907286.99823,41.20781296037784,29.0754925099451,275.2123,0.1345286,-1,23.46983528137207,200,-9999,11088.589393375,0.9682159423828125,0.08563232421875,-0.1426544189453125,11088.584358375,1.678478357612581,1.432938628529471,-0.08850883514925668,-0.00331821059808135,0.01314827799797058,0.003619054332375526,-0.02095943689346313,-0.00335317850112915,-0.008751869201660156,2,-0.5105017293848749,0.4134564176475943,0.5412159167307857,0.5249068489647506,0.9866355061531067,0.08839332312345505,-0.136883556842804,61.77736663818359,-5.129358291625977,13.02627563476562,2,11088.382911375,2,2,1580907372.624078,1580903939.50652,2377,0.4626901,0,0,2938.329,10,11,1580907321.19788,11085.362186,0,14.12585,97.03912
1580907372.807129,84,0,1580907286.99823,41.20781296037784,29.0754925099451,275.2123,0.1345286,-1,23.46983528137207,200,-9999,11088.599434375,0.966796875,0.0869140625,-0.1436309814453125,11088.594398375,1.678510523674846,1.433081947311835,-0.08849397028062664,-0.002928976900875568,0.01357699930667877,0.001861888915300369,-0.0210261344909668,-0.00353667140007019,-0.008344113826751709,2,-0.5105435817572256,0.4134901308844965,0.5411912168965229,0.5248650524541588,0.9866564273834229,0.08837851136922836,-0.1367423236370087,61.77736663818359,-5.129358291625977,13.02627563476562,2,11088.382911375,2,2,1580907372.624078,1580903939.50652,2377,0.4626901,0,0,2938.329,10,11,1580907321.19788,11085.362186,0,14.12585,97.03912
1580907372.817359,85,0,1580907286.99823,41.20781296037784,29.0754925099451,275.2123,0.1345286,-1,23.46983528137207,200,-9999,11088.609504375,0.9664459228515625,0.0860748291015625,-0.142486572265625,11088.604439375,1.678556364118675,1.433258830565704,-0.08848229918762901,-0.00513540580868721,0.01696507632732391,0.0008400343358516693,-0.02179902791976929,-0.001724511384963989,-0.00914454460144043,2,-0.5105981228604213,0.4135282200658632,0.5411607800652516,0.5248133241166401,0.9866815805435181,0.08836688846349716,-0.1365679353475571,61.68175506591797,-5.137521743774414,13.09323120117188,2,11088.382911375,2,2,1580907372.624078,1580903939.50652,2377,0.4626901,0,0,2938.329,10,11,1580907321.19788,11085.362186,0,14.12585,97.03912
1580907372.827392,86,0,1580907286.99823,41.20781296037784,29.0754925099451,275.2123,0.1345286,-1,23.46983528137207,200,-9999,11088.619545375,0.969696044921875,0.0856781005859375,-0.1417083740234375,11088.614479375,1.678586879992022,1.43344664235653,-0.08848592484190858,-0.002457526978105307,0.01882798597216606,-0.0003718109801411629,-0.02339613437652588,-0.002094358205795288,-0.008949041366577148,2,-0.5106561299928567,0.4135686509895811,0.5411199873431003,0.5247670539547825,0.9867068529129028,0.08837050199508667,-0.1363825798034668,61.68175506591797,-5.137521743774414,13.09323120117188,2,11088.382911375,2,2,1580907372.624078,1580903939.50652,2377,0.4626901,0,0,2938.329,10,11,1580907321.19788,11085.362186,0,14.12585,97.03912
1580907372.856992,87,0,1580907286.99823,41.20781296037784,29.0754925099451,275.2123,0.1345286,-1,23.46983528137207,200,-9999,11088.629585375,0.9709014892578125,0.0874176025390625,-0.1397552490234375,11088.624519375,1.678626748336245,1.433607935130212,-0.08849479114248079,-0.003956620115786791,0.01584338396787643,-6.714463233947754e-05,-0.02070128917694092,-0.003018736839294434,-0.008040547370910645,2,-0.5107101483737706,0.4135982176781164,0.5410872079022738,0.5247249759693832,0.9867280721664429,0.08837933093309402,-0.136223316192627,61.64601898193359,-5.113142013549805,13.3272705078125,2,11088.382911375,2,2,1580907372.624078,1580903939.50652,2377,0.4626901,0,0,2938.329,10,11,1580907321.19788,11085.362186,0,14.12585,97.03912
1580907372.858333,88,0,1580907286.99823,41.20781296037784,29.0754925099451,275.2123,0.1345286,-1,23.46983528137207,200,-9999,11088.639625375,0.968963623046875,0.0866241455078125,-0.1405792236328125,11088.634590375,1.678670041386361,1.433739339372314,-0.08850157819777549,-0.003655841108411551,0.01330424100160599,0.0002459157258272171,-0.01818567514419556,-0.00149962306022644,-0.006171703338623047,2,-0.5107562789700439,0.4136196743163482,0.5410634449721911,0.524687689043407,0.9867454171180725,0.08838608860969543,-0.1360935717821121,61.64601898193359,-5.113142013549805,13.3272705078125,2,11088.382911375,2,2,1580907372.624078,1580903939.50652,2377,0.4626901,0,0,2938.329,10,11,1580907321.19788,11085.362186,0,14.12585,97.03912
1580907372.859406,89,0,1580907286.99823,41.20781296037784,29.0754925099451,275.2123,0.1345286,-1,23.46983528137207,200,-9999,11088.649666375,0.9699554443359375,0.08648681640625,-0.1400909423828125,11088.644630375,1.678712455831463,1.433854641491942,-0.08852748225492103,-0.004613513592630625,0.01082989759743214,-0.002263847272843122,-0.02050316333770752,-0.001815438270568848,-0.006621837615966797,2,-0.5108024821407197,0.4136315756465032,0.5410391199502737,0.5246583956579008,0.986758828163147,0.08841189742088318,-0.135979488492012,61.79537200927734,-4.941106796264648,13.26571655273438,2,11088.382911375,2,2,1580907372.624078,1580903939.50652,2377,0.4626901,0,0,2938.329,10,11,1580907321.19788,11085.362186,0,14.12585,97.03912
1580907372.867561,90,0,1580907286.99823,41.20781296037784,29.0754925099451,275.2123,0.1345286,-1,23.46983528137207,200,-9999,11088.659706375,0.970062255859375,0.0876312255859375,-0.139739990234375,11088.654670375,1.678728098013843,1.433961045097828,-0.08854905679805128,-0.001116076484322548,0.01217954605817795,-0.001752224285155535,-0.01960021257400513,-0.002355784177780151,-0.006819009780883789,2,-0.5108397145739106,0.4136492175555389,0.5410110241250824,0.5246371245170882,0.986771285533905,0.08843338489532471,-0.1358742266893387,61.79537200927734,-4.941106796264648,13.26571655273438,2,11088.382911375,2,2,1580907372.624078,1580903939.50652,2377,0.4626901,0,0,2938.329,10,11,1580907321.19788,11085.362186,0,14.12585,97.03912
1580907372.878058,91,0,1580907286.99823,41.20781296037784,29.0754925099451,275.2123,0.1345286,-1,23.46983528137207,200,-9999,11088.669746375,0.969970703125,0.0878448486328125,-0.139434814453125,11088.664711375,1.678747867859198,1.434023486487342,-0.08858144296334103,-0.002050579525530338,0.006495827808976173,-0.00343960290774703,-0.01951420307159424,-0.001365751028060913,-0.00666731595993042,2,-0.5108684441612679,0.4136511987696134,0.5409928099982461,0.5246265436553413,0.986777126789093,0.08846564590930939,-0.1358122378587723,61.56958770751953,-4.77808952331543,13.46365356445312,2,11088.382911375,2,2,1580907372.624078,1580903939.50652,2377,0.4626901,0,0,2938.329,10,11,1580907321.19788,11085.362186,0,14.12585,97.03912
1580907372.887628,92,0,1580907286.99823,41.20781296037784,29.0754925099451,275.2123,0.1345286,-1,23.46983528137207,200,-9999,11088.679786375,0.9684295654296875,0.087127685546875,-0.1407928466796875,11088.674751375,1.678762129463311,1.434078005164524,-0.0886046032369141,-0.001546693965792656,0.005045559257268906,-0.001563477795571089,-0.01912295818328857,-0.0007327497005462646,-0.005882561206817627,2,-0.5108917622509933,0.4136550968087239,0.5409772030087709,0.5246166674605274,0.9867823123931885,0.08848871290683746,-0.1357581317424774,61.56958770751953,-4.77808952331543,13.46365356445312,2,11088.382911375,2,2,1580907372.624078,1580903939.50652,2377,0.4626901,0,0,2938.329,10,11,1580907321.19788,11085.362186,0,14.12585,97.03912
1580907372.917338,93,0,1580907286.99823,41.20781296037784,29.0754925099451,275.2123,0.1345286,-1,23.46983528137207,200,-9999,11088.689857375,0.9692230224609375,0.08697509765625,-0.1415557861328125,11088.684791375,1.6787777206617,1.434133006605841,-0.08863514298106627,-0.002171471249312162,0.004401072859764099,-0.002243649214506149,-0.02115720510482788,-0.001602530479431152,-0.007432699203491211,2,-0.5109172033331364,0.4136566961129696,0.5409601785986607,0.5246082239410504,0.9867871403694153,0.0885191336274147,-0.1357035040855408,61.54091644287109,-5.087228775024414,13.210205078125,2,11088.382911375,2,2,1580907372.624078,1580903939.50652,2377,0.4626901,0,0,2938.329,10,11,1580907321.19788,11085.362186,0,14.12585,97.03912
1580907372.919075,94,0,1580907286.99823,41.20781296037784,29.0754925099451,275.2123,0.1345286,-1,23.46983528137207,200,-9999,11088.699898375,0.968963623046875,0.0861053466796875,-0.142486572265625,11088.694832375,1.678804653137165,1.434226898647261,-0.08867499118592626,-0.002640514634549618,0.01037735491991043,-0.002798962872475386,-0.02018988132476807,-0.001596510410308838,-0.007632911205291748,2,-0.5109577609735765,0.413662887415991,0.5409340202115243,0.5245908007346597,0.9867963790893555,0.08855882287025452,-0.135610356926918,61.54091644287109,-5.087228775024414,13.210205078125,2,11088.382911375,2,2,1580907372.624078,1580903939.50652,2377,0.4626901,0,0,2938.329,10,11,1580907321.19788,11085.362186,0,14.12585,97.03912
1580907372.920264,95,0,1580907286.99823,41.20781296037784,29.0754925099451,275.2123,0.1345286,-1,23.46983528137207,200,-9999,11088.709938375,0.9702301025390625,0.0861358642578125,-0.141693115234375,11088.704872375,1.678819799089438,1.434322380850884,-0.0887224672711186,-0.0009395536035299301,0.009174138307571411,-0.003923083189874887,-0.02074801921844482,-0.002681612968444824,-0.009513258934020996,2,-0.5109981366225466,0.4136703015985126,0.5409026027513252,0.5245780377605131,0.9868051409721375,0.08860611170530319,-0.135515570640564,61.64508819580078,-4.800931930541992,13.3223876953125,2,11088.382911375,2,2,1580907372.624078,1580903939.50652,2377,0.4626901,0,0,2938.329,10,11,1580907321.19788,11085.362186,0,14.12585,97.03912
1580907372.927867,96,0,1580907286.99823,41.20781296037784,29.0754925099451,275.2123,0.1345286,-1,23.46983528137207,200,-9999,11088.719978375,0.9687652587890625,0.085479736328125,-0.1412811279296875,11088.714943375,1.678855233044975,1.434446839390888,-0.08877593052820508,-0.005975684151053429,0.01237440854310989,-0.004679654259234667,-0.019508957862854,-0.002536565065383911,-0.008645176887512207,2,-0.5110519836629844,0.4136783943968235,0.5408677111566903,0.524555188744147,0.9868173003196716,0.08865936845541,-0.1353921145200729,61.64508819580078,-4.800931930541992,13.3223876953125,2,11088.382911375,2,2,1580907372.624078,1580903939.50652,2377,0.4626901,0,0,2938.329,10,11,1580907321.19788,11086.307894,0,14.10999,97.0393
1580907372.937998,97,0,1580907286.99823,41.20781296037784,29.0754925099451,275.2123,0.1345286,-1,23.46983528137207,200,-9999,11088.730018375,0.967926025390625,0.086944580078125,-0.1409759521484375,11088.724983375,1.67889301584082,1.434582041438656,-0.08883058753461442,-0.00467765936627984,0.01220769807696342,-0.005773947574198246,-0.02014821767807007,-0.003628820180892944,-0.008779644966125488,2,-0.5111095092099432,0.4136883528744072,0.5408304042750016,0.5245297505358647,0.9868308305740356,0.08871380984783173,-0.1352580338716507,61.46698760986328,-4.937166213989258,13.3966064453125,2,11088.382911375,2,2,1580907372.624078,1580903939.50652,2377,0.4626901,0,0,2938.329,10,11,1580907321.19788,11086.307894,0,14.10999,97.0393
1580907372.947864,98,0,1580907286.99823,41.20781296037784,29.0754925099451,275.2123,0.1345286,-1,23.46983528137207,200,-9999,11088.740059375,0.966583251953125,0.0865936279296875,-0.1422882080078125,11088.735023375,1.678915868821561,1.434768982842139,-0.08889379072658292,-0.002073549665510654,0.01911266148090363,-0.005664427764713764,-0.021342933177948,-0.002242356538772583,-0.007637858390808105,2,-0.5111799799478118,0.4137132234163175,0.5407739813765797,0.5244996647620419,0.9868505597114563,0.08877675980329514,-0.13507279753685,61.46698760986328,-4.937166213989258,13.3966064453125,2,11088.382911375,2,2,1580907372.624078,1580903939.50652,2377,0.4626901,0,0,2938.329,10,11,1580907321.19788,11086.307894,0,14.10999,97.0393
1580907372.97565,99,0,1580907286.99823,41.20781296037784,29.0754925099451,275.2123,0.1345286,-1,23.46983528137207,200,-9999,11088.750099375,0.9688262939453125,0.087615966796875,-0.139984130859375,11088.745064375,1.678935851725324,1.434979858713689,-0.08897660682414001,-0.00233267480507493,0.02233455330133438,-0.008601628243923187,-0.02287483215332031,-0.00266072154045105,-0.00977015495300293,2,-0.511261028950438,0.4137394234748317,0.540706141958437,0.5244700022084332,0.9868717789649963,0.08885925263166428,-0.1348637044429779,61.58527374267578,-5.131219863891602,13.4769287109375,2,11088.382911375,2,2,1580907372.624078,1580903939.50652,2377,0.4626901,0,0,2938.329,10,11,1580907321.19788,11086.307894,0,14.10999,97.0393
1580907372.97728,100,0,1580907286.99823,41.20781296037784,29.0754925099451,275.2123,0.1345286,-1,23.46983528137207,200,-9999,11088.760139375,0.9687347412109375,0.08770751953125,-0.140228271484375,11088.755104375,1.678977591570523,1.435173374011151,-0.0890302686435816,-0.004882777109742165,0.01888426020741463,-0.004029886797070503,-0.02164500951766968,-0.001646220684051514,-0.008512735366821289,2,-0.5113348796369052,0.4137639443505985,0.5406551780420601,0.5244312092264068,0.9868931770324707,0.08891270309686661,-0.134672075510025,61.58527374267578,-5.131219863891602,13.4769287109375,2,11088.382911375,2,2,1580907372.624078,1580903939.50652,2377,0.4626901,0,0,2938.329,10,11,1580907321.19788,11086.307894,0,14.10999,97.0393
1580907372.978512,101,0,1580907286.99823,41.20781296037784,29.0754925099451,275.2123,0.1345286,-1,23.46983528137207,200,-9999,11088.770210375,0.96710205078125,0.0868682861328125,-0.140533447265625,11088.765144375,1.679013119248367,1.435377923138097,-0.08908734284787573,-0.004271315410733223,0.0200190357863903,-0.004801138304173946,-0.02021795511245728,-0.001367479562759399,-0.007311999797821045,2,-0.5114112531993676,0.4137919419909129,0.5405989496521137,0.5243925740600379,0.9869155883789062,0.08896955102682114,-0.1344695240259171,61.45772552490234,-4.806215286254883,13.33847045898438,2,11088.382911375,2,2,1580907372.624078,1580903939.50652,2377,0.4626901,0,0,2938.329,10,11,1580907321.19788,11086.307894,0,14.10999,97.0393
1580907372.988085,102,0,1580907286.99823,41.20781296037784,29.0754925099451,275.2123,0.1345286,-1,23.46983528137207,200,-9999,11088.780250375,0.9699249267578125,0.0871429443359375,-0.1382904052734375,11088.775184375,1.67905324571271,1.435595400562691,-0.08914396377958939,-0.005414517596364021,0.02167978137731552,-0.004212579689919949,-0.02279049158096313,-0.002492159605026245,-0.00913006067276001,2,-0.5114919355372824,0.4138222993002388,0.5405407398932778,0.5243499762026385,0.9869399070739746,0.08902594447135925,-0.134254202246666,61.52477264404297,-4.805303573608398,13.27261352539062,2,11088.382911375,2,2,1580907372.624078,1580903939.50652,2377,0.4626901,0,0,2938.329,10,11,1580907321.19788,11086.307894,0,14.10999,97.0393
1580907372.99803,103,0,1580907286.99823,41.20781296037784,29.0754925099451,275.2123,0.1345286,-1,23.46983528137207,200,-9999,11088.790291375,0.9691619873046875,0.08685302734375,-0.13946533203125,11088.785225375,1.679092946124121,1.435809877409892,-0.08920517621508058,-0.005211052019149065,0.02155674248933792,-0.005736174061894417,-0.02026575803756714,-0.002004057168960571,-0.006856083869934082,2,-0.5115728769650328,0.4138505838112382,0.5404820361493775,0.524308999289297,0.9869630932807922,0.08908691257238388,-0.1340417712926865,61.52477264404297,-4.805303573608398,13.27261352539062,2,11088.382911375,2,2,1580907372.624078,1580903939.50652,2377,0.4626901,0,0,2938.329,10,11,1580907321.19788,11086.307894,0,14.10999,97.0393
1580907373.008133,104,0,1580907286.99823,41.20781296037784,29.0754925099451,275.2123,0.1345286,-1,23.46983528137207,200,-9999,11088.800331375,0.9706878662109375,0.0879058837890625,-0.13812255859375,11088.795295375,1.679136337059361,1.435986283684387,-0.08926522850432299,-0.005135483108460903,0.01739028468728065,-0.0058456608094275,-0.02042150497436523,-0.002643823623657227,-0.007855415344238281,2,-0.5116439546256464,0.4138683259722333,0.5404343598615178,0.524274791189927,0.9869813919067383,0.08914672583341599,-0.1338669508695602,61.46404266357422,-4.763555526733398,13.32077026367188,2,11088.382911375,2,2,1580907372.624078,1580903939.50652,2377,0.4626901,0,0,2938.329,10,11,1580907321.19788,11086.307894,0,14.10999,97.0393
1580907373.030219,105,0,1580907286.99823,41.20781296037784,29.0754925099451,275.2123,0.1345286,-1,23.46983528137207,200,-9999,11088.810371375,0.9690399169921875,0.0867919921875,-0.1378631591796875,11088.805336375,1.679175101853619,1.436140127249252,-0.08933013080825125,-0.003891520667821169,0.01624912023544312,-0.006890418939292431,-0.01920044422149658,-0.002021968364715576,-0.007337033748626709,2,-0.5117091258612581,0.4138799394237663,0.5403901245220742,0.5242476711081029,0.9869962930679321,0.08921137452125549,-0.1337143331766129,61.46404266357422,-4.763555526733398,13.32077026367188,2,11088.382911375,2,2,1580907372.624078,1580903939.50652,2377,0.4626901,0,0,2938.329,10,11,1580907321.19788,11086.307894,0,14.10999,97.0393
1580907373.031295,106,0,1580907286.99823,41.20781296037784,29.0754925099451,275.2123,0.1345286,-1,23.46983528137207,200,-9999,11088.820411375,0.9703521728515625,0.0885009765625,-0.137847900390625,11088.815376375,1.679204080372259,1.436255057654366,-0.08940257101191959,-0.003249736502766609,0.0105759184807539,-0.007668915204703808,-0.02039963006973267,-0.002338528633117676,-0.006246209144592285,2,-0.5117635807246902,0.4138816542440803,0.5403515060552192,0.5242329590933128,0.9870052337646484,0.08928351849317551,-0.1336000263690948,61.55789947509766,-4.782175064086914,13.47613525390625,2,11088.382911375,2,2,1580907372.624078,1580903939.50652,2377,0.4626901,0,0,2938.329,10,11,1580907321.19788,11086.307894,0,14.10999,97.0393
1580907373.038352,107,0,1580907286.99823,41.20781296037784,29.0754925099451,275.2123,0.1345286,-1,23.46983528137207,200,-9999,11088.830452375,0.9696044921875,0.0877685546875,-0.1370697021484375,11088.825416375,1.679244560221376,1.436335846636909,-0.08946441124201673,-0.005680669564753771,0.007071731612086296,-0.00488591194152832,-0.0196419358253479,-0.001728832721710205,-0.006922006607055664,2,-0.5118086496841002,0.4138745399972235,0.5403270842830541,0.5242197083692722,0.9870105385780334,0.08934511244297028,-0.1335195451974869,61.55789947509766,-4.782175064086914,13.47613525390625,2,11088.382911375,2,2,1580907372.624078,1580903939.50652,2377,0.4626901,0,0,2938.329,10,11,1580907321.19788,11086.307894,0,14.10999,97.0393
1580907373.048226,108,0,1580907286.99823,41.20781296037784,29.0754925099451,275.2123,0.1345286,-1,23.46983528137207,200,-9999,11088.840492375,0.9673309326171875,0.087127685546875,-0.1378173828125,11088.835457375,1.679277809987464,1.436412207017534,-0.0895344751346482,-0.003997097723186016,0.007269380614161491,-0.006631603464484215,-0.01967644691467285,-0.001478374004364014,-0.005975902080535889,2,-0.511852948509132,0.4138657779162258,0.5403000491243953,0.5242113975850173,0.9870146512985229,0.08941490203142166,-0.1334433555603027,61.42833709716797,-4.803361892700195,13.59085083007812,2,11088.382911375,2,2,1580907372.624078,1580903939.50652,2377,0.4626901,0,0,2938.329,10,11,1580907321.19788,11086.307894,0,14.10999,97.0393
1580907373.058307,109,0,1580907286.99823,41.20781296037784,29.0754925099451,275.2123,0.1345286,-1,23.46983528137207,200,-9999,11088.850563375,0.969207763671875,0.088409423828125,-0.1383209228515625,11088.845497375,1.679296738778208,1.436499548681774,-0.08961499715497116,-0.001960312016308308,0.008131446316838264,-0.007686214987188578,-0.02206122875213623,-0.002596437931060791,-0.006338000297546387,2,-0.5118997997959622,0.41386048901353,0.5402639723930651,0.5242070047169642,0.9870191812515259,0.08949510008096695,-0.1333561837673187,61.42833709716797,-4.803361892700195,13.59085083007812,2,11088.382911375,2,2,1580907372.624078,1580903939.50652,2377,0.4626901,0,0,2938.329,10,11,1580907321.19788,11086.307894,0,14.10999,97.0393
1580907373.068433,110,0,1580907286.99823,41.20781296037784,29.0754925099451,275.2123,0.1345286,-1,23.46983528137207,200,-9999,11088.860603375,0.971649169921875,0.08837890625,-0.136871337890625,11088.855537375,1.679321242171764,1.436570643273149,-0.08969016856932095,-0.003455840982496738,0.006710153073072433,-0.006171600893139839,-0.02145373821258545,-0.001939117908477783,-0.007645130157470703,2,-0.5119421271296246,0.4138510652964741,0.5402347541844479,0.5242032214627137,0.9870219826698303,0.08956997096538544,-0.1332851052284241,61.58861541748047,-4.748849868774414,13.64468383789062,2,11088.382911375,2,2,1580907372.624078,1580903939.50652,2377,0.4626901,0,0,2938.329,10,11,1580907321.19788,11086.307894,0,14.10999,97.0393
1580907373.087921,111,0,1580907286.99823,41.20781296037784,29.0754925099451,275.2123,0.1345286,-1,23.46983528137207,200,-9999,11088.870643375,0.9707183837890625,0.088165283203125,-0.137420654296875,11088.865577375,1.67932754038834,1.436615949448004,-0.08978683962833761,-0.0005628494545817375,0.005730642005801201,-0.01091602258384228,-0.01827740669250488,-0.001242130994796753,-0.006378889083862305,2,-0.5119788815402868,0.4138333109698115,0.5402023739565933,0.5242147116542258,0.987019419670105,0.08966624736785889,-0.1332392245531082,61.58861541748047,-4.748849868774414,13.64468383789062,2,11088.382911375,2,2,1580907372.624078,1580903939.50652,2377,0.4626901,0,0,2938.329,10,11,1580907321.19788,11086.307894,0,14.10999,97.0393
1580907373.08901,112,0,1580907286.99823,41.20781296037784,29.0754925099451,275.2123,0.1345286,-1,23.46983528137207,200,-9999,11088.880684375,0.96783447265625,0.0885772705078125,-0.1385650634765625,11088.875648375,1.679334065898505,1.436648858496993,-0.08987906583093179,-0.001569346524775028,0.003001641482114792,-0.009306907653808594,-0.01853299140930176,-0.001837790012359619,-0.006519615650177002,2,-0.5120113038669004,0.4138135000042428,0.540174210155861,0.5242275520128593,0.9870154857635498,0.08975810557603836,-0.1332056224346161,61.76543426513672,-4.745351791381836,13.755615234375,2,11088.382911375,2,2,1580907372.624078,1580903939.50652,2377,0.4626901,0,0,2938.329,10,11,1580907321.19788,11086.307894,0,14.10999,97.0393
1580907373.098995,113,0,1580907286.99823,41.20781296037784,29.0754925099451,275.2123,0.1345286,-1,23.46983528137207,200,-9999,11088.890724375,0.96636962890625,0.0875396728515625,-0.1397705078125,11088.885689375,1.679332763128901,1.43673759836496,-0.08997299664319038,-0.0004340410232543945,0.009350616484880447,-0.009187065064907074,-0.02077955007553101,-0.001656949520111084,-0.007310450077056885,2,-0.512057546412049,0.4138098759766182,0.5401293563515676,0.5242314880294312,0.9870189428329468,0.08985165506601334,-0.1331169158220291,61.76543426513672,-4.745351791381836,13.755615234375,2,11088.382911375,2,2,1580907372.624078,1580903939.50652,2377,0.4626901,0,0,2938.329,10,11,1580907321.19788,11086.307894,0,14.10999,97.0393
1580907373.108569,114,0,1580907286.99823,41.20781296037784,29.0754925099451,275.2123,0.1345286,-1,23.46983528137207,200,-9999,11088.900764375,0.9658050537109375,0.087432861328125,-0.1390533447265625,11088.895729375,1.679338845260473,1.436873342870609,-0.09007655949862543,-0.001228784210979939,0.01415960490703583,-0.01067754253745079,-0.02336716651916504,-0.002233386039733887,-0.009094059467315674,2,-0.5121203247504457,0.4138138841032594,0.5400721544771562,0.5242259333472912,0.9870277643203735,0.08995480090379715,-0.1329816877841949,61.64975738525391,-4.712972640991211,13.53543090820312,2,11088.382911375,2,2,1580907372.624078,1580903939.50652,2377,0.4626901,0,0,2938.329,10,11,1580907321.19788,11086.307894,0,14.10999,97.0393
1580907373.118767,115,0,1580907286.99823,41.20781296037784,29.0754925099451,275.2123,0.1345286,-1,23.46983528137207,200,-9999,11088.910805375,0.96685791015625,0.0874481201171875,-0.1380615234375,11088.905769375,1.679354494324195,1.437029820266743,-0.09015737605524297,-0.002145710866898298,0.01671011745929718,-0.007351520471274853,-0.0239301323890686,-0.002878695726394653,-0.00891423225402832,2,-0.5121851965517239,0.413827485182291,0.54001744492252,0.524208248486688,0.9870414733886719,0.09003528952598572,-0.1328262686729431,61.64975738525391,-4.712972640991211,13.53543090820312,2,11088.382911375,2,2,1580907372.624078,1580903939.50652,2377,0.4626901,0,0,2938.329,10,11,1580907321.19788,11086.307894,0,14.10999,97.0393
1580907373.128728,116,0,1580907286.99823,41.20781296037784,29.0754925099451,275.2123,0.1345286,-1,23.46983528137207,200,-9999,11088.920845375,0.96746826171875,0.08685302734375,-0.1379241943359375,11088.915809375,1.679378636024016,1.437173883699684,-0.09023342103239117,-0.003346732817590237,0.01351289451122284,-0.00735651608556509,-0.02314913272857666,-0.002847820520401001,-0.008065760135650635,2,-0.512247325822331,0.4138370357131354,0.5399692370613782,0.5241897154698976,0.9870538115501404,0.09011102467775345,-0.1326831728219986,61.54491424560547,-4.811399459838867,13.59664916992188,2,11088.382911375,2,2,1580907372.624078,1580903939.50652,2377,0.4626901,0,0,2938.329,10,11,1580907321.19788,11086.307894,0,14.10999,97.0393
1580907373.149178,117,0,1580907286.99823,41.20781296037784,29.0754925099451,275.2123,0.1345286,-1,23.46983528137207,200,-9999,11088.930916375,0.9683380126953125,0.08734130859375,-0.1382598876953125,11088.925850375,1.67939443660893,1.437335168035468,-0.09029732311879933,-0.001987189054489136,0.01687513664364815,-0.006412957794964314,-0.02227985858917236,-0.003201484680175781,-0.007509112358093262,2,-0.5123094838302312,0.4138567296809131,0.5399172153052799,0.5241669615675484,0.9870694875717163,0.09017466753721237,-0.1325231939554214,61.54491424560547,-4.811399459838867,13.59664916992188,2,11088.382911375,2,2,1580907372.624078,1580903939.50652,2377,0.4626901,0,0,2938.329,10,11,1580907321.19788,11086.307894,0,14.10999,97.0393
1580907373.150536,118,0,1580907286.99823,41.20781296037784,29.0754925099451,275.2123,0.1345286,-1,23.46983528137207,200,-9999,11088.940956375,0.970672607421875,0.0891876220703125,-0.1368560791015625,11088.935890375,1.679416165154722,1.437485813136551,-0.09034886642054619,-0.003002457786351442,0.01532044634222984,-0.004687943030148745,-0.02206635475158691,-0.003893852233886719,-0.008635401725769043,2,-0.5123669941789095,0.4138757261636702,0.5398723730194369,0.5241420164910169,0.9870848655700684,0.09022599458694458,-0.1323738992214203,61.59180450439453,-4.970151901245117,13.557861328125,2,11088.382911375,2,2,1580907372.624078,1580903939.50652,2377,0.4626901,0,0,2938.329,10,11,1580907321.19788,11086.307894,0,14.10999,97.0393
1580907373.1586,119,0,1580907286.99823,41.20781296037784,29.0754925099451,275.2123,0.1345286,-1,23.46983528137207,200,-9999,11088.950996375,0.9683685302734375,0.0881195068359375,-0.1365966796875,11088.945930375,1.679440551118066,1.437621526290371,-0.09039266044675237,-0.003419242333620787,0.0135853998363018,-0.003915626090019941,-0.01933383941650391,-0.001419961452484131,-0.007198572158813477,2,-0.512419201490692,0.413892333396304,0.5398337984365965,0.5241175124818152,0.9870988726615906,0.09026961028575897,-0.1322394013404846,61.59180450439453,-4.970151901245117,13.557861328125,2,11088.382911375,2,2,1580907372.624078,1580903939.50652,2377,0.4626901,0,0,2938.329,10,11,1580907321.19788,11086.307894,0,14.10999,97.0393
1580907373.168945,120,0,1580907286.99823,41.20781296037784,29.0754925099451,275.2123,0.1345286,-1,23.46983528137207,200,-9999,11088.961036375,0.9688262939453125,0.0887451171875,-0.1368408203125,11088.955971375,1.679461312652638,1.437752750592107,-0.09041944512138829,-0.002753383480012417,0.01382777467370033,-0.001807351596653461,-0.02092039585113525,-0.002118080854415894,-0.00699305534362793,2,-0.512465343741385,0.4139136385196056,0.539799393644965,0.5240910019995475,0.9871137738227844,0.09029629081487656,-0.1321095377206802,61.60495758056641,-4.800745010375977,13.62075805664062,2,11088.382911375,2,2,1580907372.624078,1580903939.50652,2377,0.4626901,0,0,2938.329,10,11,1580907321.19788,11086.307894,0,14.10999,97.0393
1580907373.17935,121,0,1580907286.99823,41.20781296037784,29.0754925099451,275.2123,0.1345286,-1,23.46983528137207,200,-9999,11088.971077375,0.9676666259765625,0.0882110595703125,-0.1378021240234375,11088.966041375,1.679497379016109,1.437883635633793,-0.09044136416370054,-0.004363796673715115,0.01288048923015594,-0.0007836325094103813,-0.0210883617401123,-0.002292513847351074,-0.00657355785369873,2,-0.5125133920206439,0.4139323409824159,0.5397702129588771,0.5240592951551677,0.9871290922164917,0.09031812101602554,-0.1319800764322281,61.60495758056641,-4.800745010375977,13.62075805664062,2,11088.382911375,2,2,1580907372.624078,1580903939.50652,2377,0.4626901,0,0,2938.329,10,11,1580907321.19788,11086.307894,0,14.10999,97.0393
1580907373.188932,122,0,1580907286.99823,41.20781296037784,29.0754925099451,275.2123,0.1345286,-1,23.46983528137207,200,-9999,11088.981117375,0.9679107666015625,0.0885467529296875,-0.1368865966796875,11088.976082375,1.679521046915523,1.438031688378933,-0.0904597122496611,-0.001670111902058125,0.01516454666852951,-0.001999577973037958,-0.0215335488319397,-0.002066701650619507,-0.008673429489135742,2,-0.5125626461855615,0.4139597533114922,0.5397342122991802,0.5240265537374724,0.9871469736099243,0.0903363898396492,-0.1318337172269821,61.64948272705078,-4.910573959350586,13.62454223632812,2,11088.382911375,2,2,1580907372.624078,1580903939.50652,2377,0.4626901,0,0,2938.329,10,11,1580907321.19788,11086.307894,0,14.10999,97.0393
1580907373.214619,123,0,1580907286.99823,41.20781296037784,29.0754925099451,275.2123,0.1345286,-1,23.46983528137207,200,-9999,11088.991157375,0.9697723388671875,0.08856201171875,-0.13665771484375,11088.986122375,1.679538916256268,1.438164293978862,-0.09048135953970844,-0.002497023437172174,0.01252561807632446,-0.003390014637261629,-0.02241885662078857,-0.002240955829620361,-0.007538497447967529,2,-0.5126073297802416,0.4139836368865502,0.5396998693652442,0.5239993152655784,0.9871625304222107,0.0903579518198967,-0.1317025423049927,61.64948272705078,-4.910573959350586,13.62454223632812,2,11088.382911375,2,2,1580907372.624078,1580903939.50652,2377,0.4626901,0,0,2938.329,10,11,1580907321.19788,11086.307894,0,14.10999,97.0393
1580907373.215984,124,0,1580907286.99823,41.20781296037784,29.0754925099451,275.2123,0.1345286,-1,23.46983528137207,200,-9999,11089.001198375,0.969818115234375,0.0901031494140625,-0.135894775390625,11088.996162375,1.679537570404686,1.438285673235752,-0.09048611322625125,0.0005575073882937431,0.01202813908457756,-0.0004837065935134888,-0.02051186561584473,-0.002062499523162842,-0.007673978805541992,2,-0.5126409312945615,0.4140144175851511,0.5396673168358057,0.5239757023870055,0.9871780872344971,0.09036268293857574,-0.1315826773643494,61.80403900146484,-5.091463088989258,13.54898071289062,2,11088.382911375,2,2,1580907372.624078,1580903939.50652,2377,0.4626901,0,0,2938.329,10,11,1580907321.19788,11086.307894,0,14.10999,97.0393
1580907373.21925,125,0,1580907286.99823,41.20781296037784,29.0754925099451,275.2123,0.1345286,-1,23.46983528137207,200,-9999,11089.011268375,0.9706878662109375,0.08856201171875,-0.135162353515625,11089.006202375,1.679534345227586,1.438393356385457,-0.09050040249954966,0.001627565361559391,0.01077698729932308,-0.002692000009119511,-0.02020442485809326,-0.001024037599563599,-0.006880462169647217,2,-0.5126727397039604,0.4140393214821332,0.5396355568726776,0.5239576372852867,0.9871910214424133,0.09037691354751587,-0.1314762085676193,61.80403900146484,-5.091463088989258,13.54898071289062,2,11088.382911375,2,2,1580907372.624078,1580903939.50652,2377,0.4626901,0,0,2938.329,10,11,1580907321.19788,11086.307894,0,14.10999,97.0393
1580907373.229182,126,0,1580907286.99823,41.20781296037784,29.0754925099451,275.2123,0.1345286,-1,23.46983528137207,200,-9999,11089.021309375,0.970458984375,0.087371826171875,-0.1363983154296875,11089.016243375,1.679544206786587,1.43849100711553,-0.09051500387721603,-0.001167422160506248,0.009323447942733765,-0.001314984168857336,-0.01978874206542969,-0.001114815473556519,-0.006076991558074951,2,-0.5127046224972378,0.4140581522266262,0.539609723919359,0.5239381932793069,0.9872025847434998,0.09039145708084106,-0.131379634141922,61.73809051513672,-4.716352462768555,13.7122802734375,2,11088.382911375,2,2,1580907372.624078,1580903939.50652,2377,0.4626901,0,0,2938.329,10,11,1580907321.19788,11086.307894,0,14.10999,97.0393
1580907373.239202,127,0,1580907286.99823,41.20781296037784,29.0754925099451,275.2123,0.1345286,-1,23.46983528137207,200,-9999,11089.031349375,0.968994140625,0.0877227783203125,-0.1359710693359375,11089.026283375,1.679551633106344,1.438588731808185,-0.09053862749799038,-0.0007394514977931976,0.009257933124899864,-0.002299821004271507,-0.01899081468582153,-0.003320455551147461,-0.007486224174499512,2,-0.5127381871875166,0.4140750078887745,0.5395811305368259,0.5239214855220642,0.9872133135795593,0.09041498601436615,-0.1312828809022903,61.73809051513672,-4.716352462768555,13.7122802734375,2,11088.382911375,2,2,1580907372.624078,1580903939.50652,2377,0.4626901,0,0,2938.329,10,11,1580907321.19788,11086.307894,0,14.10999,97.0393
1580907373.249218,128,0,1580907286.99823,41.20781296037784,29.0754925099451,275.2123,0.1345286,-1,23.46983528137207,200,-9999,11089.041389375,0.9673004150390625,0.088775634765625,-0.1372528076171875,11089.036323375,1.679577907796111,1.438721569041904,-0.09057190614661247,-0.004295612685382366,0.01505650952458382,-0.004171406850218773,-0.020546555519104,-0.003048509359359741,-0.006809711456298828,2,-0.5127874601370914,0.4140934117985149,0.5395462021650338,0.5238946182199705,0.9872276782989502,0.09044812619686127,-0.1311513334512711,61.75177764892578,-4.99070930480957,13.57284545898438,2,11088.382911375,2,2,1580907372.624078,1580903939.50652,2377,0.4626901,0,0,2938.329,10,11,1580907321.19788,11086.307894,0,14.10999,97.0393
1580907373.27369,129,0,1580907286.99823,41.20781296037784,29.0754925099451,275.2123,0.1345286,-1,23.46983528137207,200,-9999,11089.051430375,0.9676971435546875,0.0873870849609375,-0.1360015869140625,11089.046394375,1.679611346176182,1.438845816574994,-0.09058859838972183,-0.004745420534163713,0.01071715541183949,-0.00152262719348073,-0.0225602388381958,-0.002256482839584351,-0.008901238441467285,2,-0.5128318989542019,0.4141125517892313,0.5395192287609358,0.5238637845936823,0.9872424602508545,0.090464748442173,-0.1310284733772278,61.75177764892578,-4.99070930480957,13.57284545898438,2,11088.382911375,2,2,1580907372.624078,1580903939.50652,2377,0.4626901,0,0,2938.329,10,11,1580907321.19788,11086.307894,0,14.10999,97.0393
1580907373.274914,130,0,1580907286.99823,41.20781296037784,29.0754925099451,275.2123,0.1345286,-1,23.46983528137207,200,-9999,11089.061470375,0.9673919677734375,0.0895538330078125,-0.1365203857421875,11089.056434375,1.679635261513027,1.438996218390426,-0.09058878411076017,-0.002207642886787653,0.01589794456958771,0.0003417562693357468,-0.02190864086151123,-0.002897500991821289,-0.007020711898803711,2,-0.5128774719592024,0.4141457539816065,0.5394868760937026,0.523826217988185,0.9872621297836304,0.09046493470668793,-0.1308799833059311,61.62532806396484,-4.92692756652832,13.62054443359375,2,11088.382911375,2,2,1580907372.624078,1580903939.50652,2377,0.4626901,0,0,2938.329,10,11,1580907321.19788,11086.307894,0,14.10999,97.0393
1580907373.279324,131,0,1580907286.99823,41.20781296037784,29.0754925099451,275.2123,0.1345286,-1,23.46983528137207,200,-9999,11089.071510375,0.9700775146484375,0.0892791748046875,-0.1339263916015625,11089.066475375,1.679663804521902,1.439100052995041,-0.09057444593429198,-0.002530151978135109,0.008962541818618774,0.002178804948925972,-0.0232204794883728,-0.002028763294219971,-0.008832335472106934,2,-0.5129079714178973,0.4141697658287413,0.5394710358967285,0.5237936145420458,0.9872769713401794,0.09045065194368362,-0.1307776421308517,61.62532806396484,-4.92692756652832,13.62054443359375,2,11088.382911375,2,2,1580907372.624078,1580903939.50652,2377,0.4626901,0,0,2938.329,10,11,1580907321.19788,11086.307894,0,14.10999,97.0393
1580907373.28955,132,0,1580907286.99823,41.20781296037784,29.0754925099451,275.2123,0.1345286,-1,23.46983528137207,200,-9999,11089.081550375,0.970672607421875,0.08740234375,-0.135589599609375,11089.076515375,1.67969656761039,1.439198575625582,-0.09056137389547522,-0.003260144032537937,0.01011186838150024,0.002471016719937325,-0.02009129524230957,-0.0006881952285766602,-0.005511760711669922,2,-0.512938189350123,0.4141909598565588,0.539457397600001,0.5237613445978605,0.9872910380363464,0.0904376357793808,-0.1306805312633514,61.55440521240234,-4.918508529663086,13.7197265625,2,11088.382911375,2,2,1580907372.624078,1580903939.50652,2377,0.4626901,0,0,2938.329,10,11,1580907321.19788,11086.307894,0,14.10999,97.0393
1580907373.29946,133,0,1580907286.99823,41.20781296037784,29.0754925099451,275.2123,0.1345286,-1,23.46983528137207,200,-9999,11089.091621375,0.972076416015625,0.088775634765625,-0.1347198486328125,11089.086555375,1.679725311843772,1.439274866077712,-0.09056381306009663,-0.002710467670112848,0.007470278069376945,0.0003934847190976143,-0.02000951766967773,-0.003055691719055176,-0.007326841354370117,2,-0.5129652998357596,0.4142028639667775,0.539444796642353,0.5237383753397729,0.9873008131980896,0.0904400646686554,-0.1306051760911942,61.55440521240234,-4.918508529663086,13.7197265625,2,11088.382911375,2,2,1580907372.624078,1580903939.50652,2377,0.4626901,0,0,2938.329,10,11,1580907321.19788,11086.307894,0,14.10999,97.0393
1580907373.309516,134,0,1580907286.99823,41.20781296037784,29.0754925099451,275.2123,0.1345286,-1,23.46983528137207,200,-9999,11089.101661375,0.9705352783203125,0.08929443359375,-0.134857177734375,11089.096596375,1.679767373976412,1.439341583958148,-0.09057022596396705,-0.005153192207217216,0.006778653711080551,0.0001003788784146309,-0.01777470111846924,-0.002314478158950806,-0.00667572021484375,2,-0.5129935345472019,0.4142076970721443,0.5394372180904945,0.5237147372402484,0.9873089790344238,0.09044644981622696,-0.1305392384529114,61.56487274169922,-5.004434585571289,13.71560668945312,2,11088.382911375,2,2,1580907372.624078,1580903939.50652,2377,0.4626901,0,0,2938.329,10,11,1580907321.19788,11086.307894,0,14.10999,97.0393
1580907373.33558,135,0,1580907286.99823,41.20781296037784,29.0754925099451,275.2123,0.1345286,-1,23.46983528137207,200,-9999,11089.111702375,0.972198486328125,0.0898284912109375,-0.1343841552734375,11089.106636375,1.679788485325223,1.439376215295778,-0.09059092074906409,-0.00275288475677371,0.003346370533108711,-0.002062374260276556,-0.01947104930877686,-0.001465350389480591,-0.006740808486938477,2,-0.5130122219856377,0.4142053417768279,0.5394290344486592,0.5237066630528585,0.9873115420341492,0.09046706557273865,-0.1305047869682312,61.56487274169922,-5.004434585571289,13.71560668945312,2,11088.382911375,2,2,1580907372.624078,1580903939.50652,2377,0.4626901,0,0,2938.329,10,11,1580907321.19788,11086.307894,0,14.10999,97.0393
1580907373.336799,136,0,1580907286.99823,41.20781296037784,29.0754925099451,275.2123,0.1345286,-1,23.46983528137207,200,-9999,11089.121742375,0.9711456298828125,0.0878753662109375,-0.1352081298828125,11089.116676375,1.679810692780729,1.439390817583599,-0.09062686523100177,-0.003828541375696659,0.001429161056876183,-0.002834957093000412,-0.0183711051940918,-0.000845104455947876,-0.006038546562194824,2,-0.5130293753995897,0.4141930555313805,0.5394227452280419,0.5237060444711881,0.9873102307319641,0.09050285816192627,-0.1304899454116821,61.70040130615234,-5.266695022583008,13.50851440429688,2,11088.382911375,2,2,1580907372.624078,1580903939.50652,2377,0.4626901,0,0,2938.329,10,11,1580907321.19788,11086.307894,0,14.10999,97.0393
1580907373.339695,137,0,1580907286.99823,41.20781296037784,29.0754925099451,275.2123,0.1345286,-1,23.46983528137207,200,-9999,11089.131782375,0.967864990234375,0.0896453857421875,-0.134765625,11089.126747375,1.679830030757537,1.439392046873609,-0.09066696578926502,-0.003447709139436483,0.0002656262367963791,-0.003354273736476898,-0.0177573561668396,-0.002472102642059326,-0.006955802440643311,2,-0.5130433164971445,0.4141768057042783,0.5394181764863182,0.5237099605733967,0.9873068332672119,0.09054279327392578,-0.1304882615804672,61.70040130615234,-5.266695022583008,13.50851440429688,2,11088.382911375,2,2,1580907372.624078,1580903939.50652,2377,0.4626901,0,0,2938.329,10,11,1580907321.19788,11086.307894,0,14.10999,97.0393
1580907373.349709,138,0,1580907286.99823,41.20781296037784,29.0754925099451,275.2123,0.1345286,-1,23.46983528137207,200,-9999,11089.141823375,0.9688720703125,0.089202880859375,-0.1349639892578125,11089.136787375,1.679849838871062,1.439375308371885,-0.09071657539166862,-0.00298488000407815,-0.002736898139119148,-0.004544632043689489,-0.02185541391372681,-0.002033352851867676,-0.007016301155090332,2,-0.5130548055257771,0.4141529577246683,0.5394161073213,0.5237196378205762,0.9873000979423523,0.09059219807386398,-0.1305041909217834,61.52724456787109,-5.072702407836914,13.62896728515625,2,11088.382911375,2,2,1580907372.624078,1580903939.50652,2377,0.4626901,0,0,2938.329,10,11,1580907321.19788,11086.307894,0,14.10999,97.0393
1580907373.359729,139,0,1580907286.99823,41.20781296037784,29.0754925099451,275.2123,0.1345286,-1,23.46983528137207,200,-9999,11089.151863375,0.9690704345703125,0.0888214111328125,-0.1366119384765625,11089.146827375,1.679857354247269,1.439365112922077,-0.09076614719673454,-4.395097494125366e-05,-0.0004439167678356171,-0.004188301041722298,-0.02143764495849609,-0.001167327165603638,-0.00619804859161377,2,-0.5130654778310584,0.4141340120217264,0.5394091807200304,0.5237313448539545,0.9872943758964539,0.0906415656208992,-0.1305136680603027,61.69377899169922,-5.031316757202148,13.67178344726562,2,11088.382911375,2,2,1580907372.624078,1580903939.50652,2377,0.4626901,0,0,2938.329,10,11,1580907321.19788,11086.307894,0,14.10999,97.0393
1580907373.372407,140,0,1580907286.99823,41.20781296037784,29.0754925099451,275.2123,0.1345286,-1,23.46983528137207,200,-9999,11089.161903375,0.969085693359375,0.0878143310546875,-0.1347503662109375,11089.156868375,1.67987218665997,1.43934134358029,-0.09082615008163322,-0.001644177827984095,-0.001084908843040466,-0.005555185489356518,-0.02091032266616821,-0.002280086278915405,-0.00815892219543457,2,-0.5130765329181142,0.4141065841658185,0.5394051920906651,0.5237462381715324,0.987285852432251,0.09070132672786713,-0.1305364221334457,61.69377899169922,-5.031316757202148,13.67178344726562,2,11088.382911375,2,2,1580907372.624078,1580903939.50652,2377,0.4626901,0,0,2938.329,10,11,1580907321.19788,11086.307894,0,14.10999,97.0393
1580907373.396104,141,0,1580907286.99823,41.20781296037784,29.0754925099451,275.2123,0.1345286,-1,23.46983528137207,200,-9999,11089.171974375,0.969696044921875,0.0882110595703125,-0.1344146728515625,11089.166908375,1.679878597842537,1.439291858597484,-0.09089635106105569,-0.0001605311408638954,-0.005848239175975323,-0.007421528920531273,-0.021004319190979,-0.002701103687286377,-0.007118701934814453,2,-0.5130812799246102,0.4140716953461083,0.5394033094785047,0.5237713233294422,0.9872732162475586,0.09077123552560806,-0.1305844634771347,61.74941253662109,-5.109773635864258,13.63900756835938,2,11088.382911375,2,2,1580907372.624078,1580903939.50652,2377,0.4626901,0,0,2938.329,10,11,1580907321.19788,11086.307894,0,14.10999,97.0393
1580907373.39735,142,0,1580907286.99823,41.20781296037784,29.0754925099451,275.2123,0.1345286,-1,23.46983528137207,200,-9999,11089.182014375,0.9692535400390625,0.0896759033203125,-0.1344146728515625,11089.176948375,1.679903157360662,1.439250542834895,-0.09095445265402106,-0.003869236912578344,-0.004650302231311798,-0.004356953781098127,-0.02039861679077148,-0.003522038459777832,-0.006224215030670166,2,-0.513089169302953,0.4140377164980258,0.5394068006727262,0.5237867509486753,0.987262487411499,0.09082909673452377,-0.1306245476007462,61.74941253662109,-5.109773635864258,13.63900756835938,2,11088.382911375,2,2,1580907372.624078,1580903939.50652,2377,0.4626901,0,0,2938.329,10,11,1580907321.19788,11086.307894,0,14.10999,97.0393
1580907373.40049,143,0,1580907286.99823,41.20781296037784,29.0754925099451,275.2123,0.1345286,-1,23.46983528137207,200,-9999,11089.192055375,0.967620849609375,0.0882720947265625,-0.1366424560546875,11089.186989375,1.679921053815238,1.439221740204405,-0.0910187881120207,-0.002176797948777676,-0.004097962751984596,-0.005212360993027687,-0.0204806923866272,-0.001221269369125366,-0.005982875823974609,2,-0.5131005103699968,0.4140069517243082,0.5394039309296496,0.5238029496211252,0.9872530102729797,0.09089316427707672,-0.1306522190570831,61.69564056396484,-5.054738998413086,13.66961669921875,2,11088.382911375,2,2,1580907372.624078,1580903939.50652,2377,0.4626901,0,0,2938.329,10,11,1580907321.19788,11086.307894,0,14.10999,97.0393
1580907373.409916,144,0,1580907286.99823,41.20781296037784,29.0754925099451,275.2123,0.1345286,-1,23.46983528137207,200,-9999,11089.202095375,0.96917724609375,0.0903167724609375,-0.1346588134765625,11089.197029375,1.679954897434341,1.439209228138861,-0.0910907012102605,-0.00508031202480197,-0.001450972631573677,-0.006924530025571585,-0.02198314666748047,-0.002956271171569824,-0.007817625999450684,2,-0.5131213628049336,0.4139741634179954,0.5393992940812457,0.5238132383198627,0.9872449040412903,0.09096477925777435,-0.1306637227535248,61.69564056396484,-5.054738998413086,13.66961669921875,2,11088.382911375,2,2,1580907372.624078,1580903939.50652,2377,0.4626901,0,0,2938.329,10,11,1580907321.19788,11086.307894,0,14.10999,97.0393
1580907373.420011,145,0,1580907286.99823,41.20781296037784,29.0754925099451,275.2123,0.1345286,-1,23.46983528137207,200,-9999,11089.212135375,0.968170166015625,0.0889129638671875,-0.135589599609375,11089.207100375,1.679988539353762,1.439175234811708,-0.09115219723224349,-0.004936767742037773,-0.003743954002857208,-0.005433958955109119,-0.0213932991027832,-0.001491785049438477,-0.007479548454284668,2,-0.5131338890741494,0.4139388119474104,0.5394025306439479,0.5238255746754084,0.987234890460968,0.09102602303028107,-0.1306965500116348,61.73038482666016,-4.918500900268555,13.54153442382812,2,11088.382911375,2,2,1580907372.624078,1580903939.50652,2377,0.4626901,0,0,2938.329,10,11,1580907321.19788,11086.307894,0,14.10999,97.0393
1580907373.43273,146,0,1580907286.99823,41.20781296037784,29.0754925099451,275.2123,0.1345286,-1,23.46983528137207,200,-9999,11089.222175375,0.968597412109375,0.0901031494140625,-0.13604736328125,11089.217140375,1.679993779628631,1.439153758388549,-0.09120958673448949,-0.0006173513829708099,-0.001665789633989334,-0.006010554265230894,-0.0210801362991333,-0.001900017261505127,-0.006329774856567383,2,-0.5131429448983326,0.4139151988725032,0.5393960523341238,0.5238419706033263,0.9872268438339233,0.09108317643404007,-0.1307170540094376,61.73038482666016,-4.918500900268555,13.54153442382812,2,11088.382911375,2,2,1580907372.624078,1580903939.50652,2377,0.4626901,0,0,2938.329,10,11,1580907321.19788,11086.307894,0,14.10999,97.0393
1580907373.455094,147,0,1580907286.99823,41.20781296037784,29.0754925099451,275.2123,0.1345286,-1,23.46983528137207,200,-9999,11089.232216375,0.9689788818359375,0.088958740234375,-0.1367340087890625,11089.227180375,1.680003514833195,1.439144482707914,-0.09125987438825105,-0.001222687773406506,-0.001616787165403366,-0.005432914476841688,-0.02206611633300781,-0.001629829406738281,-0.007801413536071777,2,-0.5131545101533612,0.4138956946218112,0.5393892835204332,0.5238529980597461,0.9872210621833801,0.09113325178623199,-0.1307256072759628,61.74102020263672,-5.129823684692383,13.60540771484375,2,11088.382911375,2,2,1580907372.624078,1580903939.50652,2377,0.4626901,0,0,2938.329,10,11,1580907321.19788,11086.307894,0,14.10999,97.0393
1580907373.456436,148,0,1580907286.99823,41.20781296037784,29.0754925099451,275.2123,0.1345286,-1,23.46983528137207,200,-9999,11089.2422725,0.9679718017578125,0.08935546875,-0.136993408203125,11089.237221375,1.680015911449994,1.439167941254374,-0.09130144909095786,-0.0002997545525431633,0.00182388536632061,-0.004021533764898777,-0.02038699388504028,-0.001930743455886841,-0.007962465286254883,2,-0.5131733445924016,0.4138866269418204,0.5393768646761278,0.5238545634749477,0.9872204661369324,0.0911746546626091,-0.1307019591331482,61.74102020263672,-5.129823684692383,13.60540771484375,2,11088.382911375,2,2,1580907372.624078,1580903939.50652,2377,0.4626901,0,0,2938.329,10,11,1580907321.19788,11086.307894,0,14.10999,97.0393
1580907373.460265,149,0,1580907286.99823,41.20781296037784,29.0754925099451,275.2123,0.1345286,-1,23.46983528137207,200,-9999,11089.2523435,0.9694366455078125,0.0888824462890625,-0.135284423828125,11089.2472775,1.680030286783312,1.439201707164312,-0.09135270899579141,-0.001653173007071018,0.002593006938695908,-0.005728087387979031,-0.02197360992431641,-0.002424448728561401,-0.008911967277526855,2,-0.5131977151539936,0.4138769182105594,0.5393600339634026,0.5238556429871475,0.9872201681137085,0.09122569859027863,-0.1306679993867874,61.76700592041016,-5.150487899780273,13.45480346679688,2,11088.382911375,2,2,1580907372.624078,1580903939.50652,2377,0.4626901,0,0,2938.329,10,11,1580907321.19788,11086.307894,0,14.10999,97.0393
1580907373.470364,150,0,1580907286.99823,41.20781296037784,29.0754925099451,275.2123,0.1345286,-1,23.46983528137207,200,-9999,11089.2623835,0.9700927734375,0.0886688232421875,-0.1352691650390625,11089.2573175,1.680041904805258,1.439236422846263,-0.09140618410691437,-0.001738038845360279,0.0025058314204216,-0.005699795205146074,-0.0212409496307373,-0.002447307109832764,-0.00745159387588501,2,-0.5132222766799102,0.4138675465769031,0.5393417499670756,0.5238578593170993,0.9872199296951294,0.09127895534038544,-0.1306331008672714,61.76700592041016,-5.150487899780273,13.45480346679688,2,11088.382911375,2,2,1580907372.624078,1580903939.50652,2377,0.4626901,0,0,2938.329,10,11,1580907321.19788,11086.307894,0,14.10999,97.0393
1580907373.480085,151,0,1580907286.99823,41.20781296037784,29.0754925099451,275.2123,0.1345286,-1,23.46983528137207,200,-9999,11089.2724235,0.970245361328125,0.089935302734375,-0.1354827880859375,11089.2673575,1.680060083213546,1.43925921465612,-0.09144650022103887,-0.001984647940844297,0.002127129584550858,-0.003280313219875097,-0.01983642578125,-0.003219962120056152,-0.006849050521850586,2,-0.5132418516535152,0.413857158292104,0.5393312748098459,0.5238576280598698,0.9872192144393921,0.09131909906864166,-0.1306101083755493,61.74079132080078,-5.271635055541992,13.5938720703125,2,11088.382911375,2,2,1580907372.624078,1580903939.50652,2377,0.4626901,0,0,2938.329,10,11,1580907321.19788,11086.307894,0,14.10999,97.0393
1580907373.492803,152,0,1580907286.99823,41.20781296037784,29.0754925099451,275.2123,0.1345286,-1,23.46983528137207,200,-9999,11089.2824645,0.970062255859375,0.08941650390625,-0.1343841552734375,11089.2773985,1.680089955291786,1.439239783834719,-0.09147954741782813,-0.003098464105278254,-0.003111639991402626,-0.001681486610323191,-0.01981568336486816,-0.002047568559646606,-0.007318496704101562,2,-0.5132507030728468,0.4138348308542766,0.5393364066141183,0.5238613289469907,0.9872137308120728,0.09135200828313828,-0.1306288987398148,61.74079132080078,-5.271635055541992,13.5938720703125,2,11088.382911375,2,2,1580907372.624078,1580903939.50652,2377,0.4626901,0,0,2938.329,10,11,1580907321.19788,11086.307894,0,14.10999,97.0393
1580907373.517172,153,0,1580907286.99823,41.20781296037784,29.0754925099451,275.2123,0.1345286,-1,23.46983528137207,200,-9999,11089.2925045,0.967529296875,0.0890655517578125,-0.1369476318359375,11089.2874685,1.680116702938002,1.439247464685034,-0.09153790768904485,-0.003275527618825436,0.0002423450350761414,-0.00584613811224699,-0.01941460371017456,-0.001953274011611938,-0.006273984909057617,2,-0.5132722907215947,0.4138130610031592,0.53932786441792,0.5238661469858563,0.9872093796730042,0.09141012281179428,-0.130620613694191,61.76715850830078,-5.275461196899414,13.56558227539062,2,11088.382911375,2,2,1580907372.624078,1580903939.50652,2377,0.4626901,0,0,2938.329,10,11,1580907321.19788,11086.307894,0,14.10999,97.0393
1580907373.518753,154,0,1580907286.99823,41.20781296037784,29.0754925099451,275.2123,0.1345286,-1,23.46983528137207,200,-9999,11089.3025445,0.96826171875,0.0898284912109375,-0.1347503662109375,11089.2975095,1.680133671633377,1.439267047456972,-0.09159477481711181,-0.00231620529666543,0.001692190766334534,-0.005879301112145185,-0.02171617746353149,-0.00284925103187561,-0.008308172225952148,2,-0.5132946763185297,0.4137973786449998,0.5393140882292868,0.5238708789817164,0.9872068762779236,0.0914667546749115,-0.1306006163358688,61.76715850830078,-5.275461196899414,13.56558227539062,2,11088.382911375,2,2,1580907372.624078,1580903939.50652,2377,0.4626901,0,0,2938.329,10,11,1580907321.19788,11086.307894,0,14.10999,97.0393
1580907373.520368,155,0,1580907286.99823,41.20781296037784,29.0754925099451,275.2123,0.1345286,-1,23.46983528137207,200,-9999,11089.3125845,0.96942138671875,0.08966064453125,-0.1349029541015625,11089.3075495,1.68014367727255,1.439236252871283,-0.09164285147230955,-0.001359331421554089,-0.002987515181303024,-0.004679280798882246,-0.02216547727584839,-0.0020122230052948,-0.007316946983337402,2,-0.5132999541246897,0.413772812567479,0.5393134338267809,0.5238857884211697,0.987198531627655,0.09151463210582733,-0.1306304335594177,61.97591400146484,-5.022668838500977,13.42669677734375,2,11088.382911375,2,2,1580907372.624078,1580903939.50652,2377,0.4626901,0,0,2938.329,10,11,1580907321.19788,11086.307894,0,14.10999,97.0393
1580907373.53046,156,0,1580907286.99823,41.20781296037784,29.0754925099451,275.2123,0.1345286,-1,23.46983528137207,200,-9999,11089.3226255,0.9694061279296875,0.08953857421875,-0.1352081298828125,11089.3175895,1.680143926004911,1.439185946308045,-0.09170023259814099,-0.0008340706117451191,-0.004143329337239265,-0.006130396388471127,-0.02044475078582764,-0.00214579701423645,-0.00612342357635498,2,-0.513300176324886,0.413742945281571,0.5393130717376671,0.523909548487845,0.9871867299079895,0.09157177060842514,-0.1306794136762619,61.97591400146484,-5.022668838500977,13.42669677734375,2,11088.382911375,2,2,1580907372.624078,1580903939.50652,2377,0.4626901,0,0,2938.329,10,11,1580907321.19788,11086.307894,0,14.10999,97.0393
1580907373.540648,157,0,1580907286.99823,41.20781296037784,29.0754925099451,275.2123,0.1345286,-1,23.46983528137207,200,-9999,11089.3326965,0.96783447265625,0.0886688232421875,-0.135894775390625,11089.3276305,1.680132312017873,1.439130796691511,-0.09175836570819315,0.001302051357924938,-0.006119394674897194,-0.006044110283255577,-0.02024900913238525,-0.002280175685882568,-0.007076621055603027,2,-0.5132968329986093,0.4137146209554347,0.5393106530095847,0.5239376406384945,0.9871742129325867,0.09162966161966324,-0.1307331472635269,61.71482086181641,-5.058347702026367,13.30154418945312,2,11088.382911375,2,2,1580907372.624078,1580903939.50652,2377,0.4626901,0,0,2938.329,10,11,1580907321.19788,11086.307894,0,14.10999,97.0393
1580907373.553001,158,0,1580907286.99823,41.20781296037784,29.0754925099451,275.2123,0.1345286,-1,23.46983528137207,200,-9999,11089.3427365,0.9664306640625,0.0893096923828125,-0.13720703125,11089.3376705,1.680130549192725,1.439131251724914,-0.09181789217663297,-0.0008832770399749279,0.0004259217530488968,-0.005943889729678631,-0.02152550220489502,-0.003026217222213745,-0.006971001625061035,2,-0.5133108422311907,0.4136979425827187,0.5392962349445128,0.5239519369106261,0.9871689081192017,0.09168893098831177,-0.1307319849729538,61.71482086181641,-5.058347702026367,13.30154418945312,2,11088.382911375,2,2,1580907372.624078,1580903939.50652,2377,0.4626901,0,0,2938.329,10,11,1580907321.19788,11086.307894,0,14.10999,97.0393
1580907373.575769,159,0,1580907286.99823,41.20781296037784,29.0754925099451,275.2123,0.1345286,-1,23.46983528137207,200,-9999,11089.3527765,0.9682769775390625,0.0899810791015625,-0.136016845703125,11089.3477105,1.680130842125261,1.439174948159873,-0.0918830289374952,-0.001135478727519512,0.005048369988799095,-0.006357745267450809,-0.02344787120819092,-0.002847135066986084,-0.008769750595092773,2,-0.5133382726894292,0.4136904447010979,0.5392699592221232,0.523958063979523,0.9871687293052673,0.09175379574298859,-0.1306880712509155,61.72998809814453,-4.977460861206055,13.47781372070312,2,11088.382911375,2,2,1580907372.624078,1580903939.50652,2377,0.4626901,0,0,2938.329,10,11,1580907321.19788,11086.307894,0,14.10999,97.0393
1580907373.577286,160,0,1580907286.99823,41.20781296037784,29.0754925099451,275.2123,0.1345286,-1,23.46983528137207,200,-9999,11089.3628165,0.968048095703125,0.0904693603515625,-0.1350860595703125,11089.3577505,1.680130951601175,1.439222396406157,-0.09193799830001229,-0.0007361769676208496,0.005407068878412247,-0.005317258648574352,-0.02193844318389893,-0.002459555864334106,-0.008313894271850586,2,-0.5133642615323977,0.4136869041474071,0.539245011258333,0.52396102805409,0.9871698617935181,0.09180853515863419,-0.1306405663490295,61.72998809814453,-4.977460861206055,13.47781372070312,2,11088.382911375,2,2,1580907372.624078,1580903939.50652,2377,0.4626901,0,0,2938.329,10,11,1580907321.19788,11086.307894,0,14.10999,97.0393
1580907373.580719,161,0,1580907286.99823,41.20781296037784,29.0754925099451,275.2123,0.1345286,-1,23.46983528137207,200,-9999,11089.3728575,0.9686431884765625,0.0909423828125,-0.1351776123046875,11089.3678215,1.680135676140586,1.43926299507583,-0.09197457380821135,-0.001409157644957304,0.004844343289732933,-0.003938007634133101,-0.02161997556686401,-0.001534759998321533,-0.007179617881774902,2,-0.5133849518435986,0.4136857170324277,0.5392273090995104,0.5239598716031679,0.9871718287467957,0.09184495359659195,-0.1306000351905823,61.63977813720703,-5.045644760131836,13.60531616210938,2,11088.382911375,2,2,1580907372.624078,1580903939.50652,2377,0.4626901,0,0,2938.329,10,11,1580907321.19788,11086.307894,0,14.10999,97.0393
1580907373.590698,162,0,1580907286.99823,41.20781296037784,29.0754925099451,275.2123,0.1345286,-1,23.46983528137207,200,-9999,11089.3828975,0.9685211181640625,0.0914459228515625,-0.1344451904296875,11089.3778625,1.680149862775624,1.439305184598471,-0.09200201334934292,-0.002346909139305353,0.004671955481171608,-0.003392633982002735,-0.02105838060379028,-0.001913130283355713,-0.006962299346923828,2,-0.5134058393962394,0.4136851664588184,0.5392138027173705,0.5239537034818996,0.9871748089790344,0.09187227487564087,-0.1305580586194992,61.63977813720703,-5.045644760131836,13.60531616210938,2,11088.382911375,2,2,1580907372.624078,1580903939.50652,2377,0.4626901,0,0,2938.329,10,11,1580907321.19788,11086.307894,0,14.10999,97.0393
